time,gFx,gFy,gFz,ax,ay,az,wx,wy,wz,yaw,pitch,roll
2024-10-11T13:44:19.615Z,0.0249,-1.0049,0.1792,-0.0613,0.1580,-0.3488,-0.0022,0.0910,0.0193,3.0613,1.4284,3.0221
2024-10-11T13:44:19.621Z,0.0257,-1.0052,0.1855,-0.0613,0.1580,-0.3488,-0.0210,0.0825,0.0133,3.0613,1.4284,3.0221
2024-10-11T13:44:19.632Z,0.0266,-1.0035,0.1782,-0.0990,0.1467,-0.3988,-0.0233,0.0763,0.0109,3.0581,1.4289,3.0274
2024-10-11T13:44:19.642Z,0.0290,-1.0007,0.1713,-0.0990,0.1467,-0.3988,-0.0266,0.0735,0.0117,3.0581,1.4289,3.0274
2024-10-11T13:44:19.652Z,0.0318,-1.0006,0.1564,-0.0990,0.1467,-0.3988,-0.0246,0.0687,0.0110,3.0581,1.4289,3.0274
2024-10-11T13:44:19.661Z,0.0345,-0.9983,0.1367,-0.1784,0.0828,-0.0410,-0.0232,0.0673,0.0089,3.0560,1.4296,3.0314
2024-10-11T13:44:19.672Z,0.0329,-0.9971,0.1200,-0.1784,0.0828,-0.0410,-0.0189,0.0594,0.0098,3.0560,1.4296,3.0314
2024-10-11T13:44:19.682Z,0.0318,-0.9911,0.1035,-0.1784,0.0828,-0.0410,-0.0124,0.0553,0.0087,3.0560,1.4296,3.0314
2024-10-11T13:44:19.692Z,0.0291,-0.9883,0.0916,-0.1507,-0.0087,0.4392,-0.0106,0.0487,0.0078,3.0541,1.4301,3.0348
2024-10-11T13:44:19.702Z,0.0265,-0.9840,0.0886,-0.1507,-0.0087,0.4392,-0.0068,0.0422,0.0062,3.0541,1.4301,3.0348
2024-10-11T13:44:19.712Z,0.0226,-0.9811,0.0908,-0.1507,-0.0087,0.4392,-0.0002,0.0351,0.0043,3.0541,1.4301,3.0348
2024-10-11T13:44:19.722Z,0.0196,-0.9783,0.0968,-0.0561,-0.1115,0.4427,-0.0010,0.0283,-0.0018,3.0529,1.4302,3.0369
2024-10-11T13:44:19.731Z,0.0149,-0.9751,0.1047,-0.0561,-0.1115,0.4427,-0.0008,0.0190,-0.0049,3.0529,1.4302,3.0369
2024-10-11T13:44:19.741Z,0.0149,-0.9763,0.1194,-0.0561,-0.1115,0.4427,-0.0014,0.0121,-0.0061,3.0529,1.4302,3.0369
2024-10-11T13:44:19.753Z,0.0105,-0.9787,0.1340,0.0228,-0.1240,0.0994,-0.0047,0.0026,-0.0093,3.0535,1.4302,3.0366
2024-10-11T13:44:19.762Z,0.0111,-0.9808,0.1485,0.0228,-0.1240,0.0994,-0.0088,-0.0055,-0.0133,3.0535,1.4302,3.0366
2024-10-11T13:44:19.772Z,0.0152,-0.9836,0.1558,0.0228,-0.1240,0.0994,-0.0115,-0.0129,-0.0138,3.0535,1.4302,3.0366
2024-10-11T13:44:19.782Z,0.0174,-0.9899,0.1625,-0.0185,-0.0254,-0.2063,-0.0163,-0.0189,-0.0146,3.0566,1.4305,3.0330
2024-10-11T13:44:19.793Z,0.0238,-0.9962,0.1623,-0.0185,-0.0254,-0.2063,-0.0210,-0.0205,-0.0172,3.0566,1.4305,3.0330
2024-10-11T13:44:19.804Z,0.0334,-1.0004,0.1630,-0.0185,-0.0254,-0.2063,-0.0235,-0.0213,-0.0128,3.0566,1.4305,3.0330
2024-10-11T13:44:19.811Z,0.0363,-1.0030,0.1617,-0.1921,0.1149,-0.2386,-0.0282,-0.0238,-0.0107,3.0599,1.4312,3.0289
2024-10-11T13:44:19.822Z,0.0377,-1.0021,0.1562,-0.1921,0.1149,-0.2386,-0.0299,-0.0268,-0.0113,3.0599,1.4312,3.0289
2024-10-11T13:44:19.832Z,0.0355,-1.0026,0.1487,-0.1921,0.1149,-0.2386,-0.0317,-0.0271,-0.0102,3.0599,1.4312,3.0289
2024-10-11T13:44:19.842Z,0.0350,-0.9975,0.1368,-0.1839,0.0859,-0.0413,-0.0306,-0.0278,-0.0078,3.0624,1.4320,3.0254
2024-10-11T13:44:19.853Z,0.0332,-0.9945,0.1279,-0.1839,0.0859,-0.0413,-0.0258,-0.0303,-0.0075,3.0624,1.4320,3.0254
2024-10-11T13:44:19.862Z,0.0358,-0.9933,0.1180,-0.1839,0.0859,-0.0413,-0.0237,-0.0289,-0.0071,3.0624,1.4320,3.0254
2024-10-11T13:44:19.872Z,0.0427,-0.9890,0.1068,-0.2347,0.0027,0.2468,-0.0216,-0.0279,0.0000,3.0641,1.4327,3.0226
2024-10-11T13:44:19.882Z,0.0404,-0.9866,0.1007,-0.2347,0.0027,0.2468,-0.0166,-0.0278,0.0007,3.0641,1.4327,3.0226
2024-10-11T13:44:19.892Z,0.0491,-0.9825,0.0941,-0.2347,0.0027,0.2468,-0.0100,-0.0234,0.0044,3.0641,1.4327,3.0226
2024-10-11T13:44:19.903Z,0.0489,-0.9820,0.0917,-0.3287,-0.0761,0.4322,-0.0074,-0.0215,0.0073,3.0639,1.4330,3.0217
2024-10-11T13:44:19.911Z,0.0465,-0.9802,0.0985,-0.3287,-0.0761,0.4322,-0.0069,-0.0188,0.0101,3.0639,1.4330,3.0217
2024-10-11T13:44:19.922Z,0.0441,-0.9775,0.1064,-0.3287,-0.0761,0.4322,-0.0042,-0.0194,0.0116,3.0639,1.4330,3.0217
2024-10-11T13:44:19.932Z,0.0407,-0.9783,0.1194,-0.2458,-0.1209,0.2179,-0.0065,-0.0222,0.0124,3.0615,1.4332,3.0232
2024-10-11T13:44:19.942Z,0.0366,-0.9800,0.1309,-0.2458,-0.1209,0.2179,-0.0094,-0.0178,0.0152,3.0615,1.4332,3.0232
2024-10-11T13:44:19.953Z,0.0312,-0.9845,0.1445,-0.2458,-0.1209,0.2179,-0.0121,-0.0195,0.0167,3.0615,1.4332,3.0232
2024-10-11T13:44:19.962Z,0.0338,-0.9914,0.1502,-0.1618,-0.0175,-0.1218,-0.0149,-0.0170,0.0145,3.0583,1.4336,3.0254
2024-10-11T13:44:19.972Z,0.0327,-0.9986,0.1578,-0.1618,-0.0175,-0.1218,-0.0177,-0.0169,0.0210,3.0583,1.4336,3.0254
2024-10-11T13:44:19.982Z,0.0248,-1.0047,0.1636,-0.1618,-0.0175,-0.1218,-0.0188,-0.0176,0.0170,3.0583,1.4336,3.0254
2024-10-11T13:44:19.992Z,0.0173,-1.0101,0.1657,-0.0375,0.1674,-0.2964,-0.0227,-0.0191,0.0167,3.0552,1.4342,3.0277
2024-10-11T13:44:20.004Z,0.0109,-1.0112,0.1676,-0.0375,0.1674,-0.2964,-0.0263,-0.0232,0.0151,3.0552,1.4342,3.0277
2024-10-11T13:44:20.011Z,0.0109,-1.0133,0.1671,-0.0375,0.1674,-0.2964,-0.0276,-0.0255,0.0125,3.0552,1.4342,3.0277
2024-10-11T13:44:20.022Z,0.0067,-1.0104,0.1681,0.0683,0.2069,-0.3319,-0.0317,-0.0255,0.0135,3.0529,1.4350,3.0291
2024-10-11T13:44:20.032Z,0.0092,-1.0070,0.1647,0.0683,0.2069,-0.3319,-0.0329,-0.0280,0.0130,3.0529,1.4350,3.0291
2024-10-11T13:44:20.042Z,0.0108,-1.0039,0.1577,0.0683,0.2069,-0.3319,-0.0355,-0.0286,0.0095,3.0529,1.4350,3.0291
2024-10-11T13:44:20.053Z,0.0111,-1.0027,0.1493,0.0401,0.1181,-0.1878,-0.0354,-0.0266,0.0091,3.0512,1.4360,3.0298
2024-10-11T13:44:20.061Z,0.0104,-1.0002,0.1419,0.0401,0.1181,-0.1878,-0.0356,-0.0291,0.0096,3.0512,1.4360,3.0298
2024-10-11T13:44:20.072Z,0.0106,-0.9976,0.1320,0.0401,0.1181,-0.1878,-0.0354,-0.0291,0.0096,3.0512,1.4360,3.0298
2024-10-11T13:44:20.082Z,0.0107,-0.9950,0.1255,0.0353,0.0490,0.0349,-0.0318,-0.0316,0.0054,3.0500,1.4371,3.0298
2024-10-11T13:44:20.092Z,0.0067,-0.9951,0.1172,0.0353,0.0490,0.0349,-0.0294,-0.0316,0.0074,3.0500,1.4371,3.0298
2024-10-11T13:44:20.103Z,0.0043,-0.9916,0.1145,0.0353,0.0490,0.0349,-0.0288,-0.0320,0.0052,3.0500,1.4371,3.0298
2024-10-11T13:44:20.111Z,0.0031,-0.9925,0.1129,0.1079,0.0076,0.1744,-0.0279,-0.0284,0.0016,3.0491,1.4379,3.0295
2024-10-11T13:44:20.122Z,0.0088,-0.9893,0.1142,0.1079,0.0076,0.1744,-0.0299,-0.0282,0.0026,3.0491,1.4379,3.0295
2024-10-11T13:44:20.132Z,0.0116,-0.9881,0.1199,0.1079,0.0076,0.1744,-0.0266,-0.0266,0.0017,3.0491,1.4379,3.0295
2024-10-11T13:44:20.142Z,0.0109,-0.9872,0.1271,0.0412,-0.0355,0.0623,-0.0288,-0.0234,0.0011,3.0486,1.4387,3.0288
2024-10-11T13:44:20.153Z,0.0142,-0.9865,0.1319,0.0412,-0.0355,0.0623,-0.0302,-0.0247,0.0036,3.0486,1.4387,3.0288
2024-10-11T13:44:20.161Z,0.0155,-0.9877,0.1353,0.0412,-0.0355,0.0623,-0.0316,-0.0197,0.0026,3.0486,1.4387,3.0288
2024-10-11T13:44:20.172Z,0.0157,-0.9889,0.1366,-0.0101,-0.0320,-0.0633,-0.0295,-0.0196,0.0056,3.0480,1.4396,3.0285
2024-10-11T13:44:20.182Z,0.0125,-0.9895,0.1312,-0.0101,-0.0320,-0.0633,-0.0280,-0.0156,0.0049,3.0480,1.4396,3.0285
2024-10-11T13:44:20.192Z,0.0115,-0.9870,0.1236,-0.0101,-0.0320,-0.0633,-0.0250,-0.0162,0.0053,3.0480,1.4396,3.0285
2024-10-11T13:44:20.203Z,0.0099,-0.9864,0.1141,0.0365,-0.0493,0.1161,-0.0231,-0.0141,0.0007,3.0473,1.4404,3.0285
2024-10-11T13:44:20.212Z,0.0067,-0.9842,0.1025,0.0365,-0.0493,0.1161,-0.0126,-0.0126,0.0027,3.0473,1.4404,3.0285
2024-10-11T13:44:20.222Z,0.0058,-0.9787,0.0892,0.0365,-0.0493,0.1161,-0.0060,-0.0106,0.0034,3.0473,1.4404,3.0285
2024-10-11T13:44:20.233Z,0.0082,-0.9727,0.0775,0.0887,-0.1657,0.4685,-0.0009,-0.0109,0.0016,3.0468,1.4408,3.0283
2024-10-11T13:44:20.242Z,0.0169,-0.9671,0.0667,0.0887,-0.1657,0.4685,0.0064,-0.0117,0.0046,3.0468,1.4408,3.0283
2024-10-11T13:44:20.255Z,0.0108,-0.9598,0.0625,0.0887,-0.1657,0.4685,0.0135,-0.0115,0.0035,3.0468,1.4408,3.0283
2024-10-11T13:44:20.261Z,0.0078,-0.9554,0.0663,0.0664,-0.3440,0.6367,0.0228,-0.0107,0.0005,3.0459,1.4406,3.0287
2024-10-11T13:44:20.272Z,0.0061,-0.9510,0.0717,0.0664,-0.3440,0.6367,0.0245,-0.0105,-0.0006,3.0459,1.4406,3.0287
2024-10-11T13:44:20.282Z,0.0037,-0.9525,0.0798,0.0664,-0.3440,0.6367,0.0260,-0.0120,-0.0028,3.0459,1.4406,3.0287
2024-10-11T13:44:20.292Z,0.0036,-0.9532,0.0886,0.1053,-0.3775,0.4250,0.0315,-0.0117,-0.0035,3.0452,1.4398,3.0288
2024-10-11T13:44:20.304Z,-0.0016,-0.9603,0.0965,0.1053,-0.3775,0.4250,0.0331,-0.0118,-0.0047,3.0452,1.4398,3.0288
2024-10-11T13:44:20.311Z,-0.0008,-0.9658,0.1046,0.1053,-0.3775,0.4250,0.0343,-0.0113,-0.0063,3.0452,1.4398,3.0288
2024-10-11T13:44:20.322Z,0.0013,-0.9708,0.1117,0.1416,-0.2246,0.2054,0.0377,-0.0089,-0.0096,3.0455,1.4389,3.0279
2024-10-11T13:44:20.332Z,0.0016,-0.9756,0.1180,0.1416,-0.2246,0.2054,0.0360,-0.0088,-0.0125,3.0455,1.4389,3.0279
2024-10-11T13:44:20.342Z,0.0024,-0.9815,0.1236,0.1416,-0.2246,0.2054,0.0353,-0.0088,-0.0100,3.0455,1.4389,3.0279
2024-10-11T13:44:20.352Z,0.0019,-0.9866,0.1301,0.1306,-0.0567,0.0366,0.0333,-0.0019,-0.0128,3.0467,1.4379,3.0263
2024-10-11T13:44:20.361Z,0.0031,-0.9901,0.1360,0.1306,-0.0567,0.0366,0.0355,-0.0020,-0.0130,3.0467,1.4379,3.0263
2024-10-11T13:44:20.372Z,0.0033,-0.9958,0.1403,0.1306,-0.0567,0.0366,0.0352,-0.0009,-0.0152,3.0467,1.4379,3.0263
2024-10-11T13:44:20.382Z,0.0010,-1.0009,0.1452,0.1297,0.0671,-0.1099,0.0312,0.0008,-0.0160,3.0484,1.4368,3.0243
2024-10-11T13:44:20.392Z,-0.0017,-1.0038,0.1491,0.1297,0.0671,-0.1099,0.0311,0.0010,-0.0178,3.0484,1.4368,3.0243
2024-10-11T13:44:20.402Z,-0.0022,-1.0059,0.1503,0.1297,0.0671,-0.1099,0.0316,-0.0007,-0.0209,3.0484,1.4368,3.0243
2024-10-11T13:44:20.411Z,-0.0051,-1.0083,0.1540,0.2096,0.1675,-0.1850,0.0310,-0.0016,-0.0233,3.0514,1.4358,3.0210
2024-10-11T13:44:20.423Z,-0.0020,-1.0069,0.1546,0.2096,0.1675,-0.1850,0.0269,0.0020,-0.0245,3.0514,1.4358,3.0210
2024-10-11T13:44:20.432Z,-0.0005,-1.0048,0.1528,0.2096,0.1675,-0.1850,0.0263,0.0027,-0.0254,3.0514,1.4358,3.0210
2024-10-11T13:44:20.442Z,0.0047,-1.0029,0.1490,0.1349,0.1311,-0.1604,0.0249,0.0051,-0.0283,3.0556,1.4349,3.0166
2024-10-11T13:44:20.453Z,0.0059,-1.0005,0.1441,0.1349,0.1311,-0.1604,0.0245,0.0062,-0.0297,3.0556,1.4349,3.0166
2024-10-11T13:44:20.461Z,0.0078,-0.9987,0.1405,0.1349,0.1311,-0.1604,0.0267,0.0087,-0.0270,3.0556,1.4349,3.0166
2024-10-11T13:44:20.472Z,0.0101,-0.9968,0.1366,0.0898,0.0684,-0.0234,0.0221,0.0137,-0.0262,3.0604,1.4340,3.0118
2024-10-11T13:44:20.482Z,0.0123,-0.9973,0.1354,0.0898,0.0684,-0.0234,0.0237,0.0171,-0.0280,3.0604,1.4340,3.0118
2024-10-11T13:44:20.492Z,0.0161,-0.9989,0.1381,0.0898,0.0684,-0.0234,0.0243,0.0202,-0.0298,3.0604,1.4340,3.0118
2024-10-11T13:44:20.502Z,0.0169,-0.9999,0.1396,0.0106,0.0889,-0.0311,0.0185,0.0246,-0.0249,3.0650,1.4332,3.0075
2024-10-11T13:44:20.511Z,0.0175,-1.0034,0.1447,0.0106,0.0889,-0.0311,0.0190,0.0269,-0.0234,3.0650,1.4332,3.0075
2024-10-11T13:44:20.521Z,0.0170,-1.0023,0.1463,0.0106,0.0889,-0.0311,0.0154,0.0315,-0.0233,3.0650,1.4332,3.0075
2024-10-11T13:44:20.532Z,0.0166,-1.0024,0.1513,0.0261,0.1171,-0.1244,0.0153,0.0356,-0.0237,3.0689,1.4325,3.0043
2024-10-11T13:44:20.542Z,0.0140,-0.9997,0.1523,0.0261,0.1171,-0.1244,0.0144,0.0399,-0.0230,3.0689,1.4325,3.0043
2024-10-11T13:44:20.552Z,0.0106,-0.9987,0.1508,0.0261,0.1171,-0.1244,0.0096,0.0402,-0.0230,3.0689,1.4325,3.0043
2024-10-11T13:44:20.561Z,0.0082,-0.9976,0.1516,0.0997,0.0714,-0.1408,0.0070,0.0431,-0.0252,3.0732,1.4321,3.0009
2024-10-11T13:44:20.571Z,0.0056,-1.0003,0.1515,0.0997,0.0714,-0.1408,0.0055,0.0448,-0.0269,3.0732,1.4321,3.0009
2024-10-11T13:44:20.582Z,0.0056,-0.9993,0.1496,0.0997,0.0714,-0.1408,0.0030,0.0429,-0.0252,3.0732,1.4321,3.0009
2024-10-11T13:44:20.592Z,0.0089,-1.0011,0.1472,0.1300,0.0954,-0.1123,0.0045,0.0468,-0.0242,3.0783,1.4319,2.9970
2024-10-11T13:44:20.602Z,0.0176,-1.0016,0.1460,0.1300,0.0954,-0.1123,0.0018,0.0496,-0.0240,3.0783,1.4319,2.9970
2024-10-11T13:44:20.611Z,0.0230,-1.0004,0.1447,0.1300,0.0954,-0.1123,0.0026,0.0542,-0.0219,3.0783,1.4319,2.9970
2024-10-11T13:44:20.622Z,0.0295,-0.9949,0.1371,-0.0509,0.0701,-0.0296,0.0008,0.0612,-0.0166,3.0825,1.4317,2.9942
2024-10-11T13:44:20.632Z,0.0390,-0.9916,0.1306,-0.0509,0.0701,-0.0296,0.0023,0.0699,-0.0141,3.0825,1.4317,2.9942
2024-10-11T13:44:20.642Z,0.0388,-0.9867,0.1261,-0.0509,0.0701,-0.0296,-0.0001,0.0773,-0.0118,3.0825,1.4317,2.9942
2024-10-11T13:44:20.652Z,0.0361,-0.9827,0.1209,-0.1677,-0.0665,0.1469,0.0013,0.0813,-0.0080,3.0850,1.4315,2.9936
2024-10-11T13:44:20.662Z,0.0299,-0.9797,0.1191,-0.1677,-0.0665,0.1469,-0.0013,0.0824,-0.0098,3.0850,1.4315,2.9936
2024-10-11T13:44:20.671Z,0.0283,-0.9785,0.1213,-0.1677,-0.0665,0.1469,-0.0004,0.0833,-0.0086,3.0850,1.4315,2.9936
2024-10-11T13:44:20.682Z,0.0301,-0.9791,0.1225,-0.0911,-0.1159,0.1563,-0.0014,0.0866,-0.0057,3.0861,1.4314,2.9946
2024-10-11T13:44:20.692Z,0.0328,-0.9805,0.1249,-0.0911,-0.1159,0.1563,0.0008,0.0906,-0.0019,3.0861,1.4314,2.9946
2024-10-11T13:44:20.702Z,0.0356,-0.9832,0.1265,-0.0911,-0.1159,0.1563,-0.0036,0.0944,-0.0019,3.0861,1.4314,2.9946
2024-10-11T13:44:20.711Z,0.0349,-0.9867,0.1275,-0.1653,-0.0569,0.0997,-0.0025,0.0972,0.0020,3.0866,1.4314,2.9967
2024-10-11T13:44:20.721Z,0.0342,-0.9919,0.1326,-0.1653,-0.0569,0.0997,-0.0017,0.0977,-0.0003,3.0866,1.4314,2.9967
2024-10-11T13:44:20.731Z,0.0346,-0.9932,0.1351,-0.1653,-0.0569,0.0997,-0.0034,0.0973,0.0042,3.0866,1.4314,2.9967
2024-10-11T13:44:20.742Z,0.0276,-0.9983,0.1360,-0.0913,0.0607,0.0254,0.0004,0.1000,0.0021,3.0862,1.4315,2.9998
2024-10-11T13:44:20.752Z,0.0318,-0.9997,0.1345,-0.0913,0.0607,0.0254,-0.0023,0.1020,0.0030,3.0862,1.4315,2.9998
2024-10-11T13:44:20.761Z,0.0294,-0.9983,0.1313,-0.0913,0.0607,0.0254,-0.0024,0.1016,0.0031,3.0862,1.4315,2.9998
2024-10-11T13:44:20.772Z,0.0316,-0.9981,0.1264,-0.1162,0.0743,0.0828,-0.0025,0.0977,0.0040,3.0854,1.4316,3.0033
2024-10-11T13:44:20.782Z,0.0310,-0.9965,0.1221,-0.1162,0.0743,0.0828,0.0021,0.0974,0.0050,3.0854,1.4316,3.0033
2024-10-11T13:44:20.792Z,0.0267,-0.9953,0.1185,-0.1162,0.0743,0.0828,0.0034,0.0980,0.0056,3.0854,1.4316,3.0033
2024-10-11T13:44:20.802Z,0.0254,-0.9952,0.1159,-0.0674,0.0452,0.2070,0.0018,0.0987,0.0037,3.0841,1.4316,3.0073
2024-10-11T13:44:20.811Z,0.0243,-0.9947,0.1179,-0.0674,0.0452,0.2070,0.0027,0.0973,0.0036,3.0841,1.4316,3.0073
2024-10-11T13:44:20.822Z,0.0214,-0.9946,0.1229,-0.0674,0.0452,0.2070,-0.0002,0.0943,0.0021,3.0841,1.4316,3.0073
2024-10-11T13:44:20.832Z,0.0226,-0.9944,0.1267,-0.0410,0.0384,0.1101,0.0004,0.0927,-0.0031,3.0834,1.4315,3.0106
2024-10-11T13:44:20.841Z,0.0175,-0.9927,0.1331,-0.0410,0.0384,0.1101,-0.0019,0.0919,-0.0022,3.0834,1.4315,3.0106
2024-10-11T13:44:20.852Z,0.0170,-0.9906,0.1379,-0.0410,0.0384,0.1101,-0.0028,0.0899,-0.0066,3.0834,1.4315,3.0106
2024-10-11T13:44:20.861Z,0.0194,-0.9886,0.1386,-0.0090,-0.0081,-0.0150,-0.0072,0.0903,-0.0071,3.0837,1.4316,3.0127
2024-10-11T13:44:20.872Z,0.0208,-0.9880,0.1387,-0.0090,-0.0081,-0.0150,-0.0048,0.0900,-0.0072,3.0837,1.4316,3.0127
2024-10-11T13:44:20.882Z,0.0227,-0.9851,0.1396,-0.0090,-0.0081,-0.0150,-0.0099,0.0854,-0.0081,3.0837,1.4316,3.0127
2024-10-11T13:44:20.893Z,0.0221,-0.9838,0.1427,-0.0477,-0.0587,-0.0386,-0.0111,0.0847,-0.0106,3.0854,1.4317,3.0135
2024-10-11T13:44:20.902Z,0.0215,-0.9875,0.1419,-0.0477,-0.0587,-0.0386,-0.0130,0.0852,-0.0108,3.0854,1.4317,3.0135
2024-10-11T13:44:20.911Z,0.0243,-0.9911,0.1449,-0.0477,-0.0587,-0.0386,-0.0122,0.0806,-0.0114,3.0854,1.4317,3.0135
2024-10-11T13:44:20.922Z,0.0216,-0.9944,0.1462,-0.0469,0.0262,-0.0928,-0.0164,0.0789,-0.0147,3.0880,1.4320,3.0132
2024-10-11T13:44:20.932Z,0.0238,-0.9959,0.1476,-0.0469,0.0262,-0.0928,-0.0160,0.0768,-0.0175,3.0880,1.4320,3.0132
2024-10-11T13:44:20.942Z,0.0248,-0.9985,0.1508,-0.0469,0.0262,-0.0928,-0.0182,0.0771,-0.0149,3.0880,1.4320,3.0132
2024-10-11T13:44:20.952Z,0.0263,-0.9974,0.1536,-0.0642,0.0728,-0.1555,-0.0189,0.0788,-0.0149,3.0914,1.4324,3.0119
2024-10-11T13:44:20.961Z,0.0313,-0.9974,0.1528,-0.0642,0.0728,-0.1555,-0.0228,0.0789,-0.0154,3.0914,1.4324,3.0119
2024-10-11T13:44:20.972Z,0.0370,-0.9974,0.1522,-0.0642,0.0728,-0.1555,-0.0221,0.0796,-0.0146,3.0914,1.4324,3.0119
2024-10-11T13:44:20.982Z,0.0409,-0.9974,0.1486,-0.2151,0.0725,-0.1339,-0.0251,0.0791,-0.0114,3.0950,1.4330,3.0105
2024-10-11T13:44:20.991Z,0.0398,-0.9998,0.1395,-0.2151,0.0725,-0.1339,-0.0219,0.0801,-0.0127,3.0950,1.4330,3.0105
2024-10-11T13:44:21.002Z,0.0358,-1.0017,0.1280,-0.2151,0.0725,-0.1339,-0.0172,0.0815,-0.0096,3.0950,1.4330,3.0105
2024-10-11T13:44:21.011Z,0.0378,-1.0007,0.1150,-0.1858,0.0964,0.1573,-0.0122,0.0786,-0.0094,3.0979,1.4336,3.0098
2024-10-11T13:44:21.022Z,0.0392,-0.9972,0.1025,-0.1858,0.0964,0.1573,-0.0090,0.0777,-0.0090,3.0979,1.4336,3.0098
2024-10-11T13:44:21.032Z,0.0426,-0.9919,0.0964,-0.1858,0.0964,0.1573,-0.0037,0.0755,-0.0071,3.0979,1.4336,3.0098
2024-10-11T13:44:21.042Z,0.0452,-0.9886,0.0982,-0.2564,-0.0128,0.3867,-0.0024,0.0751,-0.0052,3.0996,1.4337,3.0102
2024-10-11T13:44:21.052Z,0.0421,-0.9837,0.1083,-0.2564,-0.0128,0.3867,0.0027,0.0723,-0.0054,3.0996,1.4337,3.0102
2024-10-11T13:44:21.061Z,0.0378,-0.9793,0.1172,-0.2564,-0.0128,0.3867,0.0028,0.0693,-0.0048,3.0996,1.4337,3.0102
2024-10-11T13:44:21.072Z,0.0359,-0.9754,0.1260,-0.1820,-0.1368,0.1202,0.0004,0.0671,-0.0056,3.1005,1.4337,3.0112
2024-10-11T13:44:21.082Z,0.0346,-0.9771,0.1317,-0.1820,-0.1368,0.1202,0.0000,0.0653,-0.0080,3.1005,1.4337,3.0112
2024-10-11T13:44:21.092Z,0.0306,-0.9766,0.1336,-0.1820,-0.1368,0.1202,0.0010,0.0594,-0.0061,3.1005,1.4337,3.0112
2024-10-11T13:44:21.102Z,0.0290,-0.9782,0.1353,-0.1133,-0.1218,0.0100,0.0029,0.0549,-0.0105,3.1020,1.4336,3.0114
2024-10-11T13:44:21.111Z,0.0313,-0.9797,0.1355,-0.1133,-0.1218,0.0100,0.0001,0.0497,-0.0093,3.1020,1.4336,3.0114
2024-10-11T13:44:21.122Z,0.0318,-0.9840,0.1364,-0.1133,-0.1218,0.0100,0.0006,0.0477,-0.0109,3.1020,1.4336,3.0114
2024-10-11T13:44:21.132Z,0.0347,-0.9845,0.1333,-0.1530,-0.0594,0.0107,0.0017,0.0419,-0.0111,3.1040,1.4335,3.0106
2024-10-11T13:44:21.142Z,0.0340,-0.9851,0.1338,-0.1530,-0.0594,0.0107,0.0030,0.0391,-0.0101,3.1040,1.4335,3.0106
2024-10-11T13:44:21.152Z,0.0336,-0.9827,0.1316,-0.1530,-0.0594,0.0107,0.0067,0.0367,-0.0100,3.1040,1.4335,3.0106
2024-10-11T13:44:21.161Z,0.0356,-0.9843,0.1303,-0.1515,-0.0673,0.0476,0.0078,0.0333,-0.0093,3.1060,1.4333,3.0094
2024-10-11T13:44:21.172Z,0.0399,-0.9852,0.1286,-0.1515,-0.0673,0.0476,0.0101,0.0312,-0.0094,3.1060,1.4333,3.0094
2024-10-11T13:44:21.182Z,0.0399,-0.9829,0.1266,-0.1515,-0.0673,0.0476,0.0106,0.0301,-0.0088,3.1060,1.4333,3.0094
2024-10-11T13:44:21.192Z,0.0418,-0.9848,0.1253,-0.2242,-0.0682,0.0991,0.0105,0.0288,-0.0087,3.1075,1.4330,3.0086
2024-10-11T13:44:21.202Z,0.0395,-0.9851,0.1268,-0.2242,-0.0682,0.0991,0.0126,0.0253,-0.0087,3.1075,1.4330,3.0086
2024-10-11T13:44:21.211Z,0.0370,-0.9865,0.1313,-0.2242,-0.0682,0.0991,0.0126,0.0228,-0.0095,3.1075,1.4330,3.0086
2024-10-11T13:44:21.222Z,0.0354,-0.9908,0.1345,-0.1741,-0.0207,0.0297,0.0116,0.0183,-0.0078,3.1090,1.4325,3.0077
2024-10-11T13:44:21.232Z,0.0367,-0.9944,0.1402,-0.1741,-0.0207,0.0297,0.0123,0.0160,-0.0083,3.1090,1.4325,3.0077
2024-10-11T13:44:21.242Z,0.0359,-0.9979,0.1468,-0.1741,-0.0207,0.0297,0.0049,0.0120,-0.0081,3.1090,1.4325,3.0077
2024-10-11T13:44:21.252Z,0.0362,-0.9997,0.1554,-0.1700,0.0932,-0.1495,0.0016,0.0082,-0.0085,3.1105,1.4322,3.0063
2024-10-11T13:44:21.261Z,0.0374,-0.9999,0.1622,-0.1700,0.0932,-0.1495,-0.0014,0.0051,-0.0060,3.1105,1.4322,3.0063
2024-10-11T13:44:21.272Z,0.0386,-1.0006,0.1712,-0.1700,0.0932,-0.1495,-0.0049,0.0016,-0.0083,3.1105,1.4322,3.0063
2024-10-11T13:44:21.283Z,0.0377,-1.0007,0.1828,-0.1995,0.0953,-0.4011,-0.0131,-0.0012,-0.0091,3.1121,1.4323,3.0046
2024-10-11T13:44:21.293Z,0.0390,-1.0003,0.1820,-0.1995,0.0953,-0.4011,-0.0141,-0.0009,-0.0085,3.1121,1.4323,3.0046
2024-10-11T13:44:21.303Z,0.0428,-1.0018,0.1796,-0.1995,0.0953,-0.4011,-0.0186,-0.0030,-0.0069,3.1121,1.4323,3.0046
2024-10-11T13:44:21.312Z,0.0428,-1.0018,0.1796,-0.2119,0.0989,-0.4389,-0.0214,-0.0027,-0.0009,3.1135,1.4327,3.0029
2024-10-11T13:44:21.323Z,0.0499,-1.0060,0.1688,-0.2119,0.0989,-0.4389,-0.0233,-0.0033,0.0027,3.1135,1.4327,3.0029
2024-10-11T13:44:21.333Z,0.0560,-1.0094,0.1497,-0.2119,0.0989,-0.4389,-0.0237,-0.0044,0.0049,3.1135,1.4327,3.0029
2024-10-11T13:44:21.341Z,0.0560,-1.0094,0.1497,-0.3573,0.1805,-0.1774,-0.0249,-0.0015,0.0091,3.1132,1.4334,3.0027
2024-10-11T13:44:21.353Z,0.0460,-1.0029,0.1366,-0.3573,0.1805,-0.1774,-0.0222,-0.0029,0.0095,3.1132,1.4334,3.0027
2024-10-11T13:44:21.361Z,0.0460,-1.0029,0.1366,-0.3573,0.1805,-0.1774,-0.0234,-0.0072,0.0118,3.1132,1.4334,3.0027
2024-10-11T13:44:21.373Z,0.0369,-0.9916,0.1335,-0.2429,0.1062,0.0109,-0.0236,-0.0092,0.0127,3.1115,1.4341,3.0040
2024-10-11T13:44:21.383Z,0.0312,-0.9886,0.1313,-0.2429,0.1062,0.0109,-0.0217,-0.0119,0.0087,3.1115,1.4341,3.0040
2024-10-11T13:44:21.392Z,0.0312,-0.9886,0.1313,-0.2429,0.1062,0.0109,-0.0216,-0.0184,0.0112,3.1115,1.4341,3.0040
2024-10-11T13:44:21.403Z,0.0325,-0.9811,0.1299,-0.0960,-0.0403,0.0400,-0.0227,-0.0192,0.0112,3.1094,1.4347,3.0053
2024-10-11T13:44:21.411Z,0.0325,-0.9811,0.1299,-0.0960,-0.0403,0.0400,-0.0217,-0.0212,0.0117,3.1094,1.4347,3.0053
2024-10-11T13:44:21.424Z,0.0343,-0.9850,0.1324,-0.0960,-0.0403,0.0400,-0.0240,-0.0214,0.0121,3.1094,1.4347,3.0053
2024-10-11T13:44:21.433Z,0.0388,-0.9874,0.1322,-0.1462,-0.0591,0.0242,-0.0223,-0.0207,0.0172,3.1074,1.4354,3.0064
2024-10-11T13:44:21.441Z,0.0388,-0.9874,0.1322,-0.1462,-0.0591,0.0242,-0.0213,-0.0213,0.0193,3.1074,1.4354,3.0064
2024-10-11T13:44:21.453Z,0.0395,-0.9884,0.1388,-0.1462,-0.0591,0.0242,-0.0203,-0.0229,0.0191,3.1074,1.4354,3.0064
2024-10-11T13:44:21.461Z,0.0395,-0.9884,0.1388,-0.2236,-0.0245,-0.0403,-0.0198,-0.0221,0.0201,3.1042,1.4361,3.0087
2024-10-11T13:44:21.474Z,0.0319,-0.9887,0.1409,-0.2236,-0.0245,-0.0403,-0.0208,-0.0214,0.0182,3.1042,1.4361,3.0087
2024-10-11T13:44:21.483Z,0.0291,-0.9905,0.1411,-0.2236,-0.0245,-0.0403,-0.0211,-0.0243,0.0177,3.1042,1.4361,3.0087
2024-10-11T13:44:21.491Z,0.0291,-0.9905,0.1411,-0.1294,-0.0112,-0.0794,-0.0218,-0.0260,0.0190,3.1003,1.4368,3.0116
2024-10-11T13:44:21.501Z,0.0268,-0.9915,0.1443,-0.1294,-0.0112,-0.0794,-0.0222,-0.0298,0.0188,3.1003,1.4368,3.0116
2024-10-11T13:44:21.511Z,0.0259,-0.9938,0.1423,-0.1294,-0.0112,-0.0794,-0.0238,-0.0307,0.0178,3.1003,1.4368,3.0116
2024-10-11T13:44:21.523Z,0.0273,-0.9925,0.1347,-0.0938,0.0205,-0.0521,-0.0217,-0.0349,0.0186,3.0968,1.4376,3.0139
2024-10-11T13:44:21.532Z,0.0271,-0.9908,0.1281,-0.0938,0.0205,-0.0521,-0.0187,-0.0337,0.0183,3.0968,1.4376,3.0139
2024-10-11T13:44:21.543Z,0.0271,-0.9859,0.0993,-0.0938,0.0205,-0.0521,-0.0155,-0.0352,0.0187,3.0968,1.4376,3.0139
2024-10-11T13:44:21.553Z,0.0257,-0.9807,0.0864,-0.0978,-0.0305,0.2539,-0.0084,-0.0378,0.0159,3.0936,1.4381,3.0158
2024-10-11T13:44:21.561Z,0.0257,-0.9807,0.0864,-0.0978,-0.0305,0.2539,-0.0022,-0.0397,0.0188,3.0936,1.4381,3.0158
2024-10-11T13:44:21.574Z,0.0261,-0.9764,0.0779,-0.0640,-0.1652,0.5664,0.0018,-0.0427,0.0161,3.0897,1.4382,3.0182
2024-10-11T13:44:21.582Z,0.0189,-0.9726,0.0743,-0.0640,-0.1652,0.5664,0.0067,-0.0429,0.0167,3.0897,1.4382,3.0182
2024-10-11T13:44:21.593Z,0.0150,-0.9734,0.0849,-0.0640,-0.1652,0.5664,0.0096,-0.0462,0.0145,3.0897,1.4382,3.0182
2024-10-11T13:44:21.603Z,0.0126,-0.9754,0.0941,-0.0640,-0.1652,0.5664,0.0126,-0.0492,0.0126,3.0897,1.4382,3.0182
2024-10-11T13:44:21.612Z,0.0114,-0.9787,0.1068,0.0277,-0.1678,0.4031,0.0159,-0.0522,0.0111,3.0861,1.4379,3.0202
2024-10-11T13:44:21.624Z,0.0103,-0.9812,0.1196,0.0277,-0.1678,0.4031,0.0128,-0.0529,0.0064,3.0861,1.4379,3.0202
2024-10-11T13:44:21.632Z,0.0083,-0.9841,0.1279,0.0277,-0.1678,0.4031,0.0176,-0.0563,0.0078,3.0861,1.4379,3.0202
2024-10-11T13:44:21.643Z,0.0094,-0.9864,0.1322,0.0691,-0.0781,0.0657,0.0146,-0.0553,0.0046,3.0837,1.4374,3.0206
2024-10-11T13:44:21.652Z,0.0077,-0.9867,0.1367,0.0691,-0.0781,0.0657,0.0136,-0.0586,0.0017,3.0837,1.4374,3.0206
2024-10-11T13:44:21.662Z,0.0109,-0.9882,0.1359,0.0691,-0.0781,0.0657,0.0146,-0.0579,0.0009,3.0837,1.4374,3.0206
2024-10-11T13:44:21.672Z,0.0109,-0.9882,0.1359,0.0674,-0.0339,-0.0494,0.0125,-0.0576,-0.0022,3.0828,1.4370,3.0195
2024-10-11T13:44:21.682Z,0.0145,-0.9909,0.1370,0.0674,-0.0339,-0.0494,0.0119,-0.0568,-0.0013,3.0828,1.4370,3.0195
2024-10-11T13:44:21.694Z,0.0170,-0.9913,0.1354,0.0035,-0.0015,-0.0269,0.0113,-0.0576,-0.0022,3.0829,1.4366,3.0175
2024-10-11T13:44:21.702Z,0.0188,-0.9925,0.1325,0.0035,-0.0015,-0.0269,0.0127,-0.0566,-0.0006,3.0829,1.4366,3.0175
2024-10-11T13:44:21.712Z,0.0215,-0.9931,0.1278,0.0035,-0.0015,-0.0269,0.0114,-0.0554,-0.0054,3.0829,1.4366,3.0175
2024-10-11T13:44:21.724Z,0.0215,-0.9931,0.1278,-0.0317,0.0189,0.0626,0.0138,-0.0550,-0.0017,3.0831,1.4363,3.0154
2024-10-11T13:44:21.732Z,0.0171,-0.9937,0.1224,-0.0317,0.0189,0.0626,0.0116,-0.0519,-0.0027,3.0831,1.4363,3.0154
2024-10-11T13:44:21.742Z,0.0171,-0.9937,0.1224,-0.0317,0.0189,0.0626,0.0128,-0.0534,-0.0069,3.0831,1.4363,3.0154
2024-10-11T13:44:21.754Z,0.0216,-0.9925,0.1163,-0.0329,0.0100,0.1694,0.0143,-0.0541,-0.0065,3.0836,1.4358,3.0131
2024-10-11T13:44:21.762Z,0.0222,-0.9926,0.1161,-0.0329,0.0100,0.1694,0.0186,-0.0502,-0.0034,3.0836,1.4358,3.0131
2024-10-11T13:44:21.772Z,0.0222,-0.9926,0.1161,-0.0329,0.0100,0.1694,0.0214,-0.0474,-0.0037,3.0836,1.4358,3.0131
2024-10-11T13:44:21.782Z,0.0295,-1.0243,0.1128,-0.0329,0.0100,0.1694,0.0249,-0.0453,-0.0035,3.0836,1.4358,3.0131
2024-10-11T13:44:21.793Z,0.0275,-1.0218,0.1154,-0.1235,0.2775,0.2112,0.0236,-0.0446,-0.0026,3.0837,1.4352,3.0113
2024-10-11T13:44:21.802Z,0.0304,-1.0057,0.1338,-0.1235,0.2775,0.2112,0.0223,-0.0428,-0.0002,3.0837,1.4352,3.0113
2024-10-11T13:44:21.812Z,0.0289,-0.9971,0.1418,-0.1235,0.2775,0.2112,0.0192,-0.0391,-0.0024,3.0837,1.4352,3.0113
2024-10-11T13:44:21.825Z,0.0281,-0.9939,0.1469,-0.1224,0.0806,-0.0346,0.0136,-0.0356,0.0023,3.0830,1.4345,3.0105
2024-10-11T13:44:21.832Z,0.0275,-0.9873,0.1611,-0.1224,0.0806,-0.0346,0.0102,-0.0333,0.0036,3.0830,1.4345,3.0105
2024-10-11T13:44:21.843Z,0.0332,-0.9849,0.1639,-0.1224,0.0806,-0.0346,0.0067,-0.0321,0.0041,3.0830,1.4345,3.0105
2024-10-11T13:44:21.852Z,0.0365,-0.9678,0.1394,-0.1260,-0.0426,-0.2879,0.0060,-0.0358,0.0044,3.0819,1.4342,3.0104
2024-10-11T13:44:21.862Z,0.0385,-0.9758,0.1369,-0.1260,-0.0426,-0.2879,0.0105,-0.0368,0.0053,3.0819,1.4342,3.0104
2024-10-11T13:44:21.875Z,0.0261,-0.9984,0.1395,-0.1436,0.0676,-0.0634,0.0022,-0.0306,0.0063,3.0805,1.4341,3.0104
2024-10-11T13:44:21.882Z,0.0279,-0.9894,0.1456,-0.1436,0.0676,-0.0634,0.0031,-0.0359,0.0042,3.0805,1.4341,3.0104
2024-10-11T13:44:21.892Z,0.0191,-1.0108,0.1521,-0.1436,0.0676,-0.0634,-0.0015,-0.0327,0.0043,3.0805,1.4341,3.0104
2024-10-11T13:44:21.903Z,0.0203,-1.0184,0.1457,0.0589,0.2456,-0.1420,-0.0020,-0.0303,0.0056,3.0795,1.4341,3.0102
2024-10-11T13:44:21.912Z,0.0314,-1.0157,0.1413,0.0589,0.2456,-0.1420,-0.0012,-0.0304,0.0033,3.0795,1.4341,3.0102
2024-10-11T13:44:21.923Z,0.0123,-0.9827,0.1393,0.0589,0.2456,-0.1420,-0.0045,-0.0305,0.0046,3.0795,1.4341,3.0102
2024-10-11T13:44:21.933Z,0.0175,-0.9741,0.1380,0.0188,-0.1594,-0.0992,-0.0100,-0.0306,0.0018,3.0787,1.4342,3.0098
2024-10-11T13:44:21.942Z,0.0172,-0.9778,0.1192,0.0188,-0.1594,-0.0992,-0.0082,-0.0270,0.0004,3.0787,1.4342,3.0098
2024-10-11T13:44:21.952Z,0.0230,-0.9806,0.1187,0.0188,-0.1594,-0.0992,-0.0064,-0.0259,0.0024,3.0787,1.4342,3.0098
2024-10-11T13:44:21.962Z,0.0332,-0.9796,0.1255,0.0188,-0.1594,-0.0992,-0.0065,-0.0265,0.0032,3.0787,1.4342,3.0098
2024-10-11T13:44:21.975Z,0.0280,-0.9889,0.1240,-0.1191,-0.1217,0.0912,-0.0088,-0.0218,0.0038,3.0783,1.4344,3.0092
2024-10-11T13:44:21.982Z,0.0209,-0.9901,0.1256,-0.1191,-0.1217,0.0912,-0.0120,-0.0196,0.0035,3.0783,1.4344,3.0092
2024-10-11T13:44:21.992Z,0.0231,-0.9892,0.1249,-0.1191,-0.1217,0.0912,-0.0073,-0.0214,-0.0001,3.0783,1.4344,3.0092
2024-10-11T13:44:22.002Z,0.0211,-0.9938,0.1286,-0.0730,0.0011,0.0842,-0.0092,-0.0167,0.0005,3.0776,1.4347,3.0090
2024-10-11T13:44:22.012Z,0.0299,-0.9966,0.1344,-0.0730,0.0011,0.0842,-0.0092,-0.0194,0.0046,3.0776,1.4347,3.0090
2024-10-11T13:44:22.025Z,0.0254,-1.0059,0.1297,-0.0912,0.0980,0.0214,-0.0099,-0.0181,0.0031,3.0767,1.4350,3.0090
2024-10-11T13:44:22.032Z,0.0269,-1.0115,0.1229,-0.0912,0.0980,0.0214,-0.0090,-0.0195,0.0037,3.0767,1.4350,3.0090
2024-10-11T13:44:22.042Z,0.0136,-1.0033,0.1425,-0.0912,0.0980,0.0214,-0.0068,-0.0217,0.0035,3.0767,1.4350,3.0090
2024-10-11T13:44:22.053Z,0.0142,-0.9933,0.1594,0.0680,0.0588,-0.1850,-0.0070,-0.0210,0.0038,3.0760,1.4352,3.0089
2024-10-11T13:44:22.061Z,0.0196,-0.9981,0.1488,0.0680,0.0588,-0.1850,-0.0092,-0.0188,0.0031,3.0760,1.4352,3.0089
2024-10-11T13:44:22.073Z,0.0169,-0.9998,0.1446,0.0680,0.0588,-0.1850,-0.0101,-0.0178,0.0040,3.0760,1.4352,3.0089
2024-10-11T13:44:22.083Z,0.0186,-0.9888,0.1528,-0.0106,0.0094,-0.1373,-0.0107,-0.0151,0.0055,3.0751,1.4355,3.0090
2024-10-11T13:44:22.092Z,0.0072,-0.9900,0.1493,-0.0106,0.0094,-0.1373,-0.0071,-0.0128,0.0026,3.0751,1.4355,3.0090
2024-10-11T13:44:22.102Z,0.0097,-0.9911,0.1502,-0.0106,0.0094,-0.1373,-0.0148,-0.0119,0.0024,3.0751,1.4355,3.0090
2024-10-11T13:44:22.112Z,0.0187,-0.9854,0.1527,-0.0106,0.0094,-0.1373,-0.0126,-0.0093,0.0050,3.0751,1.4355,3.0090
2024-10-11T13:44:22.123Z,0.0273,-0.9798,0.1463,0.0239,-0.0436,-0.1855,-0.0147,-0.0020,0.0119,3.0742,1.4358,3.0093
2024-10-11T13:44:22.132Z,0.0338,-0.9807,0.1391,0.0239,-0.0436,-0.1855,-0.0142,-0.0005,0.0112,3.0742,1.4358,3.0093
2024-10-11T13:44:22.142Z,0.0338,-0.9807,0.1391,-0.1485,-0.1076,-0.0391,-0.0147,0.0044,0.0123,3.0712,1.4362,3.0120
2024-10-11T13:44:22.152Z,0.0228,-0.9796,0.1319,-0.1485,-0.1076,-0.0391,-0.0134,0.0040,0.0157,3.0712,1.4362,3.0120
2024-10-11T13:44:22.162Z,0.0209,-0.9851,0.1334,-0.1485,-0.1076,-0.0391,-0.0085,0.0050,0.0168,3.0712,1.4362,3.0120
2024-10-11T13:44:22.175Z,0.0222,-0.9822,0.1340,-0.0520,-0.0613,-0.0394,-0.0107,0.0045,0.0187,3.0674,1.4366,3.0157
2024-10-11T13:44:22.182Z,0.0182,-0.9778,0.1319,-0.0520,-0.0613,-0.0394,-0.0076,0.0038,0.0147,3.0674,1.4366,3.0157
2024-10-11T13:44:22.192Z,0.0157,-0.9873,0.1174,-0.0520,-0.0613,-0.0394,-0.0072,0.0015,0.0144,3.0674,1.4366,3.0157
2024-10-11T13:44:22.204Z,0.0094,-0.9947,0.1240,0.0283,0.0210,0.0991,-0.0063,-0.0030,0.0104,3.0640,1.4368,3.0188
2024-10-11T13:44:22.211Z,-0.0006,-0.9955,0.1227,0.0283,0.0210,0.0991,-0.0059,-0.0042,0.0105,3.0640,1.4368,3.0188
2024-10-11T13:44:22.224Z,0.0044,-0.9959,0.1157,0.0283,0.0210,0.0991,-0.0029,-0.0067,0.0072,3.0640,1.4368,3.0188
2024-10-11T13:44:22.233Z,0.0072,-0.9912,0.1135,0.0952,0.0233,0.1746,-0.0015,-0.0090,0.0068,3.0624,1.4369,3.0199
2024-10-11T13:44:22.242Z,0.0142,-0.9904,0.1098,0.0952,0.0233,0.1746,0.0014,-0.0098,0.0065,3.0624,1.4369,3.0199
2024-10-11T13:44:22.252Z,0.0136,-0.9906,0.1107,0.0952,0.0233,0.1746,0.0025,-0.0097,0.0044,3.0624,1.4369,3.0199
2024-10-11T13:44:22.262Z,0.0174,-0.9930,0.1148,0.0952,0.0233,0.1746,0.0033,-0.0118,0.0019,3.0624,1.4369,3.0199
2024-10-11T13:44:22.273Z,0.0224,-0.9920,0.1220,0.0101,0.0177,0.1948,0.0020,-0.0104,0.0033,3.0611,1.4368,3.0206
2024-10-11T13:44:22.282Z,0.0244,-0.9984,0.1261,0.0101,0.0177,0.1948,0.0058,-0.0089,0.0045,3.0611,1.4368,3.0206
2024-10-11T13:44:22.293Z,0.0219,-1.0017,0.1270,-0.0866,0.1070,0.0487,0.0053,-0.0069,0.0041,3.0595,1.4366,3.0217
2024-10-11T13:44:22.302Z,0.0141,-0.9995,0.1255,-0.0866,0.1070,0.0487,0.0074,-0.0043,0.0010,3.0595,1.4366,3.0217
2024-10-11T13:44:22.311Z,0.0160,-0.9945,0.1202,-0.0866,0.1070,0.0487,0.0110,-0.0062,0.0020,3.0595,1.4366,3.0217
2024-10-11T13:44:22.323Z,0.0194,-0.9925,0.1187,-0.0210,0.0273,0.1558,0.0098,-0.0076,0.0029,3.0584,1.4364,3.0224
2024-10-11T13:44:22.332Z,0.0202,-0.9789,0.1226,-0.0210,0.0273,0.1558,0.0104,-0.0064,-0.0019,3.0584,1.4364,3.0224
2024-10-11T13:44:22.342Z,0.0227,-0.9667,0.1264,-0.0210,0.0273,0.1558,0.0117,-0.0045,0.0016,3.0584,1.4364,3.0224
2024-10-11T13:44:22.352Z,0.0216,-0.9664,0.1297,-0.0623,-0.2552,0.0483,0.0081,-0.0023,-0.0015,3.0577,1.4362,3.0227
2024-10-11T13:44:22.361Z,0.0181,-0.9763,0.1323,-0.0623,-0.2552,0.0483,0.0085,-0.0012,-0.0014,3.0577,1.4362,3.0227
2024-10-11T13:44:22.373Z,0.0152,-0.9858,0.1311,-0.0623,-0.2552,0.0483,0.0066,0.0008,-0.0024,3.0577,1.4362,3.0227
2024-10-11T13:44:22.382Z,0.0162,-0.9895,0.1348,0.0018,-0.0279,0.0021,0.0049,-0.0001,-0.0024,3.0580,1.4360,3.0222
2024-10-11T13:44:22.392Z,0.0134,-0.9933,0.1349,0.0018,-0.0279,0.0021,0.0057,-0.0022,-0.0044,3.0580,1.4360,3.0222
2024-10-11T13:44:22.402Z,0.0071,-0.9944,0.1361,0.0018,-0.0279,0.0021,0.0066,-0.0029,-0.0072,3.0580,1.4360,3.0222
2024-10-11T13:44:22.413Z,0.0065,-1.0004,0.1386,0.0989,0.0624,-0.0221,0.0029,-0.0042,-0.0091,3.0591,1.4358,3.0208
2024-10-11T13:44:22.424Z,0.0082,-1.0077,0.1450,0.0989,0.0624,-0.0221,0.0070,-0.0045,-0.0091,3.0591,1.4358,3.0208
2024-10-11T13:44:22.432Z,0.0115,-1.0032,0.1523,0.0989,0.0624,-0.0221,0.0018,-0.0066,-0.0108,3.0591,1.4358,3.0208
2024-10-11T13:44:22.443Z,0.0137,-0.9986,0.1456,0.0409,0.1000,-0.1307,-0.0014,-0.0054,-0.0126,3.0614,1.4357,3.0181
2024-10-11T13:44:22.452Z,0.0138,-0.9923,0.1558,0.0409,0.1000,-0.1307,-0.0026,-0.0028,-0.0124,3.0614,1.4357,3.0181
2024-10-11T13:44:22.461Z,0.0162,-0.9871,0.1551,0.0409,0.1000,-0.1307,-0.0020,-0.0062,-0.0130,3.0614,1.4357,3.0181
2024-10-11T13:44:22.475Z,0.0173,-0.9965,0.1441,-0.0095,0.0184,-0.1494,-0.0028,-0.0074,-0.0126,3.0643,1.4357,3.0148
2024-10-11T13:44:22.482Z,0.0192,-1.0068,0.1300,-0.0095,0.0184,-0.1494,-0.0036,-0.0072,-0.0146,3.0643,1.4357,3.0148
2024-10-11T13:44:22.492Z,0.0260,-1.0056,0.1216,-0.0095,0.0184,-0.1494,-0.0033,-0.0041,-0.0135,3.0643,1.4357,3.0148
2024-10-11T13:44:22.502Z,0.0278,-1.0004,0.1262,-0.1184,0.1106,0.0947,-0.0039,-0.0031,-0.0105,3.0665,1.4357,3.0123
2024-10-11T13:44:22.511Z,0.0240,-0.9966,0.1268,-0.1184,0.1106,0.0947,-0.0039,-0.0000,-0.0110,3.0665,1.4357,3.0123
2024-10-11T13:44:22.523Z,0.0262,-0.9910,0.1217,-0.1184,0.1106,0.0947,-0.0006,-0.0039,-0.0064,3.0665,1.4357,3.0123
2024-10-11T13:44:22.532Z,0.0286,-0.9890,0.1209,-0.0961,-0.0229,0.1220,-0.0059,0.0004,-0.0074,3.0680,1.4358,3.0104
2024-10-11T13:44:22.542Z,0.0305,-0.9938,0.1246,-0.0961,-0.0229,0.1220,-0.0030,-0.0011,-0.0087,3.0680,1.4358,3.0104
2024-10-11T13:44:22.552Z,0.0242,-0.9948,0.1258,-0.0961,-0.0229,0.1220,-0.0035,-0.0034,-0.0066,3.0680,1.4358,3.0104
2024-10-11T13:44:22.562Z,0.0220,-0.9885,0.1312,-0.0301,-0.0064,0.0207,-0.0055,-0.0022,-0.0058,3.0691,1.4359,3.0090
2024-10-11T13:44:22.573Z,0.0246,-0.9788,0.1404,-0.0301,-0.0064,0.0207,-0.0078,-0.0010,-0.0009,3.0691,1.4359,3.0090
2024-10-11T13:44:22.582Z,0.0237,-0.9799,0.1492,-0.0301,-0.0064,0.0207,-0.0133,-0.0016,-0.0062,3.0691,1.4359,3.0090
2024-10-11T13:44:22.593Z,0.0264,-0.9867,0.1437,-0.0723,-0.0757,-0.1357,-0.0122,0.0020,-0.0018,3.0702,1.4362,3.0077
2024-10-11T13:44:22.602Z,0.0251,-0.9963,0.1354,-0.0723,-0.0757,-0.1357,-0.0127,0.0041,-0.0022,3.0702,1.4362,3.0077
2024-10-11T13:44:22.611Z,0.0298,-0.9963,0.1382,-0.0723,-0.0757,-0.1357,-0.0126,0.0041,-0.0002,3.0702,1.4362,3.0077
2024-10-11T13:44:22.622Z,0.0308,-0.9924,0.1466,-0.1386,0.0275,-0.1203,-0.0128,0.0043,-0.0011,3.0706,1.4365,3.0072
2024-10-11T13:44:22.632Z,0.0276,-0.9938,0.1485,-0.1386,0.0275,-0.1203,-0.0129,0.0050,0.0010,3.0706,1.4365,3.0072
2024-10-11T13:44:22.642Z,0.0285,-0.9953,0.1423,-0.1386,0.0275,-0.1203,-0.0137,0.0048,0.0034,3.0706,1.4365,3.0072
2024-10-11T13:44:22.653Z,0.0285,-0.9954,0.1402,-0.0942,0.0397,-0.0910,-0.0147,0.0085,0.0028,3.0701,1.4369,3.0077
2024-10-11T13:44:22.661Z,0.0318,-0.9992,0.1412,-0.0942,0.0397,-0.0910,-0.0126,0.0063,0.0050,3.0701,1.4369,3.0077
2024-10-11T13:44:22.672Z,0.0240,-1.0028,0.1429,-0.0942,0.0397,-0.0910,-0.0133,0.0077,0.0061,3.0701,1.4369,3.0077
2024-10-11T13:44:22.682Z,0.0259,-1.0019,0.1358,-0.0586,0.1134,-0.0602,-0.0124,0.0079,0.0056,3.0689,1.4373,3.0087
2024-10-11T13:44:22.692Z,0.0274,-0.9974,0.1288,-0.0586,0.1134,-0.0602,-0.0128,0.0097,0.0060,3.0689,1.4373,3.0087
2024-10-11T13:44:22.702Z,0.0278,-0.9899,0.1394,-0.0586,0.1134,-0.0602,-0.0129,0.0094,0.0064,3.0689,1.4373,3.0087
2024-10-11T13:44:22.712Z,0.0228,-0.9895,0.1317,-0.0686,-0.0099,-0.0427,-0.0148,0.0117,0.0062,3.0677,1.4378,3.0100
2024-10-11T13:44:22.722Z,0.0181,-0.9919,0.1255,-0.0686,-0.0099,-0.0427,-0.0131,0.0159,0.0079,3.0677,1.4378,3.0100
2024-10-11T13:44:22.731Z,0.0201,-0.9894,0.1389,-0.0686,-0.0099,-0.0427,-0.0158,0.0151,0.0096,3.0677,1.4378,3.0100
2024-10-11T13:44:22.743Z,0.0193,-0.9870,0.1562,-0.0250,-0.0322,-0.1778,-0.0192,0.0211,0.0088,3.0666,1.4383,3.0114
2024-10-11T13:44:22.752Z,0.0159,-0.9814,0.1595,-0.0250,-0.0322,-0.1778,-0.0225,0.0228,0.0054,3.0666,1.4383,3.0114
2024-10-11T13:44:22.761Z,0.0083,-0.9754,0.1537,-0.0250,-0.0322,-0.1778,-0.0244,0.0238,0.0077,3.0666,1.4383,3.0114
2024-10-11T13:44:22.771Z,0.0072,-0.9743,0.1532,0.1018,-0.1737,-0.2043,-0.0247,0.0281,0.0078,3.0654,1.4390,3.0131
2024-10-11T13:44:22.782Z,0.0099,-0.9827,0.1478,0.1018,-0.1737,-0.2043,-0.0277,0.0286,0.0060,3.0654,1.4390,3.0131
2024-10-11T13:44:22.792Z,0.0100,-0.9942,0.1393,0.1018,-0.1737,-0.2043,-0.0255,0.0341,0.0062,3.0654,1.4390,3.0131
2024-10-11T13:44:22.802Z,0.0063,-1.0007,0.1393,0.1074,0.0675,-0.1013,-0.0270,0.0386,0.0062,3.0649,1.4397,3.0143
2024-10-11T13:44:22.812Z,0.0127,-1.0036,0.1275,0.1074,0.0675,-0.1013,-0.0225,0.0391,0.0030,3.0649,1.4397,3.0143
2024-10-11T13:44:22.821Z,0.0092,-1.0012,0.1180,0.1074,0.0675,-0.1013,-0.0243,0.0390,0.0024,3.0649,1.4397,3.0143
2024-10-11T13:44:22.833Z,0.0109,-0.9958,0.1193,0.0669,0.0639,0.0651,-0.0177,0.0378,0.0005,3.0647,1.4404,3.0153
2024-10-11T13:44:22.842Z,0.0135,-0.9922,0.1137,0.0669,0.0639,0.0651,-0.0192,0.0388,0.0013,3.0647,1.4404,3.0153
2024-10-11T13:44:22.852Z,0.0163,-0.9911,0.1062,0.0669,0.0639,0.0651,-0.0185,0.0395,0.0003,3.0647,1.4404,3.0153
2024-10-11T13:44:22.861Z,0.0145,-0.9857,0.1134,-0.0024,-0.0380,0.1591,-0.0158,0.0400,0.0001,3.0649,1.4408,3.0161
2024-10-11T13:44:22.873Z,0.0066,-0.9829,0.1121,-0.0024,-0.0380,0.1591,-0.0171,0.0389,-0.0054,3.0649,1.4408,3.0161
2024-10-11T13:44:22.882Z,0.0103,-0.9839,0.1007,-0.0024,-0.0380,0.1591,-0.0117,0.0373,-0.0055,3.0649,1.4408,3.0161
2024-10-11T13:44:22.892Z,0.0160,-0.9918,0.0925,0.0260,-0.0242,0.3173,-0.0080,0.0350,-0.0057,3.0660,1.4410,3.0159
2024-10-11T13:44:22.902Z,0.0187,-0.9975,0.0936,0.0260,-0.0242,0.3173,-0.0031,0.0358,-0.0086,3.0660,1.4410,3.0159
2024-10-11T13:44:22.911Z,0.0179,-0.9960,0.0948,0.0260,-0.0242,0.3173,0.0004,0.0347,-0.0101,3.0660,1.4410,3.0159
2024-10-11T13:44:22.922Z,0.0121,-0.9861,0.1070,0.0142,-0.0204,0.2639,0.0003,0.0368,-0.0099,3.0676,1.4410,3.0151
2024-10-11T13:44:22.932Z,0.0159,-0.9809,0.1218,0.0142,-0.0204,0.2639,-0.0013,0.0335,-0.0100,3.0676,1.4410,3.0151
2024-10-11T13:44:22.941Z,0.0233,-0.9847,0.1270,0.0142,-0.0204,0.2639,-0.0025,0.0365,-0.0101,3.0676,1.4410,3.0151
2024-10-11T13:44:22.952Z,0.0201,-0.9847,0.1392,-0.0439,-0.0504,-0.0373,-0.0063,0.0394,-0.0094,3.0699,1.4411,3.0137
2024-10-11T13:44:22.961Z,0.0240,-0.9823,0.1416,-0.0439,-0.0504,-0.0373,-0.0073,0.0405,-0.0090,3.0699,1.4411,3.0137
2024-10-11T13:44:22.971Z,0.0240,-0.9857,0.1373,-0.0439,-0.0504,-0.0373,-0.0085,0.0437,-0.0105,3.0699,1.4411,3.0137
2024-10-11T13:44:22.982Z,0.0190,-0.9843,0.1287,-0.0331,-0.0586,0.0039,-0.0072,0.0399,-0.0110,3.0723,1.4414,3.0123
2024-10-11T13:44:22.992Z,0.0170,-0.9834,0.1281,-0.0331,-0.0586,0.0039,-0.0060,0.0417,-0.0106,3.0723,1.4414,3.0123
2024-10-11T13:44:23.002Z,0.0155,-0.9876,0.1232,-0.0331,-0.0586,0.0039,-0.0089,0.0418,-0.0126,3.0723,1.4414,3.0123
2024-10-11T13:44:23.012Z,0.0195,-0.9953,0.1091,-0.0242,0.0233,0.1395,-0.0056,0.0379,-0.0129,3.0751,1.4416,3.0105
2024-10-11T13:44:23.022Z,0.0130,-0.9917,0.0984,-0.0242,0.0233,0.1395,-0.0019,0.0420,-0.0115,3.0751,1.4416,3.0105
2024-10-11T13:44:23.032Z,0.0108,-0.9849,0.1058,-0.0242,0.0233,0.1395,0.0031,0.0371,-0.0148,3.0751,1.4416,3.0105
2024-10-11T13:44:23.043Z,0.0142,-0.9792,0.1131,0.0435,-0.1131,0.1789,0.0056,0.0349,-0.0166,3.0784,1.4414,3.0080
2024-10-11T13:44:23.052Z,0.0153,-0.9793,0.1196,0.0435,-0.1131,0.1789,0.0071,0.0333,-0.0175,3.0784,1.4414,3.0080
2024-10-11T13:44:23.061Z,0.0235,-0.9852,0.1187,0.0435,-0.1131,0.1789,0.0079,0.0341,-0.0148,3.0784,1.4414,3.0080
2024-10-11T13:44:23.072Z,0.0251,-0.9953,0.1170,-0.0899,0.0173,0.1091,0.0093,0.0368,-0.0164,3.0814,1.4410,3.0059
2024-10-11T13:44:23.082Z,0.0160,-0.9922,0.1306,-0.0899,0.0173,0.1091,0.0073,0.0391,-0.0157,3.0814,1.4410,3.0059
2024-10-11T13:44:23.092Z,0.0180,-0.9836,0.1366,-0.0899,0.0173,0.1091,0.0078,0.0372,-0.0158,3.0814,1.4410,3.0059
2024-10-11T13:44:23.102Z,0.0228,-0.9838,0.1388,-0.0166,-0.0851,-0.1263,0.0061,0.0378,-0.0151,3.0842,1.4407,3.0039
2024-10-11T13:44:23.112Z,0.0304,-0.9867,0.1489,-0.0166,-0.0851,-0.1263,0.0056,0.0359,-0.0130,3.0842,1.4407,3.0039
2024-10-11T13:44:23.122Z,0.0282,-0.9929,0.1479,-0.0166,-0.0851,-0.1263,0.0040,0.0378,-0.0101,3.0842,1.4407,3.0039
2024-10-11T13:44:23.132Z,0.0350,-1.0051,0.1352,-0.1404,0.0881,-0.1338,0.0002,0.0392,-0.0082,3.0861,1.4406,3.0028
2024-10-11T13:44:23.142Z,0.0382,-1.0086,0.1330,-0.1404,0.0881,-0.1338,0.0032,0.0418,-0.0076,3.0861,1.4406,3.0028
2024-10-11T13:44:23.152Z,0.0369,-1.0050,0.1398,-0.1404,0.0881,-0.1338,0.0009,0.0445,-0.0050,3.0861,1.4406,3.0028
2024-10-11T13:44:23.162Z,0.0360,-1.0028,0.1427,-0.1700,0.1103,-0.1523,-0.0041,0.0441,-0.0029,3.0869,1.4406,3.0030
2024-10-11T13:44:23.172Z,0.0329,-1.0038,0.1378,-0.1700,0.1103,-0.1523,-0.0036,0.0421,-0.0044,3.0869,1.4406,3.0030
2024-10-11T13:44:23.182Z,0.0317,-0.9983,0.1294,-0.1700,0.1103,-0.1523,-0.0029,0.0458,-0.0009,3.0869,1.4406,3.0030
2024-10-11T13:44:23.192Z,0.0303,-0.9955,0.1218,-0.1360,0.0430,0.0449,-0.0048,0.0411,-0.0026,3.0869,1.4406,3.0040
2024-10-11T13:44:23.202Z,0.0315,-0.9960,0.1194,-0.1360,0.0430,0.0449,-0.0054,0.0420,-0.0025,3.0869,1.4406,3.0040
2024-10-11T13:44:23.212Z,0.0291,-0.9890,0.1197,-0.1360,0.0430,0.0449,-0.0028,0.0396,-0.0022,3.0869,1.4406,3.0040
2024-10-11T13:44:23.222Z,0.0308,-0.9810,0.1220,-0.1157,-0.0870,0.0932,-0.0057,0.0418,0.0009,3.0871,1.4407,3.0048
2024-10-11T13:44:23.232Z,0.0293,-0.9861,0.1227,-0.1157,-0.0870,0.0932,-0.0074,0.0412,0.0005,3.0871,1.4407,3.0048
2024-10-11T13:44:23.242Z,0.0219,-0.9917,0.1300,-0.1157,-0.0870,0.0932,-0.0086,0.0382,-0.0023,3.0871,1.4407,3.0048
2024-10-11T13:44:23.252Z,0.0210,-0.9938,0.1238,-0.0308,0.0171,0.0210,-0.0080,0.0343,-0.0016,3.0877,1.4409,3.0050
2024-10-11T13:44:23.262Z,0.0235,-0.9952,0.1227,-0.0308,0.0171,0.0210,-0.0062,0.0337,-0.0021,3.0877,1.4409,3.0050
2024-10-11T13:44:23.272Z,0.0294,-0.9910,0.1311,-0.0308,0.0171,0.0210,-0.0060,0.0316,-0.0019,3.0877,1.4409,3.0050
2024-10-11T13:44:23.282Z,0.0247,-0.9890,0.1391,-0.0846,-0.0208,-0.0861,-0.0099,0.0334,-0.0034,3.0886,1.4411,3.0048
2024-10-11T13:44:23.292Z,0.0294,-0.9920,0.1373,-0.0846,-0.0208,-0.0861,-0.0112,0.0321,-0.0001,3.0886,1.4411,3.0048
2024-10-11T13:44:23.302Z,0.0291,-0.9943,0.1364,-0.0846,-0.0208,-0.0861,-0.0125,0.0340,-0.0025,3.0886,1.4411,3.0048
2024-10-11T13:44:23.313Z,0.0312,-1.0028,0.1379,-0.1216,0.0769,-0.1035,-0.0097,0.0315,0.0002,3.0891,1.4414,3.0050
2024-10-11T13:44:23.322Z,0.0336,-1.0108,0.1364,-0.1216,0.0769,-0.1035,-0.0095,0.0271,0.0008,3.0891,1.4414,3.0050
2024-10-11T13:44:23.332Z,0.0312,-1.0109,0.1255,-0.1216,0.0769,-0.1035,-0.0095,0.0294,0.0018,3.0891,1.4414,3.0050
2024-10-11T13:44:23.342Z,0.0287,-0.9998,0.1280,-0.1169,0.1154,0.0250,-0.0093,0.0294,-0.0008,3.0892,1.4417,3.0056
2024-10-11T13:44:23.352Z,0.0312,-0.9918,0.1329,-0.1169,0.1154,0.0250,-0.0095,0.0277,0.0018,3.0892,1.4417,3.0056
2024-10-11T13:44:23.361Z,0.0316,-0.9905,0.1258,-0.1169,0.1154,0.0250,-0.0075,0.0243,-0.0003,3.0892,1.4417,3.0056
2024-10-11T13:44:23.372Z,0.0306,-0.9898,0.1220,-0.1219,-0.0166,0.0448,-0.0052,0.0255,0.0007,3.0889,1.4419,3.0063
2024-10-11T13:44:23.382Z,0.0341,-0.9877,0.1197,-0.1219,-0.0166,0.0448,-0.0047,0.0251,0.0012,3.0889,1.4419,3.0063
2024-10-11T13:44:23.392Z,0.0337,-0.9828,0.1156,-0.1219,-0.0166,0.0448,-0.0018,0.0210,0.0006,3.0889,1.4419,3.0063
2024-10-11T13:44:23.402Z,0.0360,-0.9789,0.1145,-0.1697,-0.1147,0.1307,-0.0050,0.0223,0.0024,3.0885,1.4420,3.0071
2024-10-11T13:44:23.412Z,0.0304,-0.9773,0.1197,-0.1697,-0.1147,0.1307,-0.0011,0.0203,0.0023,3.0885,1.4420,3.0071
2024-10-11T13:44:23.422Z,0.0321,-0.9795,0.1209,-0.1697,-0.1147,0.1307,-0.0041,0.0258,0.0021,3.0885,1.4420,3.0071
2024-10-11T13:44:23.432Z,0.0355,-0.9841,0.1227,-0.1915,-0.0822,0.0547,-0.0038,0.0241,0.0064,3.0880,1.4420,3.0080
2024-10-11T13:44:23.442Z,0.0269,-0.9861,0.1256,-0.1915,-0.0822,0.0547,-0.0054,0.0274,0.0011,3.0880,1.4420,3.0080
2024-10-11T13:44:23.452Z,0.0225,-0.9825,0.1331,-0.1915,-0.0822,0.0547,-0.0014,0.0231,-0.0004,3.0880,1.4420,3.0080
2024-10-11T13:44:23.462Z,0.0244,-0.9814,0.1403,-0.0657,-0.1007,-0.0888,-0.0046,0.0230,-0.0001,3.0878,1.4421,3.0087
2024-10-11T13:44:23.472Z,0.0287,-0.9834,0.1527,-0.0657,-0.1007,-0.0888,-0.0063,0.0236,0.0015,3.0878,1.4421,3.0087
2024-10-11T13:44:23.482Z,0.0295,-0.9929,0.1471,-0.0657,-0.1007,-0.0888,-0.0098,0.0229,-0.0027,3.0878,1.4421,3.0087
2024-10-11T13:44:23.493Z,0.0246,-1.0027,0.1413,-0.0901,0.0730,-0.1495,-0.0137,0.0275,0.0022,3.0882,1.4424,3.0088
2024-10-11T13:44:23.503Z,0.0294,-1.0060,0.1431,-0.0901,0.0730,-0.1495,-0.0131,0.0241,0.0004,3.0882,1.4424,3.0088
2024-10-11T13:44:23.513Z,0.0278,-1.0056,0.1342,-0.0901,0.0730,-0.1495,-0.0165,0.0216,-0.0009,3.0882,1.4424,3.0088
2024-10-11T13:44:23.522Z,0.0251,-1.0031,0.1348,-0.0747,0.1150,-0.0644,-0.0165,0.0216,-0.0009,3.0890,1.4428,3.0085
2024-10-11T13:44:23.533Z,0.0299,-1.0024,0.1335,-0.0747,0.1150,-0.0644,-0.0124,0.0192,-0.0000,3.0890,1.4428,3.0085
2024-10-11T13:44:23.542Z,0.0366,-1.0041,0.1229,-0.0747,0.1150,-0.0644,-0.0124,0.0192,-0.0000,3.0890,1.4428,3.0085
2024-10-11T13:44:23.553Z,0.0400,-1.0024,0.1108,-0.2173,0.1120,0.1079,-0.0107,0.0140,0.0021,3.0896,1.4431,3.0081
2024-10-11T13:44:23.563Z,0.0379,-0.9974,0.1037,-0.2173,0.1120,0.1079,-0.0105,0.0150,0.0005,3.0896,1.4431,3.0081
2024-10-11T13:44:23.573Z,0.0296,-0.9912,0.1008,-0.2173,0.1120,0.1079,-0.0088,0.0147,-0.0003,3.0896,1.4431,3.0081
2024-10-11T13:44:23.583Z,0.0262,-0.9914,0.1068,-0.0769,-0.0151,0.1889,-0.0094,0.0080,0.0007,3.0897,1.4434,3.0081
2024-10-11T13:44:23.594Z,0.0306,-0.9913,0.1043,-0.0769,-0.0151,0.1889,-0.0066,0.0090,-0.0005,3.0897,1.4434,3.0081
2024-10-11T13:44:23.603Z,0.0321,-0.9857,0.1001,-0.0769,-0.0151,0.1889,-0.0050,0.0051,-0.0002,3.0897,1.4434,3.0081
2024-10-11T13:44:23.611Z,0.0240,-0.9790,0.0983,-0.1043,-0.0993,0.2770,-0.0050,0.0051,-0.0002,3.0897,1.4436,3.0081
2024-10-11T13:44:23.623Z,0.0198,-0.9732,0.1110,-0.1043,-0.0993,0.2770,-0.0088,0.0055,-0.0018,3.0897,1.4436,3.0081
2024-10-11T13:44:23.633Z,0.0223,-0.9731,0.1122,-0.1043,-0.0993,0.2770,-0.0109,0.0060,-0.0040,3.0897,1.4436,3.0081
2024-10-11T13:44:23.643Z,0.0198,-0.9804,0.1001,-0.0318,-0.1263,0.2287,-0.0067,0.0058,-0.0042,3.0908,1.4438,3.0069
2024-10-11T13:44:23.653Z,0.0237,-0.9847,0.1026,-0.0318,-0.1263,0.2287,-0.0058,0.0054,-0.0064,3.0908,1.4438,3.0069
2024-10-11T13:44:23.661Z,0.0280,-0.9908,0.1027,-0.0318,-0.1263,0.2287,-0.0058,0.0054,-0.0064,3.0908,1.4438,3.0069
2024-10-11T13:44:23.673Z,0.0241,-0.9938,0.1047,-0.0794,0.0161,0.2223,-0.0055,-0.0009,-0.0072,3.0925,1.4439,3.0052
2024-10-11T13:44:23.683Z,0.0182,-0.9902,0.1087,-0.0794,0.0161,0.2223,-0.0033,-0.0008,-0.0091,3.0925,1.4439,3.0052
2024-10-11T13:44:23.693Z,0.0129,-0.9867,0.1146,-0.0794,0.0161,0.2223,-0.0035,0.0006,-0.0104,3.0925,1.4439,3.0052
2024-10-11T13:44:23.703Z,0.0206,-0.9900,0.1154,0.0135,-0.0349,0.1076,-0.0036,-0.0020,-0.0107,3.0948,1.4440,3.0026
2024-10-11T13:44:23.711Z,0.0228,-0.9934,0.1109,0.0135,-0.0349,0.1076,-0.0036,-0.0020,-0.0107,3.0948,1.4440,3.0026
2024-10-11T13:44:23.723Z,0.0251,-0.9946,0.1190,0.0135,-0.0349,0.1076,-0.0031,-0.0041,-0.0114,3.0948,1.4440,3.0026
2024-10-11T13:44:23.732Z,0.0298,-0.9944,0.1214,-0.1051,0.0313,0.0429,-0.0031,-0.0041,-0.0114,3.0973,1.4441,2.9997
2024-10-11T13:44:23.742Z,0.0308,-0.9925,0.1248,-0.1051,0.0313,0.0429,0.0009,-0.0062,-0.0111,3.0973,1.4441,2.9997
2024-10-11T13:44:23.753Z,0.0393,-0.9895,0.1188,-0.1051,0.0313,0.0429,0.0058,-0.0064,-0.0052,3.0973,1.4441,2.9997
2024-10-11T13:44:23.761Z,0.0380,-0.9960,0.1053,-0.2213,0.0106,0.1382,0.0058,-0.0064,-0.0052,3.0991,1.4441,2.9976
2024-10-11T13:44:23.772Z,0.0290,-0.9942,0.1058,-0.2213,0.0106,0.1382,0.0075,-0.0062,-0.0071,3.0991,1.4441,2.9976
2024-10-11T13:44:23.782Z,0.0262,-0.9924,0.1137,-0.2213,0.0106,0.1382,0.0054,-0.0093,-0.0059,3.0991,1.4441,2.9976
2024-10-11T13:44:23.793Z,0.0247,-0.9923,0.1187,-0.0712,0.0006,0.0704,0.0070,-0.0125,-0.0073,3.1000,1.4439,2.9962
2024-10-11T13:44:23.803Z,0.0248,-0.9906,0.1215,-0.0712,0.0006,0.0704,0.0060,-0.0172,-0.0066,3.1000,1.4439,2.9962
2024-10-11T13:44:23.811Z,0.0259,-0.9884,0.1210,-0.0712,0.0006,0.0704,0.0060,-0.0172,-0.0066,3.1000,1.4439,2.9962
2024-10-11T13:44:23.823Z,0.0322,-0.9933,0.1162,-0.1107,-0.0095,0.0610,0.0085,-0.0171,-0.0054,3.1012,1.4436,2.9942
2024-10-11T13:44:23.832Z,0.0306,-1.0004,0.1201,-0.1107,-0.0095,0.0610,0.0065,-0.0166,-0.0058,3.1012,1.4436,2.9942
2024-10-11T13:44:23.844Z,0.0246,-1.0007,0.1278,-0.1107,-0.0095,0.0610,0.0041,-0.0150,-0.0056,3.1012,1.4436,2.9942
2024-10-11T13:44:23.852Z,0.0296,-1.0026,0.1339,-0.0836,0.0917,-0.0809,-0.0003,-0.0151,-0.0032,3.1024,1.4434,2.9923
2024-10-11T13:44:23.862Z,0.0328,-0.9985,0.1355,-0.0836,0.0917,-0.0809,0.0001,-0.0131,-0.0034,3.1024,1.4434,2.9923
2024-10-11T13:44:23.873Z,0.0324,-0.9888,0.1410,-0.0836,0.0917,-0.0809,-0.0048,-0.0129,-0.0026,3.1024,1.4434,2.9923
2024-10-11T13:44:23.883Z,0.0303,-0.9892,0.1456,-0.1212,-0.0414,-0.1910,-0.0075,-0.0154,0.0004,3.1030,1.4434,2.9909
2024-10-11T13:44:23.892Z,0.0312,-0.9967,0.1409,-0.1212,-0.0414,-0.1910,-0.0075,-0.0154,0.0004,3.1030,1.4434,2.9909
2024-10-11T13:44:23.902Z,0.0307,-0.9989,0.1448,-0.1212,-0.0414,-0.1910,-0.0096,-0.0106,0.0031,3.1030,1.4434,2.9909
2024-10-11T13:44:23.912Z,0.0381,-1.0002,0.1366,-0.1452,0.0742,-0.1223,-0.0166,-0.0072,0.0043,3.1032,1.4437,2.9902
2024-10-11T13:44:23.922Z,0.0428,-0.9994,0.1368,-0.1452,0.0742,-0.1223,-0.0150,-0.0057,0.0041,3.1032,1.4437,2.9902
2024-10-11T13:44:23.932Z,0.0352,-0.9939,0.1346,-0.1452,0.0742,-0.1223,-0.0157,-0.0040,0.0025,3.1032,1.4437,2.9902
2024-10-11T13:44:23.943Z,0.0295,-0.9921,0.1303,-0.1275,0.0003,-0.0673,-0.0157,-0.0040,0.0025,3.1024,1.4441,2.9906
2024-10-11T13:44:23.953Z,0.0283,-0.9941,0.1197,-0.1275,0.0003,-0.0673,-0.0121,-0.0050,0.0077,3.1024,1.4441,2.9906
2024-10-11T13:44:23.963Z,0.0303,-0.9977,0.1190,-0.1275,0.0003,-0.0673,-0.0110,-0.0035,0.0098,3.1024,1.4441,2.9906
2024-10-11T13:44:23.972Z,0.0322,-0.9970,0.1183,-0.1088,0.0368,0.0610,-0.0112,0.0006,0.0094,3.1007,1.4445,2.9919
2024-10-11T13:44:23.982Z,0.0354,-0.9948,0.1083,-0.1088,0.0368,0.0610,-0.0107,0.0047,0.0107,3.1007,1.4445,2.9919
2024-10-11T13:44:23.992Z,0.0276,-0.9916,0.1152,-0.1088,0.0368,0.0610,-0.0107,0.0047,0.0107,3.1007,1.4445,2.9919
2024-10-11T13:44:24.002Z,0.0295,-0.9878,0.1240,-0.0918,-0.0320,0.0399,-0.0096,0.0062,0.0103,3.0984,1.4447,2.9940
2024-10-11T13:44:24.012Z,0.0306,-0.9934,0.1224,-0.0918,-0.0320,0.0399,-0.0101,0.0074,0.0127,3.0984,1.4447,2.9940
2024-10-11T13:44:24.023Z,0.0251,-0.9954,0.1183,-0.0918,-0.0320,0.0399,-0.0087,0.0037,0.0114,3.0984,1.4447,2.9940
2024-10-11T13:44:24.032Z,0.0220,-0.9915,0.1201,-0.0418,0.0064,0.0392,-0.0120,0.0006,0.0128,3.0958,1.4451,2.9965
2024-10-11T13:44:24.043Z,0.0197,-0.9880,0.1291,-0.0418,0.0064,0.0392,-0.0086,0.0004,0.0106,3.0958,1.4451,2.9965
2024-10-11T13:44:24.052Z,0.0107,-0.9889,0.1258,-0.0418,0.0064,0.0392,-0.0095,0.0028,0.0098,3.0958,1.4451,2.9965
2024-10-11T13:44:24.062Z,0.0198,-0.9926,0.1162,0.0169,-0.0089,0.0412,-0.0095,0.0038,0.0113,3.0938,1.4454,2.9983
2024-10-11T13:44:24.072Z,0.0245,-0.9950,0.1158,0.0169,-0.0089,0.0412,-0.0086,0.0059,0.0081,3.0938,1.4454,2.9983
2024-10-11T13:44:24.082Z,0.0206,-0.9976,0.1219,0.0169,-0.0089,0.0412,-0.0112,0.0025,0.0069,3.0938,1.4454,2.9983
2024-10-11T13:44:24.093Z,0.0166,-0.9967,0.1306,-0.0094,0.0539,-0.0364,-0.0093,0.0020,0.0075,3.0919,1.4457,2.9999
2024-10-11T13:44:24.102Z,0.0114,-0.9933,0.1346,-0.0094,0.0539,-0.0364,-0.0111,-0.0015,0.0059,3.0919,1.4457,2.9999
2024-10-11T13:44:24.112Z,0.0177,-0.9892,0.1305,-0.0094,0.0539,-0.0364,-0.0123,0.0041,0.0044,3.0919,1.4457,2.9999
2024-10-11T13:44:24.122Z,0.0204,-0.9868,0.1284,-0.0383,-0.0485,-0.0810,-0.0090,0.0035,0.0050,3.0905,1.4460,3.0010
2024-10-11T13:44:24.132Z,0.0182,-0.9862,0.1225,-0.0383,-0.0485,-0.0810,-0.0114,0.0061,0.0043,3.0905,1.4460,3.0010
2024-10-11T13:44:24.143Z,0.0156,-0.9859,0.1118,-0.0383,-0.0485,-0.0810,-0.0090,0.0010,0.0013,3.0905,1.4460,3.0010
2024-10-11T13:44:24.152Z,0.0129,-0.9842,0.1192,0.0364,-0.0878,0.0750,-0.0086,0.0011,0.0011,3.0898,1.4463,3.0015
2024-10-11T13:44:24.162Z,0.0149,-0.9859,0.1183,0.0364,-0.0878,0.0750,-0.0091,-0.0005,-0.0010,3.0898,1.4463,3.0015
2024-10-11T13:44:24.173Z,0.0179,-0.9895,0.1138,0.0364,-0.0878,0.0750,-0.0041,-0.0020,0.0004,3.0898,1.4463,3.0015
2024-10-11T13:44:24.182Z,0.0195,-0.9941,0.0976,-0.0134,0.0066,0.2102,-0.0020,-0.0030,-0.0023,3.0899,1.4464,3.0011
2024-10-11T13:44:24.195Z,0.0172,-0.9930,0.1011,-0.0134,0.0066,0.2102,0.0007,0.0030,-0.0049,3.0899,1.4464,3.0011
2024-10-11T13:44:24.202Z,0.0145,-0.9903,0.1073,-0.0134,0.0066,0.2102,-0.0015,0.0005,-0.0059,3.0899,1.4464,3.0011
2024-10-11T13:44:24.212Z,0.0118,-0.9851,0.1119,0.0446,-0.0466,0.1288,-0.0021,0.0006,-0.0086,3.0907,1.4463,3.0000
2024-10-11T13:44:24.222Z,0.0166,-0.9816,0.1231,0.0446,-0.0466,0.1288,-0.0009,0.0003,-0.0072,3.0907,1.4463,3.0000
2024-10-11T13:44:24.232Z,0.0214,-0.9880,0.1227,0.0446,-0.0466,0.1288,-0.0011,0.0012,-0.0095,3.0907,1.4463,3.0000
2024-10-11T13:44:24.243Z,0.0208,-0.9942,0.1241,-0.0395,-0.0002,-0.0094,0.0007,-0.0011,-0.0097,3.0923,1.4463,2.9982
2024-10-11T13:44:24.252Z,0.0233,-0.9942,0.1159,-0.0395,-0.0002,-0.0094,0.0003,-0.0002,-0.0103,3.0923,1.4463,2.9982
2024-10-11T13:44:24.262Z,0.0227,-0.9965,0.1152,-0.0395,-0.0002,-0.0094,0.0007,-0.0016,-0.0121,3.0923,1.4463,2.9982
2024-10-11T13:44:24.272Z,0.0237,-0.9972,0.1072,-0.0490,0.0391,0.1497,0.0031,-0.0045,-0.0116,3.0946,1.4463,2.9956
2024-10-11T13:44:24.282Z,0.0233,-0.9977,0.1143,-0.0490,0.0391,0.1497,0.0016,-0.0044,-0.0116,3.0946,1.4463,2.9956
2024-10-11T13:44:24.292Z,0.0270,-0.9974,0.1172,-0.0490,0.0391,0.1497,0.0014,-0.0048,-0.0128,3.0946,1.4463,2.9956
2024-10-11T13:44:24.302Z,0.0298,-0.9965,0.1128,-0.1024,0.0522,0.0491,-0.0004,-0.0100,-0.0093,3.0970,1.4462,2.9928
2024-10-11T13:44:24.312Z,0.0368,-0.9941,0.1193,-0.1024,0.0522,0.0491,0.0021,-0.0097,-0.0060,3.0970,1.4462,2.9928
2024-10-11T13:44:24.322Z,0.0368,-0.9959,0.1220,-0.1024,0.0522,0.0491,-0.0014,-0.0102,-0.0097,3.0970,1.4462,2.9928
2024-10-11T13:44:24.332Z,0.0359,-0.9949,0.1162,-0.1777,0.0316,0.0591,-0.0017,-0.0094,-0.0078,3.0988,1.4462,2.9904
2024-10-11T13:44:24.343Z,0.0340,-0.9937,0.1162,-0.1777,0.0316,0.0591,-0.0025,-0.0120,-0.0063,3.0988,1.4462,2.9904
2024-10-11T13:44:24.352Z,0.0407,-0.9959,0.1215,-0.1777,0.0316,0.0591,-0.0033,-0.0128,-0.0067,3.0988,1.4462,2.9904
2024-10-11T13:44:24.362Z,0.0350,-0.9984,0.1190,-0.1952,0.0610,0.0567,-0.0025,-0.0152,-0.0044,3.1001,1.4462,2.9885
2024-10-11T13:44:24.372Z,0.0261,-0.9963,0.1224,-0.1952,0.0610,0.0567,-0.0035,-0.0183,-0.0034,3.1001,1.4462,2.9885
2024-10-11T13:44:24.382Z,0.0342,-0.9849,0.1272,-0.1952,0.0610,0.0567,-0.0077,-0.0157,-0.0021,3.1001,1.4462,2.9885
2024-10-11T13:44:24.393Z,0.0317,-0.9863,0.1252,-0.1495,-0.0683,-0.0524,-0.0059,-0.0164,-0.0013,3.1011,1.4463,2.9868
2024-10-11T13:44:24.402Z,0.0345,-0.9864,0.1209,-0.1495,-0.0683,-0.0524,-0.0049,-0.0161,0.0014,3.1011,1.4463,2.9868
2024-10-11T13:44:24.412Z,0.0358,-0.9862,0.1128,-0.1495,-0.0683,-0.0524,-0.0055,-0.0120,0.0024,3.1011,1.4463,2.9868
2024-10-11T13:44:24.422Z,0.0346,-0.9928,0.1098,-0.1535,-0.0257,0.1031,-0.0007,-0.0124,0.0046,3.1013,1.4464,2.9858
2024-10-11T13:44:24.432Z,0.0378,-0.9969,0.0979,-0.1535,-0.0257,0.1031,0.0026,-0.0123,0.0065,3.1013,1.4464,2.9858
2024-10-11T13:44:24.443Z,0.0343,-0.9954,0.0992,-0.1535,-0.0257,0.1031,0.0046,-0.0172,0.0079,3.1013,1.4464,2.9858
2024-10-11T13:44:24.452Z,0.0281,-0.9908,0.1015,-0.0995,0.0019,0.2077,0.0081,-0.0174,0.0059,3.0999,1.4463,2.9864
2024-10-11T13:44:24.462Z,0.0232,-0.9808,0.1101,-0.0995,0.0019,0.2077,0.0083,-0.0172,0.0083,3.0999,1.4463,2.9864
2024-10-11T13:44:24.472Z,0.0220,-0.9755,0.1116,-0.0995,0.0019,0.2077,0.0111,-0.0176,0.0076,3.0999,1.4463,2.9864
2024-10-11T13:44:24.482Z,0.0206,-0.9825,0.1068,-0.0370,-0.1245,0.1037,0.0114,-0.0119,0.0065,3.0980,1.4461,2.9876
2024-10-11T13:44:24.493Z,0.0154,-0.9829,0.1108,-0.0370,-0.1245,0.1037,0.0147,-0.0143,0.0080,3.0980,1.4461,2.9876
2024-10-11T13:44:24.502Z,0.0265,-0.9815,0.1107,-0.0370,-0.1245,0.1037,0.0156,-0.0118,0.0081,3.0980,1.4461,2.9876
2024-10-11T13:44:24.512Z,0.0298,-0.9765,0.1260,-0.1231,-0.1485,0.0275,0.0140,-0.0085,0.0097,3.0958,1.4457,2.9892
2024-10-11T13:44:24.522Z,0.0169,-0.9787,0.1344,-0.1231,-0.1485,0.0275,0.0102,-0.0106,0.0095,3.0958,1.4457,2.9892
2024-10-11T13:44:24.532Z,0.0178,-0.9839,0.1399,-0.1231,-0.1485,0.0275,0.0114,-0.0034,0.0076,3.0958,1.4457,2.9892
2024-10-11T13:44:24.543Z,0.0165,-0.9925,0.1339,0.0155,-0.0236,-0.1185,0.0134,-0.0005,0.0075,3.0936,1.4454,2.9909
2024-10-11T13:44:24.552Z,0.0174,-1.0009,0.1279,0.0155,-0.0236,-0.1185,0.0129,-0.0005,0.0079,3.0936,1.4454,2.9909
2024-10-11T13:44:24.562Z,0.0154,-1.0004,0.1283,0.0155,-0.0236,-0.1185,0.0132,-0.0019,0.0059,3.0936,1.4454,2.9909
2024-10-11T13:44:24.572Z,0.0074,-0.9983,0.1336,0.0741,0.0648,-0.0820,0.0123,-0.0006,0.0041,3.0913,1.4452,2.9928
2024-10-11T13:44:24.582Z,0.0079,-0.9962,0.1391,0.0741,0.0648,-0.0820,0.0072,0.0001,0.0030,3.0913,1.4452,2.9928
2024-10-11T13:44:24.593Z,0.0097,-0.9982,0.1446,0.0741,0.0648,-0.0820,0.0075,0.0032,0.0031,3.0913,1.4452,2.9928
2024-10-11T13:44:24.602Z,0.0132,-1.0028,0.1342,0.0580,0.0866,-0.1190,0.0033,0.0076,0.0025,3.0901,1.4449,2.9938
2024-10-11T13:44:24.612Z,0.0088,-1.0063,0.1253,0.0580,0.0866,-0.1190,0.0070,0.0117,0.0008,3.0901,1.4449,2.9938
2024-10-11T13:44:24.622Z,0.0078,-1.0002,0.1318,0.0580,0.0866,-0.1190,0.0065,0.0151,0.0009,3.0901,1.4449,2.9938
2024-10-11T13:44:24.633Z,0.0051,-0.9919,0.1292,0.1195,0.0354,-0.0207,0.0074,0.0199,0.0018,3.0886,1.4446,2.9954
2024-10-11T13:44:24.644Z,0.0073,-0.9887,0.1346,0.1195,0.0354,-0.0207,0.0030,0.0260,0.0009,3.0886,1.4446,2.9954
2024-10-11T13:44:24.652Z,0.0064,-0.9917,0.1359,0.1195,0.0354,-0.0207,0.0037,0.0312,0.0020,3.0886,1.4446,2.9954
2024-10-11T13:44:24.662Z,0.0073,-0.9966,0.1386,0.1125,0.0358,-0.1388,0.0032,0.0332,0.0014,3.0876,1.4445,2.9969
2024-10-11T13:44:24.672Z,0.0097,-0.9991,0.1387,0.1125,0.0358,-0.1388,0.0016,0.0396,0.0016,3.0876,1.4445,2.9969
2024-10-11T13:44:24.682Z,0.0089,-1.0013,0.1345,0.1125,0.0358,-0.1388,-0.0004,0.0438,0.0035,3.0876,1.4445,2.9969
2024-10-11T13:44:24.693Z,0.0134,-0.9971,0.1397,0.0592,0.0526,-0.1405,-0.0015,0.0484,0.0018,3.0866,1.4445,2.9988
2024-10-11T13:44:24.702Z,0.0119,-0.9993,0.1400,0.0592,0.0526,-0.1405,-0.0042,0.0511,0.0045,3.0866,1.4445,2.9988
2024-10-11T13:44:24.712Z,0.0088,-0.9984,0.1430,0.0592,0.0526,-0.1405,-0.0089,0.0536,0.0025,3.0866,1.4445,2.9988
2024-10-11T13:44:24.722Z,0.0036,-0.9984,0.1471,0.1168,0.0555,-0.2318,-0.0103,0.0548,0.0029,3.0854,1.4447,3.0014
2024-10-11T13:44:24.731Z,0.0040,-0.9980,0.1444,0.1168,0.0555,-0.2318,-0.0151,0.0622,0.0020,3.0854,1.4447,3.0014
2024-10-11T13:44:24.743Z,0.0109,-0.9977,0.1425,0.1168,0.0555,-0.2318,-0.0182,0.0604,0.0018,3.0854,1.4447,3.0014
2024-10-11T13:44:24.752Z,0.0186,-0.9986,0.1406,0.0125,0.0584,-0.2083,-0.0168,0.0623,0.0030,3.0848,1.4451,3.0035
2024-10-11T13:44:24.762Z,0.0183,-1.0010,0.1333,0.0125,0.0584,-0.2083,-0.0202,0.0631,0.0043,3.0848,1.4451,3.0035
2024-10-11T13:44:24.772Z,0.0154,-1.0048,0.1280,0.0125,0.0584,-0.2083,-0.0179,0.0600,0.0022,3.0848,1.4451,3.0035
2024-10-11T13:44:24.782Z,0.0175,-1.0022,0.1233,0.0036,0.1109,-0.0299,-0.0217,0.0636,-0.0006,3.0844,1.4456,3.0055
2024-10-11T13:44:24.793Z,0.0148,-0.9969,0.1154,0.0036,0.1109,-0.0299,-0.0205,0.0615,-0.0001,3.0844,1.4456,3.0055
2024-10-11T13:44:24.802Z,0.0133,-0.9957,0.1108,0.0036,0.1109,-0.0299,-0.0181,0.0584,-0.0006,3.0844,1.4456,3.0055
2024-10-11T13:44:24.813Z,0.0145,-0.9894,0.1070,0.0268,0.0151,0.1651,-0.0185,0.0575,-0.0027,3.0844,1.4461,3.0070
2024-10-11T13:44:24.822Z,0.0139,-0.9848,0.1084,0.0268,0.0151,0.1651,-0.0173,0.0538,-0.0045,3.0844,1.4461,3.0070
2024-10-11T13:44:24.832Z,0.0145,-0.9823,0.1100,0.0268,0.0151,0.1651,-0.0140,0.0560,-0.0086,3.0844,1.4461,3.0070
2024-10-11T13:44:24.842Z,0.0141,-0.9803,0.1104,0.0259,-0.1164,0.1194,-0.0163,0.0582,-0.0024,3.0853,1.4465,3.0075
2024-10-11T13:44:24.853Z,0.0176,-0.9820,0.1097,0.0259,-0.1164,0.1194,-0.0124,0.0564,-0.0018,3.0853,1.4465,3.0075
2024-10-11T13:44:24.862Z,0.0233,-0.9854,0.1073,0.0259,-0.1164,0.1194,-0.0150,0.0552,-0.0041,3.0853,1.4465,3.0075
2024-10-11T13:44:24.872Z,0.0232,-0.9907,0.1132,-0.0758,-0.0275,0.1211,-0.0117,0.0524,-0.0029,3.0864,1.4469,3.0078
2024-10-11T13:44:24.882Z,0.0198,-0.9940,0.1160,-0.0758,-0.0275,0.1211,-0.0159,0.0512,-0.0081,3.0864,1.4469,3.0078
2024-10-11T13:44:24.892Z,0.0151,-0.9967,0.1216,-0.0758,-0.0275,0.1211,-0.0153,0.0482,-0.0051,3.0864,1.4469,3.0078
2024-10-11T13:44:24.902Z,0.0200,-0.9979,0.1196,-0.0108,0.0568,0.0189,-0.0133,0.0489,-0.0050,3.0879,1.4472,3.0076
2024-10-11T13:44:24.912Z,0.0235,-0.9960,0.1165,-0.0108,0.0568,0.0189,-0.0140,0.0472,-0.0072,3.0879,1.4472,3.0076
2024-10-11T13:44:24.922Z,0.0185,-0.9937,0.1200,-0.0108,0.0568,0.0189,-0.0131,0.0510,-0.0084,3.0879,1.4472,3.0076
2024-10-11T13:44:24.932Z,0.0236,-0.9968,0.1090,-0.0428,0.0229,0.0968,-0.0110,0.0485,-0.0081,3.0898,1.4476,3.0068
2024-10-11T13:44:24.941Z,0.0239,-0.9979,0.1105,-0.0428,0.0229,0.0968,-0.0104,0.0450,-0.0091,3.0898,1.4476,3.0068
2024-10-11T13:44:24.951Z,0.0199,-0.9995,0.1121,-0.0428,0.0229,0.0968,-0.0085,0.0428,-0.0098,3.0898,1.4476,3.0068
2024-10-11T13:44:24.962Z,0.0161,-1.0033,0.1131,-0.0177,0.0917,0.0928,-0.0070,0.0391,-0.0088,3.0922,1.4479,3.0055
2024-10-11T13:44:24.972Z,0.0133,-1.0028,0.1062,-0.0177,0.0917,0.0928,-0.0051,0.0397,-0.0140,3.0922,1.4479,3.0055
2024-10-11T13:44:24.982Z,0.0169,-0.9990,0.1018,-0.0177,0.0917,0.0928,-0.0010,0.0411,-0.0132,3.0922,1.4479,3.0055
2024-10-11T13:44:24.992Z,0.0251,-0.9974,0.1083,-0.0320,0.0494,0.1669,-0.0056,0.0452,-0.0110,3.0951,1.4479,3.0037
2024-10-11T13:44:25.002Z,0.0287,-0.9972,0.1145,-0.0320,0.0494,0.1669,-0.0027,0.0436,-0.0133,3.0951,1.4479,3.0037
2024-10-11T13:44:25.012Z,0.0211,-0.9972,0.1159,-0.0320,0.0494,0.1669,-0.0018,0.0421,-0.0131,3.0951,1.4479,3.0037
2024-10-11T13:44:25.022Z,0.0212,-0.9986,0.1190,-0.0255,0.0519,0.0302,-0.0036,0.0409,-0.0148,3.0981,1.4480,3.0017
2024-10-11T13:44:25.032Z,0.0253,-0.9961,0.1209,-0.0255,0.0519,0.0302,-0.0017,0.0406,-0.0148,3.0981,1.4480,3.0017
2024-10-11T13:44:25.042Z,0.0201,-0.9896,0.1185,-0.0255,0.0519,0.0302,-0.0005,0.0420,-0.0139,3.0981,1.4480,3.0017
2024-10-11T13:44:25.052Z,0.0216,-0.9879,0.1199,-0.0244,-0.0494,-0.0101,-0.0067,0.0423,-0.0138,3.1014,1.4481,2.9994
2024-10-11T13:44:25.061Z,0.0296,-0.9897,0.1236,-0.0244,-0.0494,-0.0101,-0.0081,0.0421,-0.0139,3.1014,1.4481,2.9994
2024-10-11T13:44:25.073Z,0.0287,-0.9936,0.1292,-0.0244,-0.0494,-0.0101,-0.0084,0.0433,-0.0132,3.1014,1.4481,2.9994
2024-10-11T13:44:25.082Z,0.0285,-0.9994,0.1308,-0.0987,0.0514,-0.1097,-0.0099,0.0391,-0.0120,3.1046,1.4482,2.9972
2024-10-11T13:44:25.092Z,0.0303,-0.9999,0.1349,-0.0987,0.0514,-0.1097,-0.0131,0.0404,-0.0113,3.1046,1.4482,2.9972
2024-10-11T13:44:25.102Z,0.0327,-0.9947,0.1363,-0.0987,0.0514,-0.1097,-0.0150,0.0416,-0.0089,3.1046,1.4482,2.9972
2024-10-11T13:44:25.111Z,0.0352,-0.9929,0.1299,-0.1604,0.0102,-0.1105,-0.0136,0.0379,-0.0080,3.1072,1.4486,2.9956
2024-10-11T13:44:25.122Z,0.0380,-0.9951,0.1308,-0.1604,0.0102,-0.1105,-0.0167,0.0440,-0.0066,3.1072,1.4486,2.9956
2024-10-11T13:44:25.132Z,0.0334,-0.9989,0.1311,-0.1604,0.0102,-0.1105,-0.0191,0.0462,-0.0044,3.1072,1.4486,2.9956
2024-10-11T13:44:25.142Z,0.0305,-0.9968,0.1333,-0.1318,0.0611,-0.1126,-0.0209,0.0444,-0.0036,3.1092,1.4491,2.9947
2024-10-11T13:44:25.152Z,0.0361,-0.9934,0.1279,-0.1318,0.0611,-0.1126,-0.0203,0.0440,-0.0037,3.1092,1.4491,2.9947
2024-10-11T13:44:25.161Z,0.0354,-0.9915,0.1219,-0.1318,0.0611,-0.1126,-0.0189,0.0440,-0.0013,3.1092,1.4491,2.9947
2024-10-11T13:44:25.172Z,0.0345,-0.9898,0.1144,-0.1611,-0.0276,0.0309,-0.0218,0.0466,-0.0002,3.1102,1.4496,2.9948
2024-10-11T13:44:25.182Z,0.0416,-0.9963,0.1021,-0.1611,-0.0276,0.0309,-0.0175,0.0451,0.0022,3.1102,1.4496,2.9948
2024-10-11T13:44:25.192Z,0.0426,-0.9985,0.1028,-0.1611,-0.0276,0.0309,-0.0167,0.0473,0.0045,3.1102,1.4496,2.9948
2024-10-11T13:44:25.202Z,0.0391,-0.9976,0.1018,-0.2108,0.0507,0.1888,-0.0175,0.0461,0.0074,3.1099,1.4501,2.9962
2024-10-11T13:44:25.213Z,0.0352,-0.9922,0.1053,-0.2108,0.0507,0.1888,-0.0166,0.0427,0.0074,3.1099,1.4501,2.9962
2024-10-11T13:44:25.222Z,0.0281,-0.9852,0.1132,-0.2108,0.0507,0.1888,-0.0191,0.0438,0.0060,3.1099,1.4501,2.9962
2024-10-11T13:44:25.232Z,0.0246,-0.9814,0.1069,-0.0913,-0.1079,0.0901,-0.0180,0.0396,0.0050,3.1087,1.4506,2.9984
2024-10-11T13:44:25.242Z,0.0197,-0.9830,0.1028,-0.0913,-0.1079,0.0901,-0.0179,0.0402,0.0084,3.1087,1.4506,2.9984
2024-10-11T13:44:25.252Z,0.0305,-0.9861,0.1025,-0.0913,-0.1079,0.0901,-0.0165,0.0403,0.0118,3.1087,1.4506,2.9984
2024-10-11T13:44:25.262Z,0.0311,-0.9880,0.1052,-0.1550,-0.0598,0.1255,-0.0170,0.0409,0.0115,3.1075,1.4511,3.0005
2024-10-11T13:44:25.272Z,0.0263,-0.9890,0.1015,-0.1550,-0.0598,0.1255,-0.0162,0.0434,0.0142,3.1075,1.4511,3.0005
2024-10-11T13:44:25.282Z,0.0300,-0.9923,0.0949,-0.1550,-0.0598,0.1255,-0.0133,0.0420,0.0144,3.1075,1.4511,3.0005
2024-10-11T13:44:25.293Z,0.0227,-0.9995,0.0989,-0.0971,0.0467,0.2105,-0.0102,0.0410,0.0136,3.1051,1.4516,3.0039
2024-10-11T13:44:25.302Z,0.0224,-1.0018,0.1001,-0.0971,0.0467,0.2105,-0.0072,0.0368,0.0163,3.1051,1.4516,3.0039
2024-10-11T13:44:25.312Z,0.0189,-1.0024,0.0977,-0.0971,0.0467,0.2105,-0.0104,0.0431,0.0155,3.1051,1.4516,3.0039
2024-10-11T13:44:25.321Z,0.0100,-1.0013,0.1030,0.0404,0.0839,0.1416,-0.0096,0.0427,0.0118,3.1017,1.4520,3.0083
2024-10-11T13:44:25.332Z,0.0123,-1.0005,0.1113,0.0404,0.0839,0.1416,-0.0106,0.0428,0.0117,3.1017,1.4520,3.0083
2024-10-11T13:44:25.342Z,0.0072,-0.9992,0.1137,0.0404,0.0839,0.1416,-0.0084,0.0430,0.0124,3.1017,1.4520,3.0083
2024-10-11T13:44:25.352Z,0.0101,-0.9997,0.1089,0.0684,0.0657,0.0443,-0.0057,0.0391,0.0094,3.0990,1.4524,3.0120
2024-10-11T13:44:25.362Z,0.0106,-1.0020,0.1045,0.0684,0.0657,0.0443,-0.0056,0.0400,0.0081,3.0990,1.4524,3.0120
2024-10-11T13:44:25.372Z,0.0152,-0.9981,0.1161,0.0684,0.0657,0.0443,-0.0101,0.0442,0.0049,3.0990,1.4524,3.0120
2024-10-11T13:44:25.382Z,0.0112,-0.9915,0.1227,0.0009,0.0036,-0.0319,-0.0108,0.0419,0.0063,3.0971,1.4527,3.0149
2024-10-11T13:44:25.392Z,0.0013,-0.9908,0.1223,0.0009,0.0036,-0.0319,-0.0117,0.0411,0.0047,3.0971,1.4527,3.0149
2024-10-11T13:44:25.402Z,0.0032,-0.9842,0.1211,0.0009,0.0036,-0.0319,-0.0137,0.0432,0.0004,3.0971,1.4527,3.0149
2024-10-11T13:44:25.412Z,0.0049,-0.9801,0.1220,0.1032,-0.1131,-0.0396,-0.0188,0.0406,-0.0017,3.0962,1.4531,3.0168
2024-10-11T13:44:25.422Z,0.0059,-0.9774,0.1327,0.1032,-0.1131,-0.0396,-0.0198,0.0429,-0.0027,3.0962,1.4531,3.0168
2024-10-11T13:44:25.432Z,0.0145,-0.9803,0.1293,0.1032,-0.1131,-0.0396,-0.0216,0.0425,-0.0037,3.0962,1.4531,3.0168
2024-10-11T13:44:25.442Z,0.0116,-0.9830,0.1317,0.0019,-0.1093,-0.1363,-0.0215,0.0423,-0.0076,3.0967,1.4537,3.0173
2024-10-11T13:44:25.451Z,0.0120,-0.9881,0.1204,0.0019,-0.1093,-0.1363,-0.0215,0.0423,-0.0063,3.0967,1.4537,3.0173
2024-10-11T13:44:25.462Z,0.0122,-0.9926,0.1117,0.0019,-0.1093,-0.1363,-0.0212,0.0372,-0.0075,3.0967,1.4537,3.0173
2024-10-11T13:44:25.472Z,0.0083,-0.9951,0.1040,0.0459,0.0089,0.1027,-0.0207,0.0359,-0.0108,3.0989,1.4542,3.0160
2024-10-11T13:44:25.482Z,0.0045,-0.9980,0.0995,0.0459,0.0089,0.1027,-0.0193,0.0313,-0.0148,3.0989,1.4542,3.0160
2024-10-11T13:44:25.492Z,0.0092,-1.0008,0.0979,0.0459,0.0089,0.1027,-0.0177,0.0284,-0.0165,3.0989,1.4542,3.0160
2024-10-11T13:44:25.502Z,0.0133,-1.0026,0.1030,0.0254,0.0861,0.1079,-0.0151,0.0186,-0.0194,3.1025,1.4547,3.0130
2024-10-11T13:44:25.512Z,0.0137,-1.0027,0.1015,0.0254,0.0861,0.1079,-0.0157,0.0167,-0.0210,3.1025,1.4547,3.0130
2024-10-11T13:44:25.522Z,0.0178,-1.0095,0.0969,0.0254,0.0861,0.1079,-0.0140,0.0149,-0.0243,3.1025,1.4547,3.0130
2024-10-11T13:44:25.532Z,0.0262,-1.0150,0.0970,-0.0803,0.1927,0.1801,-0.0116,0.0101,-0.0230,3.1076,1.4550,3.0082
2024-10-11T13:44:25.542Z,0.0275,-1.0185,0.0933,-0.0803,0.1927,0.1801,-0.0082,0.0035,-0.0209,3.1076,1.4550,3.0082
2024-10-11T13:44:25.552Z,0.0288,-1.0231,0.0872,-0.0803,0.1927,0.1801,-0.0067,0.0020,-0.0218,3.1076,1.4550,3.0082
2024-10-11T13:44:25.562Z,0.0201,-1.0188,0.0826,-0.0714,0.2823,0.3404,-0.0039,-0.0036,-0.0244,3.1128,1.4551,3.0029
2024-10-11T13:44:25.572Z,0.0205,-1.0069,0.0939,-0.0714,0.2823,0.3404,-0.0012,-0.0035,-0.0233,3.1128,1.4551,3.0029
2024-10-11T13:44:25.582Z,0.0256,-0.9962,0.0986,-0.0714,0.2823,0.3404,-0.0015,-0.0064,-0.0227,3.1128,1.4551,3.0029
2024-10-11T13:44:25.592Z,0.0312,-0.9902,0.0954,-0.1294,-0.0002,0.1650,0.0005,-0.0077,-0.0240,3.1183,1.4550,2.9971
2024-10-11T13:44:25.602Z,0.0336,-0.9833,0.1001,-0.1294,-0.0002,0.1650,0.0008,-0.0120,-0.0198,3.1183,1.4550,2.9971
2024-10-11T13:44:25.612Z,0.0363,-0.9730,0.1001,-0.1294,-0.0002,0.1650,-0.0015,-0.0097,-0.0195,3.1183,1.4550,2.9971
2024-10-11T13:44:25.622Z,0.0430,-0.9669,0.1095,-0.2391,-0.2457,0.0843,-0.0042,-0.0100,-0.0159,3.1231,1.4549,2.9918
2024-10-11T13:44:25.632Z,0.0412,-0.9569,0.1155,-0.2391,-0.2457,0.0843,-0.0041,-0.0127,-0.0145,3.1231,1.4549,2.9918
2024-10-11T13:44:25.642Z,0.0373,-0.9546,0.1218,-0.2391,-0.2457,0.0843,-0.0026,-0.0213,-0.0117,3.1231,1.4549,2.9918
2024-10-11T13:44:25.652Z,0.0380,-0.9603,0.1129,-0.1831,-0.3428,-0.0170,-0.0029,-0.0296,-0.0099,3.1266,1.4550,2.9874
2024-10-11T13:44:25.662Z,0.0448,-0.9619,0.1052,-0.1831,-0.3428,-0.0170,-0.0014,-0.0328,-0.0053,3.1266,1.4550,2.9874
2024-10-11T13:44:25.672Z,0.0510,-0.9637,0.1017,-0.1831,-0.3428,-0.0170,0.0022,-0.0381,-0.0034,3.1266,1.4550,2.9874
2024-10-11T13:44:25.683Z,0.0438,-0.9645,0.1038,-0.3406,-0.2666,0.1405,0.0061,-0.0414,-0.0005,3.1279,1.4550,2.9848
2024-10-11T13:44:25.693Z,0.0480,-0.9682,0.0998,-0.3406,-0.2666,0.1405,0.0110,-0.0421,0.0057,3.1279,1.4550,2.9848
2024-10-11T13:44:25.703Z,0.0468,-0.9751,0.1018,-0.3406,-0.2666,0.1405,0.0148,-0.0464,0.0072,3.1279,1.4550,2.9848
2024-10-11T13:44:25.712Z,0.0468,-0.9751,0.1018,-0.2895,-0.2086,0.1207,0.0179,-0.0519,0.0096,3.1267,1.4547,2.9845
2024-10-11T13:44:25.722Z,0.0438,-0.9778,0.0988,-0.2895,-0.2086,0.1207,0.0206,-0.0475,0.0119,3.1267,1.4547,2.9845
2024-10-11T13:44:25.732Z,0.0378,-0.9718,0.1066,-0.2895,-0.2086,0.1207,0.0226,-0.0476,0.0148,3.1267,1.4547,2.9845
2024-10-11T13:44:25.742Z,0.0340,-0.9650,0.1153,-0.1536,-0.2558,0.0357,0.0232,-0.0467,0.0165,3.1226,1.4541,2.9868
2024-10-11T13:44:25.752Z,0.0312,-0.9601,0.1183,-0.1536,-0.2558,0.0357,0.0245,-0.0469,0.0204,3.1226,1.4541,2.9868
2024-10-11T13:44:25.762Z,0.0284,-0.9599,0.1205,-0.1536,-0.2558,0.0357,0.0289,-0.0435,0.0210,3.1226,1.4541,2.9868
2024-10-11T13:44:25.773Z,0.0252,-0.9770,0.1121,-0.1043,-0.2954,-0.0473,0.0284,-0.0412,0.0206,3.1172,1.4534,2.9905
2024-10-11T13:44:25.783Z,0.0154,-0.9784,0.1133,-0.1043,-0.2954,-0.0473,0.0295,-0.0402,0.0197,3.1172,1.4534,2.9905
2024-10-11T13:44:25.792Z,0.0154,-0.9784,0.1133,-0.1043,-0.2954,-0.0473,0.0281,-0.0372,0.0217,3.1172,1.4534,2.9905
2024-10-11T13:44:25.803Z,0.0134,-0.9821,0.1203,0.0077,-0.1333,-0.0132,0.0278,-0.0324,0.0229,3.1105,1.4526,2.9957
2024-10-11T13:44:25.812Z,0.0134,-0.9821,0.1203,0.0077,-0.1333,-0.0132,0.0258,-0.0284,0.0223,3.1105,1.4526,2.9957
2024-10-11T13:44:25.821Z,0.0154,-0.9828,0.1236,0.0077,-0.1333,-0.0132,0.0238,-0.0254,0.0240,3.1105,1.4526,2.9957
2024-10-11T13:44:25.831Z,0.0191,-0.9861,0.1203,-0.0277,-0.0766,-0.0103,0.0204,-0.0189,0.0201,3.1036,1.4519,3.0014
2024-10-11T13:44:25.843Z,0.0140,-0.9821,0.1258,-0.0277,-0.0766,-0.0103,0.0206,-0.0184,0.0205,3.1036,1.4519,3.0014
2024-10-11T13:44:25.851Z,0.0140,-0.9821,0.1258,-0.0277,-0.0766,-0.0103,0.0186,-0.0119,0.0177,3.1036,1.4519,3.0014
2024-10-11T13:44:25.862Z,0.0175,-0.9802,0.1301,-0.0232,-0.1150,-0.1021,0.0162,-0.0017,0.0160,3.0976,1.4514,3.0066
2024-10-11T13:44:25.873Z,0.0110,-0.9831,0.1257,-0.0232,-0.1150,-0.1021,0.0138,0.0074,0.0136,3.0976,1.4514,3.0066
2024-10-11T13:44:25.881Z,0.0110,-0.9831,0.1257,-0.0232,-0.1150,-0.1021,0.0105,0.0139,0.0151,3.0976,1.4514,3.0066
2024-10-11T13:44:25.893Z,0.0048,-0.9949,0.1223,0.0744,-0.0758,-0.0932,0.0077,0.0240,0.0075,3.0934,1.4511,3.0108
2024-10-11T13:44:25.903Z,0.0030,-0.9921,0.1291,0.0744,-0.0758,-0.0932,0.0038,0.0307,0.0077,3.0934,1.4511,3.0108
2024-10-11T13:44:25.914Z,0.0030,-0.9921,0.1291,0.1192,-0.0293,-0.1415,0.0032,0.0394,0.0046,3.0914,1.4510,3.0136
2024-10-11T13:44:25.922Z,0.0083,-0.9871,0.1343,0.1192,-0.0293,-0.1415,-0.0067,0.0513,-0.0016,3.0914,1.4510,3.0136
2024-10-11T13:44:25.932Z,0.0083,-0.9871,0.1343,0.1192,-0.0293,-0.1415,-0.0115,0.0668,-0.0039,3.0914,1.4510,3.0136
2024-10-11T13:44:25.943Z,0.0027,-1.0001,0.1164,0.1192,-0.0293,-0.1415,-0.0133,0.0774,-0.0085,3.0914,1.4510,3.0136
2024-10-11T13:44:25.953Z,0.0071,-1.0145,0.1095,0.1423,0.0262,-0.0326,-0.0098,0.0823,-0.0146,3.0928,1.4512,3.0139
2024-10-11T13:44:25.963Z,0.0068,-1.0294,0.0946,0.1423,0.0262,-0.0326,-0.0047,0.0839,-0.0178,3.0928,1.4512,3.0139
2024-10-11T13:44:25.973Z,0.0166,-1.0387,0.0932,0.0228,0.4268,0.2424,-0.0016,0.0853,-0.0197,3.0970,1.4512,3.0121
2024-10-11T13:44:25.983Z,0.0143,-1.0377,0.0963,0.0228,0.4268,0.2424,0.0031,0.0861,-0.0231,3.0970,1.4512,3.0121
2024-10-11T13:44:25.993Z,0.0168,-1.0377,0.0993,0.0228,0.4268,0.2424,0.0079,0.0897,-0.0269,3.0970,1.4512,3.0121
2024-10-11T13:44:26.003Z,0.0240,-1.0308,0.0985,0.0228,0.4268,0.2424,0.0130,0.0973,-0.0293,3.0970,1.4512,3.0121
2024-10-11T13:44:26.012Z,0.0240,-1.0308,0.0985,-0.0476,0.4020,0.2148,0.0188,0.1026,-0.0299,3.1027,1.4508,3.0089
2024-10-11T13:44:26.022Z,0.0305,-1.0209,0.1043,-0.0476,0.4020,0.2148,0.0203,0.1103,-0.0348,3.1027,1.4508,3.0089
2024-10-11T13:44:26.033Z,0.0364,-1.0186,0.1174,-0.0476,0.4020,0.2148,0.0206,0.1119,-0.0360,3.1027,1.4508,3.0089
2024-10-11T13:44:26.042Z,0.0404,-1.0177,0.1190,-0.1693,0.2619,0.0546,0.0212,0.1104,-0.0357,3.1104,1.4500,3.0043
2024-10-11T13:44:26.053Z,0.0390,-1.0226,0.1139,-0.1693,0.2619,0.0546,0.0218,0.1097,-0.0354,3.1104,1.4500,3.0043
2024-10-11T13:44:26.064Z,0.0390,-1.0226,0.1139,-0.2434,0.2985,0.0262,0.0172,0.1025,-0.0346,3.1182,1.4493,2.9995
2024-10-11T13:44:26.073Z,0.0394,-1.0294,0.1162,-0.2434,0.2985,0.0262,0.0184,0.0945,-0.0349,3.1182,1.4493,2.9995
2024-10-11T13:44:26.082Z,0.0448,-1.0304,0.1225,-0.2434,0.2985,0.0262,0.0149,0.0805,-0.0333,3.1182,1.4493,2.9995
2024-10-11T13:44:26.093Z,0.0491,-1.0235,0.1329,-0.2434,0.2985,0.0262,0.0108,0.0753,-0.0318,3.1182,1.4493,2.9995
2024-10-11T13:44:26.102Z,0.0537,-1.0149,0.1439,-0.2952,0.3370,-0.0606,0.0050,0.0662,-0.0321,3.1259,1.4487,2.9940
2024-10-11T13:44:26.113Z,0.0574,-1.0118,0.1467,-0.2952,0.3370,-0.0606,0.0035,0.0571,-0.0274,3.1259,1.4487,2.9940
2024-10-11T13:44:26.122Z,0.0509,-1.0151,0.1402,-0.2952,0.3370,-0.0606,-0.0024,0.0545,-0.0304,3.1259,1.4487,2.9940
2024-10-11T13:44:26.132Z,0.0526,-1.0146,0.1402,-0.3398,0.2114,-0.2246,-0.0028,0.0446,-0.0271,3.1326,1.4485,2.9888
2024-10-11T13:44:26.142Z,0.0474,-1.0144,0.1352,-0.3398,0.2114,-0.2246,-0.0015,0.0395,-0.0263,3.1326,1.4485,2.9888
2024-10-11T13:44:26.152Z,0.0474,-1.0069,0.1434,-0.3398,0.2114,-0.2246,-0.0053,0.0309,-0.0238,3.1326,1.4485,2.9888
2024-10-11T13:44:26.162Z,0.0474,-1.0069,0.1434,-0.2735,0.1641,-0.1915,-0.0072,0.0201,-0.0197,3.1385,1.4485,2.9837
2024-10-11T13:44:26.172Z,0.0531,-0.9951,0.1415,-0.2735,0.1641,-0.1915,-0.0143,0.0112,-0.0174,3.1385,1.4485,2.9837
2024-10-11T13:44:26.183Z,0.0540,-0.9890,0.1421,-0.2735,0.1641,-0.1915,-0.0208,0.0040,-0.0119,3.1385,1.4485,2.9837
2024-10-11T13:44:26.193Z,0.0547,-0.9807,0.1385,-0.3272,-0.0046,-0.2132,-0.0230,-0.0043,-0.0100,-3.1404,1.4488,2.9796
2024-10-11T13:44:26.202Z,0.0472,-0.9736,0.1303,-0.3272,-0.0046,-0.2132,-0.0249,-0.0148,-0.0055,-3.1404,1.4488,2.9796
2024-10-11T13:44:26.214Z,0.0472,-0.9736,0.1303,-0.2465,-0.1832,-0.0684,-0.0313,-0.0194,-0.0045,-3.1384,1.4496,2.9768
2024-10-11T13:44:26.222Z,0.0352,-0.9726,0.1230,-0.2465,-0.1832,-0.0684,-0.0347,-0.0298,-0.0023,-3.1384,1.4496,2.9768
2024-10-11T13:44:26.232Z,0.0277,-0.9778,0.1245,-0.2465,-0.1832,-0.0684,-0.0337,-0.0354,-0.0010,-3.1384,1.4496,2.9768
2024-10-11T13:44:26.244Z,0.0276,-0.9832,0.1165,-0.0636,-0.1110,-0.0086,-0.0342,-0.0404,-0.0008,-3.1367,1.4505,2.9738
2024-10-11T13:44:26.252Z,0.0319,-0.9847,0.1111,-0.0636,-0.1110,-0.0086,-0.0350,-0.0447,0.0003,-3.1367,1.4505,2.9738
2024-10-11T13:44:26.262Z,0.0319,-0.9847,0.1111,-0.0636,-0.1110,-0.0086,-0.0320,-0.0475,0.0050,-3.1367,1.4505,2.9738
2024-10-11T13:44:26.273Z,0.0343,-0.9873,0.1042,-0.1546,-0.0412,0.1220,-0.0359,-0.0423,0.0069,-3.1362,1.4515,2.9717
2024-10-11T13:44:26.282Z,0.0344,-0.9903,0.1084,-0.1546,-0.0412,0.1220,-0.0327,-0.0451,0.0072,-3.1362,1.4515,2.9717
2024-10-11T13:44:26.292Z,0.0314,-0.9953,0.1031,-0.1546,-0.0412,0.1220,-0.0321,-0.0457,0.0075,-3.1362,1.4515,2.9717
2024-10-11T13:44:26.302Z,0.0207,-0.9973,0.1087,-0.1546,-0.0412,0.1220,-0.0298,-0.0490,0.0085,-3.1362,1.4515,2.9717
2024-10-11T13:44:26.314Z,0.0227,-0.9910,0.1091,-0.0420,0.0452,0.0918,-0.0289,-0.0516,0.0101,-3.1367,1.4524,2.9704
2024-10-11T13:44:26.322Z,0.0247,-0.9841,0.1087,-0.0420,0.0452,0.0918,-0.0309,-0.0505,0.0091,-3.1367,1.4524,2.9704
2024-10-11T13:44:26.333Z,0.0260,-0.9828,0.1164,-0.0357,-0.1176,0.0288,-0.0273,-0.0544,0.0135,-3.1381,1.4533,2.9700
2024-10-11T13:44:26.342Z,0.0284,-0.9861,0.1165,-0.0357,-0.1176,0.0288,-0.0290,-0.0516,0.0130,-3.1381,1.4533,2.9700
2024-10-11T13:44:26.352Z,0.0280,-0.9915,0.1189,-0.0357,-0.1176,0.0288,-0.0279,-0.0501,0.0125,-3.1381,1.4533,2.9700
2024-10-11T13:44:26.364Z,0.0316,-0.9932,0.1199,-0.0898,-0.0049,-0.0646,-0.0293,-0.0472,0.0149,-3.1405,1.4542,2.9705
2024-10-11T13:44:26.373Z,0.0328,-0.9897,0.1183,-0.0898,-0.0049,-0.0646,-0.0249,-0.0461,0.0164,-3.1405,1.4542,2.9705
2024-10-11T13:44:26.382Z,0.0259,-0.9858,0.1211,-0.0898,-0.0049,-0.0646,-0.0263,-0.0428,0.0175,-3.1405,1.4542,2.9705
2024-10-11T13:44:26.392Z,0.0259,-0.9823,0.1113,-0.0898,-0.0049,-0.0646,-0.0218,-0.0384,0.0207,-3.1405,1.4542,2.9705
2024-10-11T13:44:26.402Z,0.0271,-0.9771,0.1118,-0.0492,-0.0904,-0.0248,-0.0225,-0.0347,0.0216,3.1388,1.4550,2.9729
2024-10-11T13:44:26.412Z,0.0309,-0.9768,0.1118,-0.0492,-0.0904,-0.0248,-0.0168,-0.0315,0.0229,3.1388,1.4550,2.9729
2024-10-11T13:44:26.424Z,0.0375,-0.9778,0.1112,-0.1784,-0.1446,0.0261,-0.0200,-0.0242,0.0262,3.1335,1.4557,2.9770
2024-10-11T13:44:26.432Z,0.0311,-0.9760,0.1088,-0.1784,-0.1446,0.0261,-0.0175,-0.0216,0.0281,3.1335,1.4557,2.9770
2024-10-11T13:44:26.442Z,0.0295,-0.9775,0.1084,-0.1784,-0.1446,0.0261,-0.0162,-0.0225,0.0313,3.1335,1.4557,2.9770
2024-10-11T13:44:26.453Z,0.0242,-0.9794,0.1091,-0.0946,-0.1428,0.0475,-0.0143,-0.0156,0.0310,3.1263,1.4563,2.9833
2024-10-11T13:44:26.463Z,0.0303,-0.9818,0.1106,-0.0946,-0.1428,0.0475,-0.0144,-0.0121,0.0340,3.1263,1.4563,2.9833
2024-10-11T13:44:26.472Z,0.0328,-0.9822,0.1069,-0.0946,-0.1428,0.0475,-0.0137,-0.0053,0.0335,3.1263,1.4563,2.9833
2024-10-11T13:44:26.482Z,0.0288,-0.9813,0.1037,-0.0946,-0.1428,0.0475,-0.0124,-0.0027,0.0339,3.1263,1.4563,2.9833
2024-10-11T13:44:26.492Z,0.0303,-0.9768,0.1024,-0.1198,-0.1124,0.0795,-0.0134,-0.0005,0.0356,3.1178,1.4569,2.9913
2024-10-11T13:44:26.502Z,0.0181,-0.9752,0.1095,-0.1198,-0.1124,0.0795,-0.0091,-0.0020,0.0374,3.1178,1.4569,2.9913
2024-10-11T13:44:26.514Z,0.0162,-0.9755,0.1090,0.0200,-0.1827,0.0201,-0.0090,-0.0044,0.0318,3.1087,1.4572,3.0000
2024-10-11T13:44:26.522Z,0.0176,-0.9792,0.1122,0.0200,-0.1827,0.0201,-0.0051,-0.0078,0.0358,3.1087,1.4572,3.0000
2024-10-11T13:44:26.532Z,0.0143,-0.9844,0.1203,0.0200,-0.1827,0.0201,-0.0054,-0.0075,0.0334,3.1087,1.4572,3.0000
2024-10-11T13:44:26.542Z,0.0210,-0.9959,0.1112,-0.0407,-0.0168,-0.0299,-0.0019,-0.0115,0.0325,3.1001,1.4575,3.0080
2024-10-11T13:44:26.552Z,0.0157,-1.0029,0.1117,-0.0407,-0.0168,-0.0299,-0.0034,-0.0100,0.0285,3.1001,1.4575,3.0080
2024-10-11T13:44:26.563Z,0.0190,-1.0051,0.1153,-0.0407,-0.0168,-0.0299,0.0014,-0.0192,0.0293,3.1001,1.4575,3.0080
2024-10-11T13:44:26.573Z,0.0190,-1.0051,0.1153,-0.0657,0.1207,-0.0496,0.0005,-0.0233,0.0272,3.0924,1.4576,3.0148
2024-10-11T13:44:26.582Z,0.0235,-1.0085,0.1206,-0.0657,0.1207,-0.0496,0.0029,-0.0282,0.0282,3.0924,1.4576,3.0148
2024-10-11T13:44:26.592Z,0.0254,-1.0084,0.1259,-0.0657,0.1207,-0.0496,0.0012,-0.0245,0.0246,3.0924,1.4576,3.0148
2024-10-11T13:44:26.604Z,0.0224,-1.0085,0.1287,-0.0850,0.1446,-0.1430,-0.0019,-0.0299,0.0258,3.0855,1.4577,3.0205
2024-10-11T13:44:26.614Z,0.0245,-1.0088,0.1323,-0.0850,0.1446,-0.1430,-0.0049,-0.0320,0.0250,3.0855,1.4577,3.0205
2024-10-11T13:44:26.622Z,0.0183,-1.0080,0.1330,-0.0850,0.1446,-0.1430,-0.0065,-0.0376,0.0196,3.0855,1.4577,3.0205
2024-10-11T13:44:26.633Z,0.0121,-1.0082,0.1394,-0.0015,0.1354,-0.2573,-0.0088,-0.0439,0.0177,3.0801,1.4579,3.0244
2024-10-11T13:44:26.642Z,0.0168,-1.0141,0.1359,-0.0015,0.1354,-0.2573,-0.0068,-0.0527,0.0159,3.0801,1.4579,3.0244
2024-10-11T13:44:26.652Z,0.0168,-1.0182,0.1384,-0.0015,0.1354,-0.2573,-0.0108,-0.0560,0.0161,3.0801,1.4579,3.0244
2024-10-11T13:44:26.665Z,0.0224,-1.0191,0.1339,-0.0746,0.2433,-0.2376,-0.0085,-0.0621,0.0106,3.0766,1.4581,3.0260
2024-10-11T13:44:26.672Z,0.0185,-1.0172,0.1261,-0.0746,0.2433,-0.2376,-0.0111,-0.0636,0.0091,3.0766,1.4581,3.0260
2024-10-11T13:44:26.681Z,0.0124,-1.0105,0.1235,-0.0746,0.2433,-0.2376,-0.0089,-0.0671,0.0052,3.0766,1.4581,3.0260
2024-10-11T13:44:26.692Z,0.0113,-1.0018,0.1184,0.0113,0.1133,-0.0987,-0.0088,-0.0703,0.0028,3.0752,1.4584,3.0250
2024-10-11T13:44:26.702Z,0.0129,-0.9996,0.1158,0.0113,0.1133,-0.0987,-0.0092,-0.0760,0.0000,3.0752,1.4584,3.0250
2024-10-11T13:44:26.712Z,0.0135,-0.9981,0.1079,0.0113,0.1133,-0.0987,-0.0104,-0.0816,-0.0045,3.0752,1.4584,3.0250
2024-10-11T13:44:26.723Z,0.0083,-0.9928,0.1140,0.0216,0.0106,-0.0267,-0.0083,-0.0868,-0.0053,3.0764,1.4586,3.0211
2024-10-11T13:44:26.731Z,0.0108,-0.9891,0.1147,0.0216,0.0106,-0.0267,-0.0097,-0.0885,-0.0111,3.0764,1.4586,3.0211
2024-10-11T13:44:26.741Z,0.0136,-0.9879,0.1066,0.0216,0.0106,-0.0267,-0.0121,-0.0899,-0.0107,3.0764,1.4586,3.0211
2024-10-11T13:44:26.753Z,0.0183,-0.9846,0.1069,-0.0143,-0.0888,0.0451,-0.0123,-0.0906,-0.0124,3.0795,1.4588,3.0150
2024-10-11T13:44:26.763Z,0.0243,-0.9840,0.1071,-0.0143,-0.0888,0.0451,-0.0117,-0.0934,-0.0113,3.0795,1.4588,3.0150
2024-10-11T13:44:26.772Z,0.0274,-0.9869,0.1070,-0.0143,-0.0888,0.0451,-0.0110,-0.0896,-0.0154,3.0795,1.4588,3.0150
2024-10-11T13:44:26.783Z,0.0274,-0.9869,0.1070,-0.1423,-0.0722,0.0581,-0.0104,-0.0889,-0.0110,3.0828,1.4590,3.0088
2024-10-11T13:44:26.792Z,0.0204,-0.9861,0.1116,-0.1423,-0.0722,0.0581,-0.0078,-0.0840,-0.0102,3.0828,1.4590,3.0088
2024-10-11T13:44:26.802Z,0.0174,-0.9850,0.1162,-0.1423,-0.0722,0.0581,-0.0113,-0.0807,-0.0093,3.0828,1.4590,3.0088
2024-10-11T13:44:26.814Z,0.0126,-0.9834,0.1163,0.0003,-0.0976,-0.0634,-0.0123,-0.0779,-0.0114,3.0859,1.4593,3.0030
2024-10-11T13:44:26.822Z,0.0147,-0.9834,0.1116,0.0003,-0.0976,-0.0634,-0.0104,-0.0713,-0.0094,3.0859,1.4593,3.0030
2024-10-11T13:44:26.833Z,0.0228,-0.9878,0.1111,0.0003,-0.0976,-0.0634,-0.0091,-0.0705,-0.0088,3.0859,1.4593,3.0030
2024-10-11T13:44:26.842Z,0.0156,-0.9874,0.1127,-0.0138,-0.0555,0.0249,-0.0094,-0.0626,-0.0092,3.0889,1.4595,2.9977
2024-10-11T13:44:26.852Z,0.0217,-0.9901,0.1150,-0.0138,-0.0555,0.0249,-0.0103,-0.0550,-0.0083,3.0889,1.4595,2.9977
2024-10-11T13:44:26.863Z,0.0261,-0.9967,0.1102,-0.0138,-0.0555,0.0249,-0.0099,-0.0521,-0.0045,3.0889,1.4595,2.9977
2024-10-11T13:44:26.872Z,0.0228,-1.0036,0.1049,-0.0835,0.0908,0.0659,-0.0119,-0.0420,-0.0039,3.0906,1.4597,2.9943
2024-10-11T13:44:26.882Z,0.0172,-1.0070,0.1159,-0.0835,0.0908,0.0659,-0.0108,-0.0352,-0.0036,3.0906,1.4597,2.9943
2024-10-11T13:44:26.892Z,0.0139,-1.0074,0.1122,-0.0835,0.0908,0.0659,-0.0140,-0.0290,-0.0017,3.0906,1.4597,2.9943
2024-10-11T13:44:26.902Z,0.0203,-1.0045,0.1109,-0.0151,0.1247,-0.0153,-0.0116,-0.0266,0.0002,3.0913,1.4601,2.9925
2024-10-11T13:44:26.913Z,0.0225,-0.9952,0.1087,-0.0151,0.1247,-0.0153,-0.0148,-0.0154,-0.0000,3.0913,1.4601,2.9925
2024-10-11T13:44:26.922Z,0.0204,-0.9890,0.1108,-0.0151,0.1247,-0.0153,-0.0171,-0.0034,0.0054,3.0913,1.4601,2.9925
2024-10-11T13:44:26.933Z,0.0171,-0.9852,0.1114,-0.0071,-0.0793,-0.0276,-0.0201,0.0072,0.0055,3.0910,1.4607,2.9926
2024-10-11T13:44:26.942Z,0.0130,-0.9815,0.1030,-0.0071,-0.0793,-0.0276,-0.0212,0.0134,0.0055,3.0910,1.4607,2.9926
2024-10-11T13:44:26.952Z,0.0062,-0.9804,0.0992,-0.0071,-0.0793,-0.0276,-0.0229,0.0253,0.0044,3.0910,1.4607,2.9926
2024-10-11T13:44:26.963Z,0.0065,-0.9817,0.0897,0.0898,-0.1240,0.1058,-0.0188,0.0266,0.0027,3.0905,1.4613,2.9934
2024-10-11T13:44:26.972Z,0.0069,-0.9790,0.0838,0.0898,-0.1240,0.1058,-0.0187,0.0250,0.0023,3.0905,1.4613,2.9934
2024-10-11T13:44:26.982Z,0.0124,-0.9783,0.0752,0.0898,-0.1240,0.1058,-0.0165,0.0305,0.0033,3.0905,1.4613,2.9934
2024-10-11T13:44:26.992Z,0.0124,-0.9783,0.0752,0.0352,-0.1409,0.3227,-0.0138,0.0350,0.0054,3.0895,1.4617,2.9951
2024-10-11T13:44:27.002Z,0.0103,-0.9766,0.0741,0.0352,-0.1409,0.3227,-0.0113,0.0348,0.0048,3.0895,1.4617,2.9951
2024-10-11T13:44:27.013Z,0.0141,-0.9726,0.0676,0.0352,-0.1409,0.3227,-0.0121,0.0362,0.0049,3.0895,1.4617,2.9951
2024-10-11T13:44:27.022Z,0.0127,-0.9727,0.0613,0.0278,-0.2153,0.4383,-0.0076,0.0373,0.0048,3.0877,1.4620,2.9977
2024-10-11T13:44:27.032Z,0.0110,-0.9774,0.0593,0.0278,-0.2153,0.4383,-0.0024,0.0304,0.0078,3.0877,1.4620,2.9977
2024-10-11T13:44:27.042Z,0.0059,-0.9837,0.0600,0.0278,-0.2153,0.4383,0.0027,0.0284,0.0028,3.0877,1.4620,2.9977
2024-10-11T13:44:27.052Z,0.0013,-0.9896,0.0590,0.1218,-0.0652,0.4668,0.0080,0.0255,0.0041,3.0861,1.4620,2.9999
2024-10-11T13:44:27.065Z,-0.0007,-0.9957,0.0666,0.1218,-0.0652,0.4668,0.0087,0.0209,0.0008,3.0861,1.4620,2.9999
2024-10-11T13:44:27.072Z,0.0050,-0.9962,0.0766,0.1218,-0.0652,0.4668,0.0115,0.0175,-0.0013,3.0861,1.4620,2.9999
2024-10-11T13:44:27.082Z,0.0050,-0.9962,0.0766,0.0811,-0.0054,0.2263,0.0148,0.0171,-0.0038,3.0857,1.4617,3.0005
2024-10-11T13:44:27.092Z,0.0008,-0.9903,0.0932,0.0811,-0.0054,0.2263,0.0150,0.0164,-0.0049,3.0857,1.4617,3.0005
2024-10-11T13:44:27.101Z,0.0044,-0.9856,0.1057,0.0811,-0.0054,0.2263,0.0134,0.0130,-0.0068,3.0857,1.4617,3.0005
2024-10-11T13:44:27.112Z,0.0053,-0.9888,0.1074,0.1086,-0.0697,0.0250,0.0142,0.0132,-0.0069,3.0866,1.4613,2.9998
2024-10-11T13:44:27.122Z,0.0019,-0.9946,0.1054,0.1086,-0.0697,0.0250,0.0166,0.0133,-0.0086,3.0866,1.4613,2.9998
2024-10-11T13:44:27.132Z,0.0015,-0.9970,0.1085,0.1086,-0.0697,0.0250,0.0131,0.0149,-0.0078,3.0866,1.4613,2.9998
2024-10-11T13:44:27.142Z,0.0073,-1.0004,0.1058,0.0866,0.0436,0.0324,0.0166,0.0119,-0.0079,3.0879,1.4609,2.9987
2024-10-11T13:44:27.152Z,0.0051,-1.0039,0.1068,0.0866,0.0436,0.0324,0.0140,0.0126,-0.0108,3.0879,1.4609,2.9987
2024-10-11T13:44:27.162Z,0.0060,-1.0054,0.1009,0.0866,0.0436,0.0324,0.0162,0.0129,-0.0083,3.0879,1.4609,2.9987
2024-10-11T13:44:27.172Z,0.0042,-1.0047,0.1046,0.1109,0.0989,0.0707,0.0160,0.0131,-0.0094,3.0896,1.4604,2.9971
2024-10-11T13:44:27.182Z,0.0090,-1.0061,0.1038,0.1109,0.0989,0.0707,0.0162,0.0120,-0.0107,3.0896,1.4604,2.9971
2024-10-11T13:44:27.192Z,0.0096,-1.0068,0.1042,0.1109,0.0989,0.0707,0.0152,0.0101,-0.0117,3.0896,1.4604,2.9971
2024-10-11T13:44:27.203Z,0.0029,-0.9976,0.1070,0.1168,0.0733,0.0595,0.0187,0.0080,-0.0136,3.0916,1.4599,2.9952
2024-10-11T13:44:27.212Z,0.0073,-0.9917,0.1082,0.1168,0.0733,0.0595,0.0176,0.0102,-0.0150,3.0916,1.4599,2.9952
2024-10-11T13:44:27.222Z,0.0156,-0.9919,0.1050,0.1168,0.0733,0.0595,0.0153,0.0071,-0.0130,3.0916,1.4599,2.9952
2024-10-11T13:44:27.234Z,0.0087,-0.9925,0.1131,0.0439,-0.0231,-0.0045,0.0167,0.0094,-0.0160,3.0940,1.4593,2.9927
2024-10-11T13:44:27.242Z,-0.0001,-0.9949,0.1168,0.0439,-0.0231,-0.0045,0.0147,0.0095,-0.0147,3.0940,1.4593,2.9927
2024-10-11T13:44:27.252Z,0.0016,-0.9945,0.1156,0.0439,-0.0231,-0.0045,0.0142,0.0086,-0.0157,3.0940,1.4593,2.9927
2024-10-11T13:44:27.262Z,0.0066,-0.9933,0.1237,0.1065,-0.0032,-0.1025,0.0126,0.0028,-0.0191,3.0973,1.4588,2.9895
2024-10-11T13:44:27.273Z,-0.0016,-0.9905,0.1304,0.1065,-0.0032,-0.1025,0.0119,0.0027,-0.0188,3.0973,1.4588,2.9895
2024-10-11T13:44:27.281Z,-0.0003,-0.9890,0.1301,0.1065,-0.0032,-0.1025,0.0099,0.0065,-0.0201,3.0973,1.4588,2.9895
2024-10-11T13:44:27.292Z,0.0087,-0.9896,0.1341,0.1243,-0.0489,-0.2024,0.0029,0.0051,-0.0195,3.1019,1.4585,2.9849
2024-10-11T13:44:27.302Z,0.0169,-0.9933,0.1384,0.1243,-0.0489,-0.2024,0.0035,0.0134,-0.0197,3.1019,1.4585,2.9849
2024-10-11T13:44:27.312Z,0.0161,-0.9947,0.1331,0.1243,-0.0489,-0.2024,-0.0010,0.0172,-0.0191,3.1019,1.4585,2.9849
2024-10-11T13:44:27.322Z,0.0104,-0.9947,0.1275,0.0624,0.0270,-0.1752,-0.0042,0.0192,-0.0203,3.1064,1.4584,2.9806
2024-10-11T13:44:27.332Z,0.0195,-0.9879,0.1349,0.0624,0.0270,-0.1752,-0.0054,0.0211,-0.0182,3.1064,1.4584,2.9806
2024-10-11T13:44:27.342Z,0.0209,-0.9940,0.1355,0.0624,0.0270,-0.1752,-0.0089,0.0229,-0.0153,3.1064,1.4584,2.9806
2024-10-11T13:44:27.352Z,0.0144,-0.9980,0.1359,0.0320,0.0337,-0.2442,-0.0098,0.0288,-0.0164,3.1105,1.4586,2.9770
2024-10-11T13:44:27.362Z,0.0190,-1.0000,0.1365,0.0320,0.0337,-0.2442,-0.0142,0.0337,-0.0140,3.1105,1.4586,2.9770
2024-10-11T13:44:27.372Z,0.0213,-1.0017,0.1389,0.0320,0.0337,-0.2442,-0.0146,0.0386,-0.0116,3.1105,1.4586,2.9770
2024-10-11T13:44:27.383Z,0.0227,-1.0003,0.1376,-0.0271,0.0764,-0.2697,-0.0188,0.0420,-0.0124,3.1139,1.4590,2.9745
2024-10-11T13:44:27.392Z,0.0230,-0.9989,0.1382,-0.0271,0.0764,-0.2697,-0.0203,0.0496,-0.0130,3.1139,1.4590,2.9745
2024-10-11T13:44:27.402Z,0.0292,-0.9988,0.1385,-0.0271,0.0764,-0.2697,-0.0229,0.0504,-0.0103,3.1139,1.4590,2.9745
2024-10-11T13:44:27.412Z,0.0360,-0.9973,0.1303,-0.1534,0.0390,-0.2207,-0.0216,0.0551,-0.0056,3.1164,1.4595,2.9734
2024-10-11T13:44:27.422Z,0.0291,-0.9948,0.1308,-0.1534,0.0390,-0.2207,-0.0223,0.0624,-0.0014,3.1164,1.4595,2.9734
2024-10-11T13:44:27.432Z,0.0221,-0.9917,0.1262,-0.1534,0.0390,-0.2207,-0.0213,0.0660,-0.0015,3.1164,1.4595,2.9734
2024-10-11T13:44:27.442Z,0.0196,-0.9929,0.1162,-0.0333,-0.0241,-0.1069,-0.0219,0.0692,0.0013,3.1174,1.4601,2.9742
2024-10-11T13:44:27.452Z,0.0163,-0.9941,0.1124,-0.0333,-0.0241,-0.1069,-0.0182,0.0723,-0.0002,3.1174,1.4601,2.9742
2024-10-11T13:44:27.462Z,0.0247,-0.9969,0.1109,-0.0333,-0.0241,-0.1069,-0.0159,0.0745,-0.0014,3.1174,1.4601,2.9742
2024-10-11T13:44:27.472Z,0.0264,-1.0012,0.1012,-0.0676,0.0603,0.0583,-0.0147,0.0749,0.0026,3.1177,1.4605,2.9759
2024-10-11T13:44:27.482Z,0.0285,-0.9992,0.0962,-0.0676,0.0603,0.0583,-0.0153,0.0794,0.0040,3.1177,1.4605,2.9759
2024-10-11T13:44:27.493Z,0.0278,-0.9964,0.0992,-0.0676,0.0603,0.0583,-0.0126,0.0838,0.0050,3.1177,1.4605,2.9759
2024-10-11T13:44:27.502Z,0.0343,-0.9888,0.0976,-0.1282,-0.0236,0.1052,-0.0115,0.0872,0.0060,3.1168,1.4609,2.9790
2024-10-11T13:44:27.512Z,0.0403,-0.9881,0.0976,-0.1282,-0.0236,0.1052,-0.0129,0.0890,0.0074,3.1168,1.4609,2.9790
2024-10-11T13:44:27.522Z,0.0310,-0.9856,0.0985,-0.1282,-0.0236,0.1052,-0.0093,0.0911,0.0095,3.1168,1.4609,2.9790
2024-10-11T13:44:27.533Z,0.0224,-0.9848,0.1031,-0.0788,-0.0943,0.0626,-0.0070,0.0909,0.0089,3.1144,1.4612,2.9839
2024-10-11T13:44:27.542Z,0.0233,-0.9888,0.1020,-0.0788,-0.0943,0.0626,-0.0059,0.0902,0.0110,3.1144,1.4612,2.9839
2024-10-11T13:44:27.552Z,0.0226,-0.9895,0.0980,-0.0788,-0.0943,0.0626,-0.0067,0.0933,0.0108,3.1144,1.4612,2.9839
2024-10-11T13:44:27.562Z,0.0258,-0.9906,0.0953,-0.0567,-0.0440,0.1190,-0.0021,0.0976,0.0118,3.1114,1.4614,2.9895
2024-10-11T13:44:27.572Z,0.0287,-0.9923,0.0973,-0.0567,-0.0440,0.1190,-0.0018,0.1011,0.0096,3.1114,1.4614,2.9895
2024-10-11T13:44:27.582Z,0.0285,-0.9910,0.1021,-0.0567,-0.0440,0.1190,-0.0000,0.0969,0.0090,3.1114,1.4614,2.9895
2024-10-11T13:44:27.592Z,0.0285,-0.9891,0.1031,-0.1358,-0.0361,0.0391,-0.0014,0.0978,0.0096,3.1084,1.4614,2.9951
2024-10-11T13:44:27.602Z,0.0219,-0.9871,0.1109,-0.1358,-0.0361,0.0391,-0.0019,0.0929,0.0078,3.1084,1.4614,2.9951
2024-10-11T13:44:27.612Z,0.0202,-0.9910,0.1073,-0.1358,-0.0361,0.0391,0.0019,0.0891,0.0085,3.1084,1.4614,2.9951
2024-10-11T13:44:27.622Z,0.0221,-0.9941,0.1071,-0.0686,-0.0046,0.0126,0.0028,0.0885,0.0060,3.1059,1.4614,3.0000
2024-10-11T13:44:27.632Z,0.0235,-0.9939,0.1079,-0.0686,-0.0046,0.0126,-0.0001,0.0889,0.0040,3.1059,1.4614,3.0000
2024-10-11T13:44:27.642Z,0.0266,-0.9983,0.1081,-0.0686,-0.0046,0.0126,0.0014,0.0852,0.0045,3.1059,1.4614,3.0000
2024-10-11T13:44:27.652Z,0.0286,-0.9984,0.1107,-0.1271,0.0462,-0.0099,-0.0013,0.0870,0.0026,3.1041,1.4613,3.0040
2024-10-11T13:44:27.662Z,0.0274,-0.9985,0.1158,-0.1271,0.0462,-0.0099,-0.0001,0.0817,0.0054,3.1041,1.4613,3.0040
2024-10-11T13:44:27.672Z,0.0265,-0.9971,0.1145,-0.1271,0.0462,-0.0099,-0.0026,0.0788,0.0047,3.1041,1.4613,3.0040
2024-10-11T13:44:27.682Z,0.0202,-0.9962,0.1113,-0.0740,0.0292,-0.0492,-0.0032,0.0794,0.0020,3.1031,1.4614,3.0072
2024-10-11T13:44:27.692Z,0.0180,-0.9958,0.1099,-0.0740,0.0292,-0.0492,-0.0050,0.0770,-0.0008,3.1031,1.4614,3.0072
2024-10-11T13:44:27.702Z,0.0185,-0.9946,0.1060,-0.0740,0.0292,-0.0492,-0.0063,0.0792,-0.0021,3.1031,1.4614,3.0072
2024-10-11T13:44:27.712Z,0.0229,-0.9956,0.1005,-0.0738,0.0189,0.0566,-0.0043,0.0728,-0.0031,3.1037,1.4615,3.0086
2024-10-11T13:44:27.722Z,0.0250,-0.9909,0.0946,-0.0738,0.0189,0.0566,-0.0028,0.0706,-0.0059,3.1037,1.4615,3.0086
2024-10-11T13:44:27.732Z,0.0302,-0.9852,0.0920,-0.0738,0.0189,0.0566,-0.0031,0.0714,-0.0059,3.1037,1.4615,3.0086
2024-10-11T13:44:27.741Z,0.0316,-0.9824,0.0847,-0.1716,-0.1046,0.2184,-0.0021,0.0726,-0.0032,3.1048,1.4615,3.0094
2024-10-11T13:44:27.751Z,0.0299,-0.9823,0.0833,-0.1716,-0.1046,0.2184,-0.0011,0.0758,-0.0051,3.1048,1.4615,3.0094
2024-10-11T13:44:27.762Z,0.0349,-0.9807,0.0808,-0.1716,-0.1046,0.2184,-0.0005,0.0725,-0.0059,3.1048,1.4615,3.0094
2024-10-11T13:44:27.772Z,0.0226,-0.9802,0.0796,-0.1360,-0.1347,0.2800,0.0009,0.0726,-0.0051,3.1062,1.4615,3.0099
2024-10-11T13:44:27.782Z,0.0191,-0.9780,0.0814,-0.1360,-0.1347,0.2800,0.0034,0.0672,-0.0065,3.1062,1.4615,3.0099
2024-10-11T13:44:27.792Z,0.0156,-0.9807,0.0822,-0.1360,-0.1347,0.2800,0.0049,0.0626,-0.0102,3.1062,1.4615,3.0099
2024-10-11T13:44:27.802Z,0.0134,-0.9867,0.0864,0.0178,-0.0896,0.2381,0.0046,0.0597,-0.0137,3.1088,1.4613,3.0090
2024-10-11T13:44:27.812Z,0.0280,-0.9919,0.0861,0.0178,-0.0896,0.2381,0.0054,0.0552,-0.0142,3.1088,1.4613,3.0090
2024-10-11T13:44:27.822Z,0.0314,-0.9997,0.0890,0.0178,-0.0896,0.2381,0.0040,0.0561,-0.0131,3.1088,1.4613,3.0090
2024-10-11T13:44:27.832Z,0.0296,-1.0028,0.0970,-0.1469,0.0640,0.1265,0.0057,0.0545,-0.0136,3.1121,1.4611,3.0070
2024-10-11T13:44:27.842Z,0.0301,-1.0043,0.0987,-0.1469,0.0640,0.1265,0.0033,0.0494,-0.0137,3.1121,1.4611,3.0070
2024-10-11T13:44:27.852Z,0.0361,-0.9982,0.1066,-0.1469,0.0640,0.1265,-0.0002,0.0475,-0.0140,3.1121,1.4611,3.0070
2024-10-11T13:44:27.862Z,0.0396,-0.9988,0.1093,-0.2461,0.0230,-0.0157,0.0017,0.0419,-0.0124,3.1153,1.4609,3.0050
2024-10-11T13:44:27.872Z,0.0298,-1.0070,0.1113,-0.2461,0.0230,-0.0157,0.0012,0.0402,-0.0136,3.1153,1.4609,3.0050
2024-10-11T13:44:27.882Z,0.0340,-1.0111,0.1219,-0.2461,0.0230,-0.0157,-0.0024,0.0365,-0.0128,3.1153,1.4609,3.0050
2024-10-11T13:44:27.891Z,0.0368,-1.0128,0.1205,-0.2168,0.1864,-0.1417,-0.0037,0.0340,-0.0107,3.1182,1.4609,3.0029
2024-10-11T13:44:27.902Z,0.0334,-1.0126,0.1204,-0.2168,0.1864,-0.1417,-0.0072,0.0315,-0.0107,3.1182,1.4609,3.0029
2024-10-11T13:44:27.912Z,0.0263,-1.0089,0.1185,-0.2168,0.1864,-0.1417,-0.0074,0.0246,-0.0110,3.1182,1.4609,3.0029
2024-10-11T13:44:27.922Z,0.0260,-1.0069,0.1182,-0.0912,0.1234,-0.0998,-0.0078,0.0226,-0.0150,3.1218,1.4611,2.9999
2024-10-11T13:44:27.933Z,0.0300,-1.0071,0.1169,-0.0912,0.1234,-0.0998,-0.0105,0.0207,-0.0114,3.1218,1.4611,2.9999
2024-10-11T13:44:27.942Z,0.0283,-1.0082,0.1163,-0.0912,0.1234,-0.0998,-0.0123,0.0213,-0.0086,3.1218,1.4611,2.9999
2024-10-11T13:44:27.951Z,0.0251,-1.0063,0.1261,-0.0987,0.1232,-0.1487,-0.0162,0.0217,-0.0131,3.1253,1.4615,2.9968
2024-10-11T13:44:27.962Z,0.0262,-1.0074,0.1241,-0.0987,0.1232,-0.1487,-0.0196,0.0203,-0.0140,3.1253,1.4615,2.9968
2024-10-11T13:44:27.972Z,0.0216,-1.0065,0.1199,-0.0987,0.1232,-0.1487,-0.0194,0.0155,-0.0131,3.1253,1.4615,2.9968
2024-10-11T13:44:27.982Z,0.0161,-1.0051,0.1188,-0.0130,0.1067,-0.1303,-0.0194,0.0094,-0.0153,3.1296,1.4620,2.9927
2024-10-11T13:44:27.993Z,0.0178,-1.0040,0.1163,-0.0130,0.1067,-0.1303,-0.0239,0.0052,-0.0159,3.1296,1.4620,2.9927
2024-10-11T13:44:28.002Z,0.0210,-1.0035,0.1199,-0.0130,0.1067,-0.1303,-0.0239,0.0052,-0.0159,3.1296,1.4620,2.9927
2024-10-11T13:44:28.012Z,0.0238,-0.9969,0.1239,-0.0632,0.0567,-0.1580,-0.0303,0.0070,-0.0175,3.1345,1.4626,2.9878
2024-10-11T13:44:28.023Z,0.0232,-0.9931,0.1217,-0.0632,0.0567,-0.1580,-0.0315,-0.0016,-0.0182,3.1345,1.4626,2.9878
2024-10-11T13:44:28.032Z,0.0294,-0.9979,0.1182,-0.0632,0.0567,-0.1580,-0.0315,-0.0016,-0.0182,3.1345,1.4626,2.9878
2024-10-11T13:44:28.041Z,0.0333,-0.9967,0.1077,-0.1582,0.0278,-0.0488,-0.0281,-0.0016,-0.0157,3.1397,1.4634,2.9822
2024-10-11T13:44:28.051Z,0.0358,-0.9990,0.1025,-0.1582,0.0278,-0.0488,-0.0314,-0.0003,-0.0160,3.1397,1.4634,2.9822
2024-10-11T13:44:28.062Z,0.0391,-0.9998,0.0985,-0.1582,0.0278,-0.0488,-0.0257,0.0003,-0.0122,3.1397,1.4634,2.9822
2024-10-11T13:44:28.073Z,0.0375,-0.9975,0.1055,-0.2063,0.0536,0.0530,-0.0265,0.0007,-0.0091,-3.1394,1.4641,2.9780
2024-10-11T13:44:28.083Z,0.0350,-0.9897,0.1115,-0.2063,0.0536,0.0530,-0.0264,0.0016,-0.0078,-3.1394,1.4641,2.9780
2024-10-11T13:44:28.093Z,0.0374,-0.9944,0.0995,-0.2063,0.0536,0.0530,-0.0268,0.0020,-0.0068,-3.1394,1.4641,2.9780
2024-10-11T13:44:28.102Z,0.0427,-0.9918,0.1006,-0.2235,-0.0031,0.0622,-0.0268,0.0020,-0.0068,-3.1367,1.4648,2.9750
2024-10-11T13:44:28.113Z,0.0391,-0.9869,0.1048,-0.2235,-0.0031,0.0622,-0.0253,0.0030,-0.0001,-3.1367,1.4648,2.9750
2024-10-11T13:44:28.123Z,0.0450,-0.9866,0.1062,-0.2235,-0.0031,0.0622,-0.0249,0.0051,0.0020,-3.1367,1.4648,2.9750
2024-10-11T13:44:28.133Z,0.0490,-0.9826,0.1090,-0.3089,-0.1082,-0.0405,-0.0249,0.0051,0.0020,-3.1362,1.4655,2.9744
2024-10-11T13:44:28.142Z,0.0421,-0.9840,0.1034,-0.3089,-0.1082,-0.0405,-0.0225,0.0057,0.0055,-3.1362,1.4655,2.9744
2024-10-11T13:44:28.153Z,0.0460,-0.9842,0.0991,-0.3089,-0.1082,-0.0405,-0.0192,0.0083,0.0102,-3.1362,1.4655,2.9744
2024-10-11T13:44:28.162Z,0.0478,-0.9821,0.0941,-0.2875,-0.1035,0.0717,-0.0160,0.0072,0.0100,-3.1378,1.4661,2.9759
2024-10-11T13:44:28.173Z,0.0403,-0.9749,0.0957,-0.2875,-0.1035,0.0717,-0.0110,0.0021,0.0135,-3.1378,1.4661,2.9759
2024-10-11T13:44:28.183Z,0.0340,-0.9707,0.0956,-0.2875,-0.1035,0.0717,-0.0096,-0.0035,0.0136,-3.1378,1.4661,2.9759
2024-10-11T13:44:28.193Z,0.0393,-0.9634,0.0932,-0.2127,-0.2668,0.0787,-0.0073,-0.0061,0.0138,-3.1408,1.4665,2.9787
2024-10-11T13:44:28.203Z,0.0325,-0.9590,0.0988,-0.2127,-0.2668,0.0787,-0.0034,-0.0091,0.0157,-3.1408,1.4665,2.9787
2024-10-11T13:44:28.213Z,0.0329,-0.9545,0.0903,-0.2127,-0.2668,0.0787,-0.0001,-0.0150,0.0170,-3.1408,1.4665,2.9787
2024-10-11T13:44:28.223Z,0.0356,-0.9544,0.0838,-0.1876,-0.4009,0.1648,0.0013,-0.0165,0.0177,3.1384,1.4667,2.9821
2024-10-11T13:44:28.232Z,0.0361,-0.9542,0.0845,-0.1876,-0.4009,0.1648,0.0013,-0.0165,0.0177,3.1384,1.4667,2.9821
2024-10-11T13:44:28.242Z,0.0345,-0.9585,0.0786,-0.1876,-0.4009,0.1648,0.0072,-0.0236,0.0173,3.1384,1.4667,2.9821
2024-10-11T13:44:28.252Z,0.0320,-0.9662,0.0728,-0.1579,-0.3065,0.2912,0.0072,-0.0236,0.0173,3.1332,1.4666,2.9864
2024-10-11T13:44:28.263Z,0.0317,-0.9686,0.0722,-0.1579,-0.3065,0.2912,0.0184,-0.0328,0.0179,3.1332,1.4666,2.9864
2024-10-11T13:44:28.272Z,0.0285,-0.9695,0.0804,-0.1579,-0.3065,0.2912,0.0191,-0.0344,0.0203,3.1332,1.4666,2.9864
2024-10-11T13:44:28.283Z,0.0261,-0.9719,0.0803,-0.1059,-0.2348,0.2144,0.0223,-0.0353,0.0200,3.1269,1.4661,2.9914
2024-10-11T13:44:28.293Z,0.0240,-0.9779,0.0788,-0.1059,-0.2348,0.2144,0.0251,-0.0358,0.0170,3.1269,1.4661,2.9914
2024-10-11T13:44:28.302Z,0.0206,-0.9832,0.0867,-0.1059,-0.2348,0.2144,0.0280,-0.0399,0.0168,3.1269,1.4661,2.9914
2024-10-11T13:44:28.313Z,0.0137,-0.9878,0.0936,-0.0124,-0.0778,0.1349,0.0314,-0.0382,0.0146,3.1208,1.4655,2.9961
2024-10-11T13:44:28.322Z,0.0084,-0.9893,0.0967,-0.0124,-0.0778,0.1349,0.0310,-0.0409,0.0122,3.1208,1.4655,2.9961
2024-10-11T13:44:28.332Z,0.0058,-0.9927,0.1014,-0.0124,-0.0778,0.1349,0.0310,-0.0409,0.0122,3.1208,1.4655,2.9961
2024-10-11T13:44:28.342Z,0.0034,-0.9983,0.1002,0.1083,0.0152,0.0672,0.0365,-0.0442,0.0043,3.1166,1.4646,2.9987
2024-10-11T13:44:28.352Z,0.0045,-1.0019,0.1037,0.1083,0.0152,0.0672,0.0365,-0.0442,0.0043,3.1166,1.4646,2.9987
2024-10-11T13:44:28.363Z,0.0119,-1.0022,0.1097,0.1083,0.0152,0.0672,0.0340,-0.0482,-0.0015,3.1166,1.4646,2.9987
2024-10-11T13:44:28.372Z,0.0068,-1.0045,0.1170,0.0548,0.0887,-0.0913,0.0366,-0.0498,-0.0029,3.1147,1.4635,2.9989
2024-10-11T13:44:28.383Z,0.0067,-1.0063,0.1220,0.0548,0.0887,-0.0913,0.0366,-0.0498,-0.0029,3.1147,1.4635,2.9989
2024-10-11T13:44:28.392Z,0.0107,-1.0101,0.1252,0.0548,0.0887,-0.0913,0.0313,-0.0523,-0.0080,3.1147,1.4635,2.9989
2024-10-11T13:44:28.402Z,0.0119,-1.0150,0.1310,0.0400,0.1743,-0.2353,0.0259,-0.0478,-0.0109,3.1151,1.4625,2.9967
2024-10-11T13:44:28.413Z,0.0118,-1.0205,0.1231,0.0400,0.1743,-0.2353,0.0221,-0.0485,-0.0124,3.1151,1.4625,2.9967
2024-10-11T13:44:28.422Z,0.0094,-1.0214,0.1297,0.0400,0.1743,-0.2353,0.0234,-0.0497,-0.0160,3.1151,1.4625,2.9967
2024-10-11T13:44:28.432Z,0.0092,-1.0188,0.1304,0.0806,0.2569,-0.2351,0.0234,-0.0497,-0.0160,3.1176,1.4617,2.9925
2024-10-11T13:44:28.442Z,0.0174,-1.0159,0.1265,0.0806,0.2569,-0.2351,0.0179,-0.0431,-0.0164,3.1176,1.4617,2.9925
2024-10-11T13:44:28.452Z,0.0264,-1.0151,0.1227,0.0806,0.2569,-0.2351,0.0164,-0.0377,-0.0175,3.1176,1.4617,2.9925
2024-10-11T13:44:28.462Z,0.0279,-1.0192,0.1189,-0.1058,0.2332,-0.1447,0.0175,-0.0360,-0.0156,3.1213,1.4611,2.9874
2024-10-11T13:44:28.472Z,0.0329,-1.0188,0.1211,-0.1058,0.2332,-0.1447,0.0146,-0.0343,-0.0137,3.1213,1.4611,2.9874
2024-10-11T13:44:28.484Z,0.0318,-1.0164,0.1181,-0.1058,0.2332,-0.1447,0.0121,-0.0355,-0.0138,3.1213,1.4611,2.9874
2024-10-11T13:44:28.492Z,0.0293,-1.0119,0.1142,-0.1213,0.1946,-0.0638,0.0096,-0.0287,-0.0151,3.1247,1.4606,2.9828
2024-10-11T13:44:28.503Z,0.0270,-1.0071,0.1077,-0.1213,0.1946,-0.0638,0.0104,-0.0284,-0.0135,3.1247,1.4606,2.9828
2024-10-11T13:44:28.512Z,0.0303,-1.0079,0.1037,-0.1213,0.1946,-0.0638,0.0099,-0.0242,-0.0131,3.1247,1.4606,2.9828
2024-10-11T13:44:28.522Z,0.0279,-1.0083,0.1000,-0.1033,0.1558,0.1015,0.0080,-0.0257,-0.0132,3.1281,1.4603,2.9784
2024-10-11T13:44:28.534Z,0.0301,-1.0062,0.1055,-0.1033,0.1558,0.1015,0.0085,-0.0220,-0.0149,3.1281,1.4603,2.9784
2024-10-11T13:44:28.542Z,0.0341,-1.0034,0.1024,-0.1033,0.1558,0.1015,0.0035,-0.0193,-0.0120,3.1281,1.4603,2.9784
2024-10-11T13:44:28.552Z,0.0395,-1.0008,0.1034,-0.2014,0.0781,0.0520,0.0017,-0.0165,-0.0085,3.1310,1.4600,2.9746
2024-10-11T13:44:28.562Z,0.0431,-0.9971,0.1060,-0.2014,0.0781,0.0520,-0.0013,-0.0142,-0.0089,3.1310,1.4600,2.9746
2024-10-11T13:44:28.572Z,0.0425,-1.0002,0.1122,-0.2014,0.0781,0.0520,-0.0020,-0.0154,-0.0053,3.1310,1.4600,2.9746
2024-10-11T13:44:28.584Z,0.0464,-1.0018,0.1182,-0.2519,0.0649,-0.0615,-0.0064,-0.0132,-0.0028,3.1325,1.4599,2.9723
2024-10-11T13:44:28.592Z,0.0481,-1.0000,0.1122,-0.2519,0.0649,-0.0615,-0.0092,-0.0125,0.0007,3.1325,1.4599,2.9723
2024-10-11T13:44:28.602Z,0.0471,-0.9972,0.1204,-0.2519,0.0649,-0.0615,-0.0134,-0.0117,0.0036,3.1325,1.4599,2.9723
2024-10-11T13:44:28.612Z,0.0493,-0.9938,0.1203,-0.2901,0.0080,-0.1153,-0.0166,-0.0127,0.0076,3.1324,1.4602,2.9718
2024-10-11T13:44:28.622Z,0.0475,-0.9928,0.1235,-0.2901,0.0080,-0.1153,-0.0162,-0.0112,0.0080,3.1324,1.4602,2.9718
2024-10-11T13:44:28.633Z,0.0454,-0.9914,0.1144,-0.2901,0.0080,-0.1153,-0.0165,-0.0190,0.0098,3.1324,1.4602,2.9718
2024-10-11T13:44:28.641Z,0.0428,-0.9937,0.1187,-0.2477,-0.0024,-0.1061,-0.0171,-0.0193,0.0131,3.1308,1.4607,2.9727
2024-10-11T13:44:28.652Z,0.0443,-0.9960,0.1199,-0.2477,-0.0024,-0.1061,-0.0180,-0.0212,0.0129,3.1308,1.4607,2.9727
2024-10-11T13:44:28.662Z,0.0466,-0.9971,0.1156,-0.2477,-0.0024,-0.1061,-0.0208,-0.0247,0.0140,3.1308,1.4607,2.9727
2024-10-11T13:44:28.672Z,0.0415,-0.9955,0.1176,-0.2396,0.0101,-0.0764,-0.0230,-0.0251,0.0181,3.1278,1.4613,2.9748
2024-10-11T13:44:28.683Z,0.0436,-0.9957,0.1105,-0.2396,0.0101,-0.0764,-0.0230,-0.0298,0.0203,3.1278,1.4613,2.9748
2024-10-11T13:44:28.692Z,0.0395,-0.9916,0.1062,-0.2396,0.0101,-0.0764,-0.0237,-0.0329,0.0228,3.1278,1.4613,2.9748
2024-10-11T13:44:28.702Z,0.0331,-0.9893,0.0999,-0.1750,-0.0376,0.0362,-0.0218,-0.0329,0.0188,3.1235,1.4620,2.9779
2024-10-11T13:44:28.712Z,0.0299,-0.9918,0.0966,-0.1750,-0.0376,0.0362,-0.0243,-0.0390,0.0188,3.1235,1.4620,2.9779
2024-10-11T13:44:28.722Z,0.0215,-0.9932,0.0962,-0.1750,-0.0376,0.0362,-0.0194,-0.0394,0.0198,3.1235,1.4620,2.9779
2024-10-11T13:44:28.733Z,0.0185,-0.9951,0.0987,-0.0228,-0.0070,0.0685,-0.0211,-0.0434,0.0199,3.1192,1.4627,2.9808
2024-10-11T13:44:28.742Z,0.0200,-0.9946,0.0913,-0.0228,-0.0070,0.0685,-0.0192,-0.0412,0.0168,3.1192,1.4627,2.9808
2024-10-11T13:44:28.752Z,0.0194,-0.9949,0.0929,-0.0228,-0.0070,0.0685,-0.0193,-0.0401,0.0162,3.1192,1.4627,2.9808
2024-10-11T13:44:28.762Z,0.0169,-0.9912,0.0968,-0.0167,-0.0078,0.1239,-0.0177,-0.0402,0.0145,3.1152,1.4633,2.9833
2024-10-11T13:44:28.773Z,0.0157,-0.9917,0.1005,-0.0167,-0.0078,0.1239,-0.0144,-0.0392,0.0152,3.1152,1.4633,2.9833
2024-10-11T13:44:28.784Z,0.0151,-0.9905,0.1003,-0.0167,-0.0078,0.1239,-0.0135,-0.0388,0.0140,3.1152,1.4633,2.9833
2024-10-11T13:44:28.792Z,0.0107,-0.9887,0.0945,0.0486,-0.0460,0.0779,-0.0096,-0.0402,0.0108,3.1119,1.4638,2.9851
2024-10-11T13:44:28.802Z,0.0083,-0.9860,0.0963,0.0486,-0.0460,0.0779,-0.0112,-0.0405,0.0094,3.1119,1.4638,2.9851
2024-10-11T13:44:28.813Z,0.0073,-0.9892,0.0944,0.0486,-0.0460,0.0779,-0.0072,-0.0390,0.0083,3.1119,1.4638,2.9851
2024-10-11T13:44:28.822Z,0.0067,-0.9902,0.0961,0.0955,-0.0520,0.0804,-0.0030,-0.0415,0.0061,3.1096,1.4641,2.9858
2024-10-11T13:44:28.833Z,0.0050,-0.9948,0.0957,0.0955,-0.0520,0.0804,-0.0057,-0.0402,0.0020,3.1096,1.4641,2.9858
2024-10-11T13:44:28.842Z,0.0063,-0.9980,0.0989,0.0955,-0.0520,0.0804,-0.0025,-0.0407,0.0029,3.1096,1.4641,2.9858
2024-10-11T13:44:28.852Z,0.0107,-0.9959,0.1037,0.0711,0.0374,0.0311,-0.0031,-0.0382,0.0024,3.1087,1.4642,2.9852
2024-10-11T13:44:28.862Z,0.0184,-0.9928,0.1074,0.0711,0.0374,0.0311,-0.0060,-0.0357,0.0022,3.1087,1.4642,2.9852
2024-10-11T13:44:28.872Z,0.0143,-0.9914,0.1117,0.0711,0.0374,0.0311,-0.0055,-0.0326,0.0002,3.1087,1.4642,2.9852
2024-10-11T13:44:28.883Z,0.0079,-0.9925,0.1087,0.0801,-0.0181,-0.0577,-0.0063,-0.0354,-0.0013,3.1084,1.4643,2.9841
2024-10-11T13:44:28.892Z,0.0128,-0.9914,0.1063,0.0801,-0.0181,-0.0577,-0.0051,-0.0325,-0.0035,3.1084,1.4643,2.9841
2024-10-11T13:44:28.902Z,0.0024,-0.9940,0.1048,0.0801,-0.0181,-0.0577,-0.0048,-0.0322,-0.0053,3.1084,1.4643,2.9841
2024-10-11T13:44:28.912Z,0.0001,-0.9964,0.1062,0.1805,0.0173,-0.0019,-0.0032,-0.0344,-0.0045,3.1095,1.4644,2.9819
2024-10-11T13:44:28.922Z,0.0070,-0.9957,0.1023,0.1805,0.0173,-0.0019,-0.0038,-0.0322,-0.0090,3.1095,1.4644,2.9819
2024-10-11T13:44:28.933Z,0.0096,-1.0010,0.0965,0.1805,0.0173,-0.0019,-0.0030,-0.0290,-0.0091,3.1095,1.4644,2.9819
2024-10-11T13:44:28.941Z,0.0078,-1.0062,0.0883,0.0851,0.1052,0.1610,-0.0006,-0.0311,-0.0101,3.1112,1.4645,2.9790
2024-10-11T13:44:28.952Z,0.0147,-1.0050,0.0893,0.0851,0.1052,0.1610,-0.0004,-0.0313,-0.0106,3.1112,1.4645,2.9790
2024-10-11T13:44:28.962Z,0.0072,-1.0020,0.0931,0.0851,0.1052,0.1610,0.0033,-0.0297,-0.0095,3.1112,1.4645,2.9790
2024-10-11T13:44:28.972Z,0.0129,-1.0049,0.0912,0.1015,0.0861,0.1161,0.0028,-0.0268,-0.0121,3.1134,1.4644,2.9757
2024-10-11T13:44:28.984Z,0.0236,-1.0032,0.0835,0.1015,0.0861,0.1161,0.0066,-0.0267,-0.0081,3.1134,1.4644,2.9757
2024-10-11T13:44:28.992Z,0.0268,-1.0094,0.0764,0.1015,0.0861,0.1161,0.0060,-0.0240,-0.0098,3.1134,1.4644,2.9757
2024-10-11T13:44:29.003Z,0.0250,-1.0100,0.0794,-0.0826,0.1515,0.2522,0.0084,-0.0225,-0.0063,3.1149,1.4642,2.9732
2024-10-11T13:44:29.012Z,0.0261,-1.0057,0.0833,-0.0826,0.1515,0.2522,0.0089,-0.0203,-0.0060,3.1149,1.4642,2.9732
2024-10-11T13:44:29.022Z,0.0320,-1.0015,0.0910,-0.0826,0.1515,0.2522,0.0068,-0.0185,-0.0047,3.1149,1.4642,2.9732
2024-10-11T13:44:29.034Z,0.0223,-1.0016,0.0986,-0.0750,0.0682,0.0696,0.0075,-0.0195,-0.0012,3.1155,1.4640,2.9718
2024-10-11T13:44:29.042Z,0.0295,-0.9995,0.1037,-0.0750,0.0682,0.0696,0.0043,-0.0159,-0.0013,3.1155,1.4640,2.9718
2024-10-11T13:44:29.052Z,0.0266,-1.0004,0.1040,-0.0750,0.0682,0.0696,0.0044,-0.0170,0.0004,3.1155,1.4640,2.9718
2024-10-11T13:44:29.062Z,0.0168,-1.0072,0.1092,-0.0114,0.1095,-0.0457,-0.0008,-0.0199,0.0001,3.1155,1.4639,2.9710
2024-10-11T13:44:29.072Z,0.0209,-1.0078,0.1216,-0.0114,0.1095,-0.0457,-0.0030,-0.0180,0.0002,3.1155,1.4639,2.9710
2024-10-11T13:44:29.083Z,0.0252,-1.0084,0.1254,-0.0114,0.1095,-0.0457,-0.0060,-0.0136,-0.0016,3.1155,1.4639,2.9710
2024-10-11T13:44:29.091Z,0.0245,-1.0102,0.1247,-0.0680,0.1482,-0.1993,-0.0094,-0.0123,0.0041,3.1154,1.4640,2.9704
2024-10-11T13:44:29.102Z,0.0285,-1.0131,0.1248,-0.0680,0.1482,-0.1993,-0.0111,-0.0098,0.0055,3.1154,1.4640,2.9704
2024-10-11T13:44:29.111Z,0.0293,-1.0095,0.1296,-0.0680,0.1482,-0.1993,-0.0125,-0.0078,0.0068,3.1154,1.4640,2.9704
2024-10-11T13:44:29.122Z,0.0267,-1.0063,0.1293,-0.0859,0.1351,-0.2347,-0.0160,-0.0058,0.0053,3.1140,1.4644,2.9712
2024-10-11T13:44:29.133Z,0.0266,-1.0008,0.1285,-0.0859,0.1351,-0.2347,-0.0195,-0.0058,0.0108,3.1140,1.4644,2.9712
2024-10-11T13:44:29.142Z,0.0232,-0.9981,0.1284,-0.0859,0.1351,-0.2347,-0.0187,-0.0029,0.0100,3.1140,1.4644,2.9712
2024-10-11T13:44:29.152Z,0.0256,-1.0009,0.1229,-0.0758,0.0429,-0.1859,-0.0181,0.0009,0.0100,3.1118,1.4650,2.9730
2024-10-11T13:44:29.161Z,0.0236,-1.0084,0.1154,-0.0758,0.0429,-0.1859,-0.0194,-0.0009,0.0081,3.1118,1.4650,2.9730
2024-10-11T13:44:29.172Z,0.0273,-1.0094,0.1156,-0.0758,0.0429,-0.1859,-0.0180,-0.0011,0.0110,3.1118,1.4650,2.9730
2024-10-11T13:44:29.183Z,0.0208,-1.0058,0.1121,-0.0637,0.1215,-0.0852,-0.0165,0.0002,0.0125,3.1092,1.4655,2.9753
2024-10-11T13:44:29.192Z,0.0221,-1.0018,0.1024,-0.0637,0.1215,-0.0852,-0.0171,-0.0008,0.0136,3.1092,1.4655,2.9753
2024-10-11T13:44:29.203Z,0.0263,-0.9965,0.1052,-0.0637,0.1215,-0.0852,-0.0177,0.0006,0.0133,3.1092,1.4655,2.9753
2024-10-11T13:44:29.212Z,0.0146,-0.9949,0.1082,-0.0359,-0.0070,-0.0401,-0.0158,0.0010,0.0128,3.1063,1.4660,2.9780
2024-10-11T13:44:29.222Z,0.0136,-0.9957,0.1021,-0.0359,-0.0070,-0.0401,-0.0147,-0.0035,0.0107,3.1063,1.4660,2.9780
2024-10-11T13:44:29.233Z,0.0182,-0.9983,0.0932,-0.0359,-0.0070,-0.0401,-0.0110,-0.0065,0.0086,3.1063,1.4660,2.9780
2024-10-11T13:44:29.242Z,0.0081,-1.0033,0.0906,0.0488,0.0673,0.1089,-0.0111,-0.0041,0.0082,3.1034,1.4664,2.9805
2024-10-11T13:44:29.252Z,0.0061,-1.0017,0.0915,0.0488,0.0673,0.1089,-0.0088,-0.0044,0.0075,3.1034,1.4664,2.9805
2024-10-11T13:44:29.262Z,0.0139,-0.9994,0.0925,0.0488,0.0673,0.1089,-0.0062,-0.0063,0.0098,3.1034,1.4664,2.9805
2024-10-11T13:44:29.272Z,0.0162,-0.9940,0.0935,-0.0015,0.0181,0.0807,-0.0040,-0.0013,0.0077,3.1008,1.4667,2.9826
2024-10-11T13:44:29.285Z,0.0165,-0.9921,0.0975,-0.0015,0.0181,0.0807,-0.0042,-0.0046,0.0076,3.1008,1.4667,2.9826
2024-10-11T13:44:29.292Z,0.0194,-0.9869,0.0944,-0.0015,0.0181,0.0807,0.0001,-0.0039,0.0100,3.1008,1.4667,2.9826
2024-10-11T13:44:29.302Z,0.0170,-0.9799,0.0964,-0.0152,-0.1101,0.0442,0.0024,-0.0033,0.0098,3.0979,1.4668,2.9852
2024-10-11T13:44:29.312Z,0.0132,-0.9741,0.0949,-0.0152,-0.1101,0.0442,0.0029,-0.0018,0.0094,3.0979,1.4668,2.9852
2024-10-11T13:44:29.322Z,0.0132,-0.9752,0.0895,-0.0152,-0.1101,0.0442,0.0041,-0.0025,0.0070,3.0979,1.4668,2.9852
2024-10-11T13:44:29.333Z,0.0113,-0.9752,0.0922,0.0353,-0.1919,0.0987,0.0074,-0.0070,0.0078,3.0951,1.4667,2.9876
2024-10-11T13:44:29.342Z,0.0072,-0.9810,0.0891,0.0353,-0.1919,0.0987,0.0119,-0.0066,0.0032,3.0951,1.4667,2.9876
2024-10-11T13:44:29.352Z,0.0084,-0.9858,0.0892,0.0353,-0.1919,0.0987,0.0138,-0.0075,0.0016,3.0951,1.4667,2.9876
2024-10-11T13:44:29.362Z,0.0117,-0.9908,0.0857,0.0384,-0.0425,0.1742,0.0163,-0.0049,0.0008,3.0931,1.4664,2.9891
2024-10-11T13:44:29.372Z,0.0123,-0.9909,0.0856,0.0384,-0.0425,0.1742,0.0187,-0.0067,0.0035,3.0931,1.4664,2.9891
2024-10-11T13:44:29.382Z,0.0167,-0.9881,0.0917,0.0384,-0.0425,0.1742,0.0201,-0.0017,0.0004,3.0931,1.4664,2.9891
2024-10-11T13:44:29.392Z,0.0198,-0.9830,0.0888,-0.0197,-0.0972,0.1297,0.0204,0.0024,0.0019,3.0916,1.4658,2.9902
2024-10-11T13:44:29.402Z,0.0213,-0.9822,0.0853,-0.0197,-0.0972,0.1297,0.0211,0.0022,0.0017,3.0916,1.4658,2.9902
2024-10-11T13:44:29.412Z,0.0221,-0.9860,0.0803,-0.0197,-0.0972,0.1297,0.0219,0.0045,0.0003,3.0916,1.4658,2.9902
2024-10-11T13:44:29.422Z,0.0168,-0.9824,0.0803,-0.0417,-0.1019,0.2550,0.0267,0.0079,0.0039,3.0897,1.4652,2.9919
2024-10-11T13:44:29.432Z,0.0139,-0.9832,0.0797,-0.0417,-0.1019,0.2550,0.0321,0.0056,0.0027,3.0897,1.4652,2.9919
2024-10-11T13:44:29.442Z,0.0181,-0.9846,0.0792,-0.0417,-0.1019,0.2550,0.0317,0.0103,0.0024,3.0897,1.4652,2.9919
2024-10-11T13:44:29.452Z,0.0146,-0.9875,0.0813,-0.0094,-0.0832,0.2625,0.0354,0.0141,0.0009,3.0874,1.4643,2.9943
2024-10-11T13:44:29.462Z,0.0121,-0.9895,0.0841,-0.0094,-0.0832,0.2625,0.0380,0.0161,0.0009,3.0874,1.4643,2.9943
2024-10-11T13:44:29.473Z,0.0175,-0.9926,0.0897,-0.0094,-0.0832,0.2625,0.0364,0.0185,0.0018,3.0874,1.4643,2.9943
2024-10-11T13:44:29.482Z,0.0143,-0.9934,0.0957,-0.0111,0.0027,0.1005,0.0355,0.0179,-0.0001,3.0851,1.4633,2.9967
2024-10-11T13:44:29.492Z,0.0122,-0.9928,0.0981,-0.0111,0.0027,0.1005,0.0371,0.0207,0.0001,3.0851,1.4633,2.9967
2024-10-11T13:44:29.502Z,0.0143,-0.9940,0.0986,-0.0111,0.0027,0.1005,0.0375,0.0217,0.0008,3.0851,1.4633,2.9967
2024-10-11T13:44:29.512Z,0.0142,-0.9993,0.0965,0.0030,0.0373,0.0911,0.0357,0.0246,-0.0037,3.0834,1.4623,2.9988
2024-10-11T13:44:29.522Z,0.0065,-1.0034,0.0913,0.0030,0.0373,0.0911,0.0356,0.0279,-0.0046,3.0834,1.4623,2.9988
2024-10-11T13:44:29.532Z,0.0063,-1.0069,0.0978,0.0030,0.0373,0.0911,0.0322,0.0281,-0.0073,3.0834,1.4623,2.9988
2024-10-11T13:44:29.542Z,0.0079,-1.0054,0.0992,0.0860,0.1107,0.0964,0.0303,0.0308,-0.0106,3.0834,1.4613,2.9993
2024-10-11T13:44:29.552Z,0.0098,-1.0014,0.1110,0.0860,0.1107,0.0964,0.0287,0.0290,-0.0108,3.0834,1.4613,2.9993
2024-10-11T13:44:29.562Z,0.0195,-1.0004,0.1063,0.0860,0.1107,0.0964,0.0276,0.0340,-0.0120,3.0834,1.4613,2.9993
2024-10-11T13:44:29.572Z,0.0211,-1.0064,0.1039,-0.0722,0.1012,0.0447,0.0282,0.0345,-0.0096,3.0841,1.4604,2.9991
2024-10-11T13:44:29.582Z,0.0197,-1.0076,0.1107,-0.0722,0.1012,0.0447,0.0242,0.0338,-0.0104,3.0841,1.4604,2.9991
2024-10-11T13:44:29.592Z,0.0187,-1.0060,0.1094,-0.0722,0.1012,0.0447,0.0235,0.0285,-0.0122,3.0841,1.4604,2.9991
2024-10-11T13:44:29.602Z,0.0106,-0.9997,0.1239,0.0382,0.0745,-0.0831,0.0136,0.0261,-0.0118,3.0857,1.4596,2.9982
2024-10-11T13:44:29.612Z,0.0104,-0.9978,0.1223,0.0382,0.0745,-0.0831,0.0133,0.0260,-0.0111,3.0857,1.4596,2.9982
2024-10-11T13:44:29.622Z,0.0176,-0.9994,0.1186,0.0382,0.0745,-0.0831,0.0091,0.0253,-0.0175,3.0857,1.4596,2.9982
2024-10-11T13:44:29.632Z,0.0189,-1.0021,0.1195,-0.0371,0.0675,-0.0831,0.0087,0.0249,-0.0166,3.0885,1.4592,2.9959
2024-10-11T13:44:29.642Z,0.0060,-1.0034,0.1222,-0.0371,0.0675,-0.0831,0.0016,0.0246,-0.0179,3.0885,1.4592,2.9959
2024-10-11T13:44:29.652Z,0.0107,-1.0028,0.1229,-0.0371,0.0675,-0.0831,-0.0002,0.0223,-0.0187,3.0885,1.4592,2.9959
2024-10-11T13:44:29.662Z,0.0173,-0.9990,0.1250,-0.0101,0.0596,-0.1721,-0.0034,0.0178,-0.0196,3.0929,1.4590,2.9919
2024-10-11T13:44:29.672Z,0.0101,-1.0000,0.1209,-0.0101,0.0596,-0.1721,-0.0055,0.0159,-0.0194,3.0929,1.4590,2.9919
2024-10-11T13:44:29.682Z,0.0159,-0.9975,0.1150,-0.0101,0.0596,-0.1721,-0.0074,0.0153,-0.0197,3.0929,1.4590,2.9919
2024-10-11T13:44:29.693Z,0.0224,-0.9989,0.1103,-0.0221,0.0524,-0.0220,-0.0078,0.0132,-0.0174,3.0977,1.4590,2.9875
2024-10-11T13:44:29.701Z,0.0283,-0.9966,0.1135,-0.0221,0.0524,-0.0220,-0.0076,0.0169,-0.0148,3.0977,1.4590,2.9875
2024-10-11T13:44:29.712Z,0.0313,-0.9917,0.1122,-0.0221,0.0524,-0.0220,-0.0109,0.0189,-0.0126,3.0977,1.4590,2.9875
2024-10-11T13:44:29.722Z,0.0325,-0.9876,0.1021,-0.1454,-0.0390,0.0603,-0.0144,0.0232,-0.0131,3.1016,1.4592,2.9838
2024-10-11T13:44:29.731Z,0.0336,-0.9881,0.1089,-0.1454,-0.0390,0.0603,-0.0102,0.0226,-0.0107,3.1016,1.4592,2.9838
2024-10-11T13:44:29.742Z,0.0318,-0.9903,0.1077,-0.1454,-0.0390,0.0603,-0.0143,0.0222,-0.0088,3.1016,1.4592,2.9838
2024-10-11T13:44:29.752Z,0.0335,-0.9924,0.1030,-0.1516,-0.0119,0.0536,-0.0115,0.0193,-0.0060,3.1042,1.4595,2.9816
2024-10-11T13:44:29.762Z,0.0285,-0.9953,0.0996,-0.1516,-0.0119,0.0536,-0.0108,0.0132,-0.0061,3.1042,1.4595,2.9816
2024-10-11T13:44:29.771Z,0.0266,-0.9943,0.1031,-0.1516,-0.0119,0.0536,-0.0086,0.0125,-0.0063,3.1042,1.4595,2.9816
2024-10-11T13:44:29.782Z,0.0302,-0.9935,0.1058,-0.1132,0.0028,0.0836,-0.0081,0.0181,-0.0088,3.1060,1.4597,2.9800
2024-10-11T13:44:29.792Z,0.0253,-0.9903,0.1088,-0.1132,0.0028,0.0836,-0.0124,0.0185,-0.0045,3.1060,1.4597,2.9800
2024-10-11T13:44:29.801Z,0.0350,-0.9890,0.1176,-0.1132,0.0028,0.0836,-0.0117,0.0217,-0.0017,3.1060,1.4597,2.9800
2024-10-11T13:44:29.812Z,0.0441,-0.9883,0.1197,-0.2413,-0.0553,-0.0913,-0.0114,0.0246,0.0015,3.1073,1.4600,2.9791
2024-10-11T13:44:29.822Z,0.0372,-0.9882,0.1186,-0.2413,-0.0553,-0.0913,-0.0154,0.0275,0.0034,3.1073,1.4600,2.9791
2024-10-11T13:44:29.832Z,0.0339,-0.9877,0.1185,-0.2413,-0.0553,-0.0913,-0.0156,0.0248,0.0053,3.1073,1.4600,2.9791
2024-10-11T13:44:29.842Z,0.0369,-0.9868,0.1230,-0.1882,-0.0757,-0.1315,-0.0157,0.0249,0.0059,3.1069,1.4605,2.9799
2024-10-11T13:44:29.852Z,0.0319,-0.9859,0.1257,-0.1882,-0.0757,-0.1315,-0.0207,0.0339,0.0069,3.1069,1.4605,2.9799
2024-10-11T13:44:29.862Z,0.0324,-0.9873,0.1223,-0.1882,-0.0757,-0.1315,-0.0187,0.0347,0.0084,3.1069,1.4605,2.9799
2024-10-11T13:44:29.872Z,0.0341,-0.9859,0.1198,-0.1696,-0.0881,-0.1312,-0.0128,0.0372,0.0096,3.1054,1.4610,2.9821
2024-10-11T13:44:29.882Z,0.0329,-0.9821,0.1127,-0.1696,-0.0881,-0.1312,-0.0168,0.0440,0.0117,3.1054,1.4610,2.9821
2024-10-11T13:44:29.892Z,0.0299,-0.9758,0.1107,-0.1696,-0.0881,-0.1312,-0.0170,0.0412,0.0142,3.1054,1.4610,2.9821
2024-10-11T13:44:29.903Z,0.0294,-0.9733,0.1124,-0.1027,-0.2013,-0.0692,-0.0163,0.0452,0.0157,3.1030,1.4614,2.9855
2024-10-11T13:44:29.912Z,0.0308,-0.9725,0.1141,-0.1027,-0.2013,-0.0692,-0.0130,0.0453,0.0120,3.1030,1.4614,2.9855
2024-10-11T13:44:29.922Z,0.0149,-0.9698,0.1109,-0.1027,-0.2013,-0.0692,-0.0125,0.0444,0.0122,3.1030,1.4614,2.9855
2024-10-11T13:44:29.931Z,0.0139,-0.9735,0.1043,0.0309,-0.2089,-0.0234,-0.0134,0.0415,0.0109,3.1004,1.4619,2.9891
2024-10-11T13:44:29.942Z,0.0067,-0.9762,0.1034,0.0309,-0.2089,-0.0234,-0.0109,0.0392,0.0062,3.1004,1.4619,2.9891
2024-10-11T13:44:29.952Z,-0.0005,-0.9783,0.1072,0.0309,-0.2089,-0.0234,-0.0091,0.0393,0.0031,3.1004,1.4619,2.9891
2024-10-11T13:44:29.962Z,0.0093,-0.9762,0.1060,0.1067,-0.1678,0.0054,-0.0109,0.0441,0.0013,3.0994,1.4622,2.9911
2024-10-11T13:44:29.972Z,0.0109,-0.9764,0.1046,0.1067,-0.1678,0.0054,-0.0066,0.0425,0.0023,3.0994,1.4622,2.9911
2024-10-11T13:44:29.982Z,0.0155,-0.9771,0.1059,0.1067,-0.1678,0.0054,-0.0052,0.0437,-0.0004,3.0994,1.4622,2.9911
2024-10-11T13:44:29.992Z,0.0201,-0.9754,0.1019,-0.0313,-0.1693,0.0567,-0.0064,0.0453,-0.0021,3.0996,1.4624,2.9920
2024-10-11T13:44:30.002Z,0.0201,-0.9754,0.1051,-0.0313,-0.1693,0.0567,-0.0066,0.0531,-0.0039,3.0996,1.4624,2.9920
2024-10-11T13:44:30.012Z,0.0209,-0.9718,0.1015,-0.0313,-0.1693,0.0567,-0.0022,0.0498,-0.0041,3.0996,1.4624,2.9920
2024-10-11T13:44:30.021Z,0.0195,-0.9693,0.1021,-0.0454,-0.2372,0.0680,-0.0002,0.0503,-0.0041,3.1003,1.4624,2.9925
2024-10-11T13:44:30.032Z,0.0151,-0.9698,0.0964,-0.0454,-0.2372,0.0680,-0.0035,0.0508,-0.0084,3.1003,1.4624,2.9925
2024-10-11T13:44:30.042Z,0.0138,-0.9720,0.0959,-0.0454,-0.2372,0.0680,0.0009,0.0500,-0.0095,3.1003,1.4624,2.9925
2024-10-11T13:44:30.052Z,0.0108,-0.9716,0.1021,0.0429,-0.2234,0.0780,0.0016,0.0498,-0.0132,3.1013,1.4624,2.9927
2024-10-11T13:44:30.062Z,0.0071,-0.9750,0.0981,0.0429,-0.2234,0.0780,0.0014,0.0476,-0.0137,3.1013,1.4624,2.9927
2024-10-11T13:44:30.072Z,0.0057,-0.9778,0.0985,0.0429,-0.2234,0.0780,0.0041,0.0433,-0.0154,3.1013,1.4624,2.9927
2024-10-11T13:44:30.082Z,0.0170,-0.9809,0.0995,0.0427,-0.1494,0.0719,0.0055,0.0425,-0.0159,3.1048,1.4622,2.9904
2024-10-11T13:44:30.092Z,0.0210,-0.9861,0.1008,0.0427,-0.1494,0.0719,0.0062,0.0439,-0.0167,3.1048,1.4622,2.9904
2024-10-11T13:44:30.102Z,0.0158,-0.9931,0.0997,0.0427,-0.1494,0.0719,0.0046,0.0492,-0.0192,3.1048,1.4622,2.9904
2024-10-11T13:44:30.112Z,0.0225,-0.9977,0.1058,-0.0274,0.0236,0.0291,0.0061,0.0501,-0.0194,3.1089,1.4620,2.9874
2024-10-11T13:44:30.122Z,0.0233,-0.9979,0.1093,-0.0274,0.0236,0.0291,0.0068,0.0523,-0.0173,3.1089,1.4620,2.9874
2024-10-11T13:44:30.133Z,0.0210,-0.9992,0.0999,-0.0274,0.0236,0.0291,0.0063,0.0503,-0.0146,3.1089,1.4620,2.9874
2024-10-11T13:44:30.141Z,0.0254,-0.9975,0.0987,-0.0622,0.0320,0.1079,0.0048,0.0506,-0.0174,3.1129,1.4617,2.9847
2024-10-11T13:44:30.152Z,0.0227,-0.9991,0.1019,-0.0622,0.0320,0.1079,0.0089,0.0539,-0.0170,3.1129,1.4617,2.9847
2024-10-11T13:44:30.162Z,0.0242,-1.0077,0.1011,-0.0622,0.0320,0.1079,0.0051,0.0577,-0.0171,3.1129,1.4617,2.9847
2024-10-11T13:44:30.172Z,0.0257,-1.0090,0.1013,-0.0901,0.1498,0.0624,0.0064,0.0602,-0.0162,3.1168,1.4614,2.9823
2024-10-11T13:44:30.183Z,0.0269,-1.0077,0.1065,-0.0901,0.1498,0.0624,0.0068,0.0599,-0.0172,3.1168,1.4614,2.9823
