time,gFx,gFy,gFz,ax,ay,az,wx,wy,wz,yaw,pitch,roll
2024-10-11T14:16:29.084Z,0.0177,-0.9954,0.1124,0.0035,0.0352,0.0285,0.0207,-0.0194,-0.0046,2.8133,1.4537,2.9672
2024-10-11T14:16:29.090Z,0.0206,-0.9973,0.1129,0.0035,0.0352,0.0285,0.0172,-0.0137,-0.0047,2.8133,1.4537,2.9672
2024-10-11T14:16:29.101Z,0.0205,-0.9980,0.1108,0.0035,0.0352,0.0285,0.0180,-0.0122,-0.0060,2.8133,1.4537,2.9672
2024-10-11T14:16:29.111Z,0.0217,-0.9983,0.1107,-0.0037,0.0440,0.0490,0.0144,-0.0109,-0.0063,2.8136,1.4532,2.9662
2024-10-11T14:16:29.121Z,0.0228,-0.9988,0.1127,-0.0037,0.0440,0.0490,0.0118,-0.0086,-0.0047,2.8136,1.4532,2.9662
2024-10-11T14:16:29.131Z,0.0217,-0.9989,0.1131,-0.0037,0.0440,0.0490,0.0144,-0.0089,-0.0051,2.8136,1.4532,2.9662
2024-10-11T14:16:29.141Z,0.0210,-1.0002,0.1138,-0.0008,0.0601,0.0228,0.0151,-0.0031,-0.0043,2.8137,1.4528,2.9656
2024-10-11T14:16:29.151Z,0.0217,-1.0023,0.1164,-0.0008,0.0601,0.0228,0.0102,-0.0064,-0.0019,2.8137,1.4528,2.9656
2024-10-11T14:16:29.161Z,0.0195,-1.0018,0.1161,-0.0008,0.0601,0.0228,0.0138,-0.0070,-0.0011,2.8137,1.4528,2.9656
2024-10-11T14:16:29.171Z,0.0207,-1.0011,0.1169,0.0118,0.0854,-0.0030,0.0096,-0.0036,-0.0010,2.8134,1.4524,2.9655
2024-10-11T14:16:29.181Z,0.0228,-1.0017,0.1155,0.0118,0.0854,-0.0030,0.0095,-0.0014,-0.0002,2.8134,1.4524,2.9655
2024-10-11T14:16:29.191Z,0.0228,-1.0017,0.1155,0.0118,0.0854,-0.0030,0.0052,-0.0009,-0.0012,2.8134,1.4524,2.9655
2024-10-11T14:16:29.201Z,0.0227,-1.0006,0.1178,-0.0146,0.0625,-0.0105,0.0076,0.0009,0.0007,2.8132,1.4523,2.9654
2024-10-11T14:16:29.211Z,0.0215,-0.9978,0.1171,-0.0146,0.0625,-0.0105,0.0072,0.0013,0.0022,2.8132,1.4523,2.9654
2024-10-11T14:16:29.221Z,0.0215,-0.9978,0.1171,-0.0146,0.0625,-0.0105,0.0025,0.0041,0.0020,2.8132,1.4523,2.9654
2024-10-11T14:16:29.231Z,0.0221,-0.9959,0.1173,-0.0308,0.0253,-0.0277,0.0025,0.0093,0.0008,2.8129,1.4523,2.9655
2024-10-11T14:16:29.241Z,0.0231,-0.9961,0.1202,-0.0308,0.0253,-0.0277,0.0016,0.0090,0.0050,2.8129,1.4523,2.9655
2024-10-11T14:16:29.251Z,0.0202,-0.9949,0.1225,-0.0308,0.0253,-0.0277,0.0001,0.0109,0.0047,2.8129,1.4523,2.9655
2024-10-11T14:16:29.261Z,0.0207,-0.9962,0.1271,-0.0038,0.0344,-0.0892,0.0007,0.0115,0.0039,2.8121,1.4523,2.9663
2024-10-11T14:16:29.272Z,0.0207,-0.9962,0.1271,-0.0038,0.0344,-0.0892,0.0007,0.0115,0.0039,2.8121,1.4523,2.9663
2024-10-11T14:16:29.281Z,0.0175,-1.0024,0.1296,-0.0038,0.0344,-0.0892,-0.0008,0.0093,0.0068,2.8121,1.4523,2.9663
2024-10-11T14:16:29.291Z,0.0176,-1.0010,0.1267,0.0243,0.0767,-0.1109,-0.0079,0.0109,0.0028,2.8111,1.4523,2.9673
2024-10-11T14:16:29.301Z,0.0136,-1.0027,0.1285,0.0243,0.0767,-0.1109,-0.0068,0.0094,0.0033,2.8111,1.4523,2.9673
2024-10-11T14:16:29.311Z,0.0136,-1.0027,0.1285,0.0243,0.0767,-0.1109,-0.0045,0.0107,0.0025,2.8111,1.4523,2.9673
2024-10-11T14:16:29.321Z,0.0217,-1.0031,0.1299,0.0325,0.1182,-0.1197,-0.0045,0.0107,0.0025,2.8104,1.4525,2.9681
2024-10-11T14:16:29.331Z,0.0203,-1.0032,0.1260,0.0325,0.1182,-0.1197,-0.0077,0.0098,0.0028,2.8104,1.4525,2.9681
2024-10-11T14:16:29.341Z,0.0203,-1.0032,0.1260,0.0325,0.1182,-0.1197,-0.0142,0.0116,0.0019,2.8104,1.4525,2.9681
2024-10-11T14:16:29.350Z,0.0185,-1.0012,0.1252,0.0010,0.0819,-0.0880,-0.0119,0.0126,0.0033,2.8098,1.4528,2.9688
2024-10-11T14:16:29.361Z,0.0230,-1.0003,0.1241,0.0010,0.0819,-0.0880,-0.0144,0.0096,0.0060,2.8098,1.4528,2.9688
2024-10-11T14:16:29.371Z,0.0228,-0.9971,0.1243,0.0010,0.0819,-0.0880,-0.0144,0.0096,0.0060,2.8098,1.4528,2.9688
2024-10-11T14:16:29.381Z,0.0203,-0.9938,0.1223,-0.0131,0.0077,-0.0717,-0.0134,0.0116,0.0049,2.8082,1.4530,2.9704
2024-10-11T14:16:29.391Z,0.0203,-0.9938,0.1223,-0.0131,0.0077,-0.0717,-0.0104,0.0089,0.0076,2.8082,1.4530,2.9704
2024-10-11T14:16:29.401Z,0.0214,-0.9946,0.1194,-0.0131,0.0077,-0.0717,-0.0136,0.0095,0.0042,2.8082,1.4530,2.9704
2024-10-11T14:16:29.411Z,0.0219,-0.9949,0.1228,-0.0211,0.0107,-0.0484,-0.0187,0.0093,0.0045,2.8069,1.4534,2.9719
2024-10-11T14:16:29.421Z,0.0219,-0.9949,0.1228,-0.0211,0.0107,-0.0484,-0.0158,0.0056,0.0040,2.8069,1.4534,2.9719
2024-10-11T14:16:29.431Z,0.0188,-0.9943,0.1230,-0.0211,0.0107,-0.0484,-0.0177,0.0032,0.0031,2.8069,1.4534,2.9719
2024-10-11T14:16:29.440Z,0.0200,-0.9952,0.1243,0.0106,0.0326,-0.0826,-0.0169,-0.0015,0.0038,2.8063,1.4537,2.9723
2024-10-11T14:16:29.451Z,0.0157,-0.9993,0.1212,0.0106,0.0326,-0.0826,-0.0173,-0.0014,0.0041,2.8063,1.4537,2.9723
2024-10-11T14:16:29.462Z,0.0160,-1.0008,0.1223,0.0106,0.0326,-0.0826,-0.0191,-0.0067,-0.0007,2.8063,1.4537,2.9723
2024-10-11T14:16:29.472Z,0.0160,-1.0008,0.1223,0.0191,0.0996,-0.1092,-0.0195,-0.0099,-0.0002,2.8065,1.4542,2.9718
2024-10-11T14:16:29.481Z,0.0191,-1.0038,0.1264,0.0191,0.0996,-0.1092,-0.0196,-0.0135,0.0013,2.8065,1.4542,2.9718
2024-10-11T14:16:29.491Z,0.0155,-0.9986,0.1249,0.0191,0.0996,-0.1092,-0.0240,-0.0150,-0.0022,2.8065,1.4542,2.9718
2024-10-11T14:16:29.501Z,0.0151,-0.9959,0.1293,0.0468,0.0487,-0.1253,-0.0261,-0.0195,-0.0013,2.8076,1.4547,2.9700
2024-10-11T14:16:29.511Z,0.0149,-0.9955,0.1309,0.0468,0.0487,-0.1253,-0.0278,-0.0208,-0.0049,2.8076,1.4547,2.9700
2024-10-11T14:16:29.521Z,0.0149,-0.9955,0.1309,0.0468,0.0487,-0.1253,-0.0286,-0.0235,-0.0049,2.8076,1.4547,2.9700
2024-10-11T14:16:29.531Z,0.0168,-0.9943,0.1318,0.0284,0.0131,-0.1976,-0.0345,-0.0234,-0.0082,2.8092,1.4553,2.9675
2024-10-11T14:16:29.541Z,0.0140,-0.9916,0.1318,0.0284,0.0131,-0.1976,-0.0340,-0.0261,-0.0067,2.8092,1.4553,2.9675
2024-10-11T14:16:29.551Z,0.0147,-0.9943,0.1304,0.0284,0.0131,-0.1976,-0.0349,-0.0272,-0.0074,2.8092,1.4553,2.9675
2024-10-11T14:16:29.561Z,0.0149,-0.9931,0.1282,0.0577,0.0008,-0.1663,-0.0374,-0.0282,-0.0086,2.8120,1.4562,2.9638
2024-10-11T14:16:29.571Z,0.0149,-0.9931,0.1282,0.0577,0.0008,-0.1663,-0.0365,-0.0309,-0.0078,2.8120,1.4562,2.9638
2024-10-11T14:16:29.581Z,0.0123,-0.9910,0.1213,0.0577,0.0008,-0.1663,-0.0378,-0.0336,-0.0066,2.8120,1.4562,2.9638
2024-10-11T14:16:29.591Z,0.0152,-0.9891,0.1202,0.0767,-0.0322,-0.0942,-0.0385,-0.0347,-0.0089,2.8151,1.4572,2.9595
2024-10-11T14:16:29.601Z,0.0172,-0.9847,0.1163,0.0767,-0.0322,-0.0942,-0.0373,-0.0334,-0.0098,2.8151,1.4572,2.9595
2024-10-11T14:16:29.611Z,0.0201,-0.9842,0.1144,0.0767,-0.0322,-0.0942,-0.0384,-0.0328,-0.0091,2.8151,1.4572,2.9595
2024-10-11T14:16:29.621Z,0.0201,-0.9842,0.1144,0.0165,-0.1081,-0.0354,-0.0360,-0.0330,-0.0082,2.8185,1.4581,2.9548
2024-10-11T14:16:29.630Z,0.0171,-0.9800,0.1116,0.0165,-0.1081,-0.0354,-0.0335,-0.0330,-0.0098,2.8185,1.4581,2.9548
2024-10-11T14:16:29.640Z,0.0191,-0.9806,0.1096,0.0165,-0.1081,-0.0354,-0.0307,-0.0334,-0.0069,2.8185,1.4581,2.9548
2024-10-11T14:16:29.651Z,0.0165,-0.9816,0.1061,0.0464,-0.1064,0.0340,-0.0294,-0.0317,-0.0101,2.8221,1.4590,2.9499
2024-10-11T14:16:29.661Z,0.0162,-0.9820,0.1032,0.0464,-0.1064,0.0340,-0.0250,-0.0320,-0.0075,2.8221,1.4590,2.9499
2024-10-11T14:16:29.671Z,0.0162,-0.9820,0.1032,0.0464,-0.1064,0.0340,-0.0216,-0.0310,-0.0076,2.8221,1.4590,2.9499
2024-10-11T14:16:29.681Z,0.0203,-0.9808,0.1036,0.0240,-0.1191,0.0495,-0.0193,-0.0287,-0.0073,2.8260,1.4597,2.9449
2024-10-11T14:16:29.691Z,0.0203,-0.9808,0.1036,0.0240,-0.1191,0.0495,-0.0146,-0.0268,-0.0074,2.8260,1.4597,2.9449
2024-10-11T14:16:29.701Z,0.0215,-0.9805,0.1096,0.0240,-0.1191,0.0495,-0.0138,-0.0256,-0.0053,2.8260,1.4597,2.9449
2024-10-11T14:16:29.711Z,0.0237,-0.9812,0.1127,-0.0068,-0.1285,-0.0332,-0.0117,-0.0231,-0.0047,2.8287,1.4602,2.9411
2024-10-11T14:16:29.721Z,0.0237,-0.9812,0.1127,-0.0068,-0.1285,-0.0332,-0.0117,-0.0173,-0.0053,2.8287,1.4602,2.9411
2024-10-11T14:16:29.731Z,0.0247,-0.9852,0.1188,-0.0068,-0.1285,-0.0332,-0.0101,-0.0152,-0.0012,2.8287,1.4602,2.9411
2024-10-11T14:16:29.741Z,0.0236,-0.9857,0.1223,-0.0302,-0.0965,-0.1275,-0.0115,-0.0102,-0.0026,2.8300,1.4605,2.9390
2024-10-11T14:16:29.751Z,0.0185,-0.9890,0.1227,-0.0302,-0.0965,-0.1275,-0.0087,-0.0074,-0.0011,2.8300,1.4605,2.9390
2024-10-11T14:16:29.761Z,0.0181,-0.9891,0.1236,-0.0302,-0.0965,-0.1275,-0.0108,-0.0051,-0.0010,2.8300,1.4605,2.9390
2024-10-11T14:16:29.771Z,0.0181,-0.9891,0.1236,0.0591,-0.0368,-0.1510,-0.0133,-0.0042,0.0020,2.8304,1.4608,2.9381
2024-10-11T14:16:29.781Z,0.0149,-0.9911,0.1226,0.0591,-0.0368,-0.1510,-0.0097,0.0015,-0.0019,2.8304,1.4608,2.9381
2024-10-11T14:16:29.792Z,0.0165,-0.9893,0.1175,0.0591,-0.0368,-0.1510,-0.0100,0.0048,0.0001,2.8304,1.4608,2.9381
2024-10-11T14:16:29.801Z,0.0145,-0.9902,0.1156,0.0697,-0.0429,-0.0967,-0.0050,0.0061,0.0011,2.8306,1.4610,2.9377
2024-10-11T14:16:29.811Z,0.0122,-0.9906,0.1125,0.0697,-0.0429,-0.0967,-0.0047,0.0081,-0.0007,2.8306,1.4610,2.9377
2024-10-11T14:16:29.821Z,0.0144,-0.9901,0.1107,0.0697,-0.0429,-0.0967,-0.0013,0.0095,0.0001,2.8306,1.4610,2.9377
2024-10-11T14:16:29.831Z,0.0129,-0.9921,0.1095,0.0805,-0.0307,-0.0171,-0.0012,0.0099,0.0015,2.8304,1.4611,2.9379
2024-10-11T14:16:29.841Z,0.0146,-0.9902,0.1095,0.0805,-0.0307,-0.0171,0.0024,0.0135,-0.0020,2.8304,1.4611,2.9379
2024-10-11T14:16:29.851Z,0.0121,-0.9883,0.1093,0.0805,-0.0307,-0.0171,0.0035,0.0174,-0.0025,2.8304,1.4611,2.9379
2024-10-11T14:16:29.861Z,0.0107,-0.9889,0.1105,0.1103,-0.0554,-0.0284,0.0065,0.0171,0.0002,2.8301,1.4610,2.9383
2024-10-11T14:16:29.872Z,0.0119,-0.9851,0.1105,0.1103,-0.0554,-0.0284,0.0042,0.0221,-0.0007,2.8301,1.4610,2.9383
2024-10-11T14:16:29.881Z,0.0121,-0.9868,0.1120,0.1103,-0.0554,-0.0284,0.0041,0.0254,-0.0020,2.8301,1.4610,2.9383
2024-10-11T14:16:29.891Z,0.0121,-0.9868,0.1120,0.1052,-0.0770,-0.0449,0.0071,0.0295,-0.0030,2.8297,1.4608,2.9392
2024-10-11T14:16:29.901Z,0.0130,-0.9807,0.1098,0.1052,-0.0770,-0.0449,0.0080,0.0312,-0.0028,2.8297,1.4608,2.9392
2024-10-11T14:16:29.911Z,0.0147,-0.9866,0.1134,0.1052,-0.0770,-0.0449,0.0080,0.0314,-0.0043,2.8297,1.4608,2.9392
2024-10-11T14:16:29.923Z,0.0097,-0.9901,0.1109,0.1101,-0.0393,-0.0440,0.0068,0.0312,-0.0034,2.8299,1.4606,2.9397
2024-10-11T14:16:29.931Z,0.0188,-0.9932,0.1120,0.1101,-0.0393,-0.0440,0.0085,0.0331,-0.0057,2.8299,1.4606,2.9397
2024-10-11T14:16:29.941Z,0.0145,-0.9973,0.1116,0.1101,-0.0393,-0.0440,0.0089,0.0326,-0.0044,2.8299,1.4606,2.9397
2024-10-11T14:16:29.951Z,0.0209,-0.9955,0.1148,0.0621,0.0130,-0.0560,0.0077,0.0329,-0.0041,2.8292,1.4603,2.9411
2024-10-11T14:16:29.961Z,0.0189,-1.0008,0.1149,0.0621,0.0130,-0.0560,0.0096,0.0348,-0.0017,2.8292,1.4603,2.9411
2024-10-11T14:16:29.972Z,0.0145,-0.9994,0.1157,0.0621,0.0130,-0.0560,0.0075,0.0417,-0.0048,2.8292,1.4603,2.9411
2024-10-11T14:16:29.980Z,0.0146,-1.0004,0.1194,0.0684,0.0643,-0.1019,0.0073,0.0474,-0.0047,2.8287,1.4600,2.9425
2024-10-11T14:16:29.991Z,0.0045,-0.9959,0.1175,0.0684,0.0643,-0.1019,0.0083,0.0554,-0.0027,2.8287,1.4600,2.9425
2024-10-11T14:16:30.001Z,-0.0017,-0.9911,0.1123,0.0684,0.0643,-0.1019,0.0092,0.0663,-0.0021,2.8287,1.4600,2.9425
2024-10-11T14:16:30.011Z,-0.0103,-0.9853,0.1048,0.2522,-0.0535,-0.0047,0.0093,0.0784,-0.0024,2.8280,1.4597,2.9447
2024-10-11T14:16:30.021Z,-0.0172,-0.9787,0.0988,0.2522,-0.0535,-0.0047,0.0120,0.0942,-0.0020,2.8280,1.4597,2.9447
2024-10-11T14:16:30.030Z,-0.0207,-0.9754,0.0928,0.2522,-0.0535,-0.0047,0.0154,0.1062,-0.0006,2.8280,1.4597,2.9447
2024-10-11T14:16:30.041Z,-0.0192,-0.9815,0.0991,0.4137,-0.1541,0.1435,0.0140,0.1214,-0.0015,2.8270,1.4594,2.9483
2024-10-11T14:16:30.051Z,-0.0248,-0.9841,0.1037,0.4137,-0.1541,0.1435,0.0147,0.1323,-0.0003,2.8270,1.4594,2.9483
2024-10-11T14:16:30.061Z,-0.0231,-0.9908,0.1110,0.4137,-0.1541,0.1435,0.0179,0.1475,-0.0012,2.8270,1.4594,2.9483
2024-10-11T14:16:30.071Z,-0.0311,-0.9890,0.1144,0.4668,-0.0384,-0.0245,0.0155,0.1593,-0.0034,2.8259,1.4589,2.9532
2024-10-11T14:16:30.081Z,-0.0342,-0.9941,0.1208,0.4668,-0.0384,-0.0245,0.0154,0.1739,-0.0007,2.8259,1.4589,2.9532
2024-10-11T14:16:30.091Z,-0.0397,-0.9921,0.1189,0.4668,-0.0384,-0.0245,0.0158,0.1891,-0.0035,2.8259,1.4589,2.9532
2024-10-11T14:16:30.101Z,-0.0430,-0.9937,0.1135,0.6077,-0.0111,-0.0718,0.0110,0.2008,-0.0054,2.8261,1.4585,2.9581
2024-10-11T14:16:30.111Z,-0.0429,-0.9887,0.1071,0.6077,-0.0111,-0.0718,0.0087,0.2085,-0.0074,2.8261,1.4585,2.9581
2024-10-11T14:16:30.123Z,-0.0317,-0.9857,0.1017,0.6077,-0.0111,-0.0718,0.0110,0.2155,-0.0085,2.8261,1.4585,2.9581
2024-10-11T14:16:30.130Z,-0.0367,-0.9846,0.0984,0.5315,-0.0905,0.1139,0.0114,0.2212,-0.0131,2.8272,1.4581,2.9631
2024-10-11T14:16:30.141Z,-0.0348,-0.9844,0.0968,0.5315,-0.0905,0.1139,0.0129,0.2224,-0.0148,2.8272,1.4581,2.9631
2024-10-11T14:16:30.151Z,-0.0280,-0.9836,0.0957,0.5315,-0.0905,0.1139,0.0134,0.2286,-0.0176,2.8272,1.4581,2.9631
2024-10-11T14:16:30.161Z,-0.0226,-0.9877,0.0976,0.4440,-0.0786,0.1392,0.0166,0.2297,-0.0176,2.8304,1.4577,2.9664
2024-10-11T14:16:30.171Z,-0.0160,-0.9904,0.1003,0.4440,-0.0786,0.1392,0.0138,0.2317,-0.0176,2.8304,1.4577,2.9664
2024-10-11T14:16:30.181Z,-0.0098,-0.9927,0.1028,0.4440,-0.0786,0.1392,0.0165,0.2363,-0.0195,2.8304,1.4577,2.9664
2024-10-11T14:16:30.191Z,-0.0098,-0.9927,0.1028,0.2744,0.0143,0.0491,0.0132,0.2355,-0.0221,2.8349,1.4572,2.9687
2024-10-11T14:16:30.201Z,-0.0033,-0.9946,0.1132,0.2744,0.0143,0.0491,0.0114,0.2349,-0.0229,2.8349,1.4572,2.9687
2024-10-11T14:16:30.211Z,0.0014,-0.9959,0.1155,0.2744,0.0143,0.0491,0.0124,0.2358,-0.0260,2.8349,1.4572,2.9687
2024-10-11T14:16:30.224Z,0.0073,-0.9923,0.1158,0.1472,-0.0051,-0.0178,0.0079,0.2331,-0.0237,2.8402,1.4567,2.9702
2024-10-11T14:16:30.230Z,0.0030,-1.0010,0.1166,0.1472,-0.0051,-0.0178,0.0101,0.2358,-0.0256,2.8402,1.4567,2.9702
2024-10-11T14:16:30.241Z,0.0110,-0.9949,0.1105,0.1472,-0.0051,-0.0178,0.0069,0.2292,-0.0239,2.8402,1.4567,2.9702
2024-10-11T14:16:30.251Z,0.0213,-0.9945,0.1063,0.0021,0.0011,0.0528,0.0105,0.2304,-0.0260,2.8456,1.4563,2.9715
2024-10-11T14:16:30.261Z,0.0079,-0.9994,0.1074,0.0021,0.0011,0.0528,0.0088,0.2266,-0.0254,2.8456,1.4563,2.9715
2024-10-11T14:16:30.272Z,0.0181,-0.9983,0.1053,0.0021,0.0011,0.0528,0.0085,0.2218,-0.0241,2.8456,1.4563,2.9715
2024-10-11T14:16:30.281Z,0.0170,-1.0004,0.1039,-0.0156,0.0449,0.0859,0.0112,0.2186,-0.0269,2.8513,1.4559,2.9724
2024-10-11T14:16:30.291Z,0.0170,-1.0004,0.1039,-0.0156,0.0449,0.0859,0.0075,0.2132,-0.0257,2.8513,1.4559,2.9724
2024-10-11T14:16:30.301Z,0.0186,-1.0021,0.1076,-0.0156,0.0449,0.0859,0.0103,0.2103,-0.0241,2.8513,1.4559,2.9724
2024-10-11T14:16:30.311Z,0.0162,-1.0037,0.1064,0.0189,0.0940,0.0670,0.0085,0.2090,-0.0267,2.8569,1.4555,2.9730
2024-10-11T14:16:30.322Z,0.0142,-1.0048,0.1072,0.0189,0.0940,0.0670,0.0074,0.2045,-0.0242,2.8569,1.4555,2.9730
2024-10-11T14:16:30.331Z,0.0137,-1.0053,0.1116,0.0189,0.0940,0.0670,0.0084,0.2052,-0.0260,2.8569,1.4555,2.9730
2024-10-11T14:16:30.341Z,0.0107,-1.0050,0.1117,0.0785,0.1138,0.0128,0.0087,0.2034,-0.0274,2.8626,1.4551,2.9733
2024-10-11T14:16:30.350Z,0.0099,-1.0033,0.1142,0.0785,0.1138,0.0128,0.0068,0.2029,-0.0262,2.8626,1.4551,2.9733
2024-10-11T14:16:30.361Z,0.0130,-1.0056,0.1144,0.0785,0.1138,0.0128,0.0074,0.2029,-0.0265,2.8626,1.4551,2.9733
2024-10-11T14:16:30.371Z,0.0107,-1.0029,0.1163,0.0721,0.1093,-0.0088,0.0058,0.1999,-0.0284,2.8689,1.4548,2.9728
2024-10-11T14:16:30.381Z,0.0123,-1.0001,0.1202,0.0721,0.1093,-0.0088,0.0043,0.1995,-0.0292,2.8689,1.4548,2.9728
2024-10-11T14:16:30.391Z,0.0153,-0.9990,0.1235,0.0721,0.1093,-0.0088,0.0059,0.1938,-0.0288,2.8689,1.4548,2.9728
2024-10-11T14:16:30.401Z,0.0170,-0.9989,0.1274,0.0361,0.0569,-0.1089,0.0017,0.1922,-0.0297,2.8753,1.4546,2.9721
2024-10-11T14:16:30.411Z,0.0230,-0.9995,0.1302,0.0361,0.0569,-0.1089,0.0009,0.1857,-0.0273,2.8753,1.4546,2.9721
2024-10-11T14:16:30.421Z,0.0312,-0.9986,0.1307,0.0361,0.0569,-0.1089,0.0017,0.1764,-0.0286,2.8753,1.4546,2.9721
2024-10-11T14:16:30.431Z,0.0386,-0.9991,0.1297,-0.1489,0.0547,-0.1490,-0.0031,0.1719,-0.0265,2.8818,1.4544,2.9708
2024-10-11T14:16:30.441Z,0.0447,-1.0015,0.1308,-0.1489,0.0547,-0.1490,-0.0032,0.1623,-0.0258,2.8818,1.4544,2.9708
2024-10-11T14:16:30.451Z,0.0486,-1.0020,0.1273,-0.1489,0.0547,-0.1490,-0.0037,0.1552,-0.0233,2.8818,1.4544,2.9708
2024-10-11T14:16:30.461Z,0.0448,-1.0004,0.1265,-0.2724,0.0792,-0.1292,-0.0054,0.1503,-0.0224,2.8879,1.4544,2.9693
2024-10-11T14:16:30.471Z,0.0445,-1.0002,0.1230,-0.2724,0.0792,-0.1292,-0.0063,0.1473,-0.0209,2.8879,1.4544,2.9693
2024-10-11T14:16:30.480Z,0.0423,-0.9962,0.1196,-0.2724,0.0792,-0.1292,-0.0039,0.1416,-0.0188,2.8879,1.4544,2.9693
2024-10-11T14:16:30.491Z,0.0420,-0.9943,0.1145,-0.2021,0.0161,-0.0337,-0.0067,0.1373,-0.0191,2.8932,1.4545,2.9682
2024-10-11T14:16:30.501Z,0.0475,-0.9908,0.1096,-0.2021,0.0161,-0.0337,-0.0059,0.1295,-0.0159,2.8932,1.4545,2.9682
2024-10-11T14:16:30.510Z,0.0475,-0.9889,0.1084,-0.2021,0.0161,-0.0337,-0.0036,0.1271,-0.0140,2.8932,1.4545,2.9682
2024-10-11T14:16:30.521Z,0.0473,-0.9869,0.1073,-0.2589,-0.0445,0.0673,-0.0046,0.1198,-0.0120,2.8974,1.4546,2.9677
2024-10-11T14:16:30.531Z,0.0486,-0.9820,0.1045,-0.2589,-0.0445,0.0673,-0.0025,0.1145,-0.0108,2.8974,1.4546,2.9677
2024-10-11T14:16:30.541Z,0.0517,-0.9800,0.1057,-0.2589,-0.0445,0.0673,-0.0016,0.1072,-0.0127,2.8974,1.4546,2.9677
2024-10-11T14:16:30.551Z,0.0503,-0.9801,0.1072,-0.2967,-0.1267,0.0833,0.0000,0.1027,-0.0092,2.9002,1.4546,2.9680
2024-10-11T14:16:30.561Z,0.0504,-0.9817,0.1092,-0.2967,-0.1267,0.0833,0.0007,0.0974,-0.0098,2.9002,1.4546,2.9680
2024-10-11T14:16:30.570Z,0.0500,-0.9811,0.1095,-0.2967,-0.1267,0.0833,0.0016,0.0900,-0.0087,2.9002,1.4546,2.9680
2024-10-11T14:16:30.581Z,0.0521,-0.9808,0.1099,-0.2955,-0.1187,0.0546,0.0042,0.0838,-0.0067,2.9021,1.4545,2.9688
2024-10-11T14:16:30.591Z,0.0548,-0.9798,0.1122,-0.2955,-0.1187,0.0546,0.0025,0.0800,-0.0068,2.9021,1.4545,2.9688
2024-10-11T14:16:30.601Z,0.0462,-0.9814,0.1130,-0.2955,-0.1187,0.0546,0.0033,0.0778,-0.0068,2.9021,1.4545,2.9688
2024-10-11T14:16:30.611Z,0.0338,-0.9839,0.1162,-0.1851,-0.1022,-0.0013,0.0049,0.0775,-0.0054,2.9034,1.4543,2.9696
2024-10-11T14:16:30.621Z,0.0314,-0.9822,0.1202,-0.1851,-0.1022,-0.0013,0.0059,0.0765,-0.0054,2.9034,1.4543,2.9696
2024-10-11T14:16:30.631Z,0.0211,-0.9864,0.1205,-0.1851,-0.1022,-0.0013,0.0035,0.0812,-0.0054,2.9034,1.4543,2.9696
2024-10-11T14:16:30.641Z,0.0131,-0.9879,0.1235,0.0277,-0.0544,-0.0703,0.0032,0.0872,-0.0051,2.9046,1.4542,2.9706
2024-10-11T14:16:30.651Z,0.0078,-0.9886,0.1214,0.0277,-0.0544,-0.0703,0.0041,0.0888,-0.0050,2.9046,1.4542,2.9706
2024-10-11T14:16:30.661Z,0.0064,-0.9911,0.1223,0.0277,-0.0544,-0.0703,0.0052,0.0960,-0.0074,2.9046,1.4542,2.9706
2024-10-11T14:16:30.671Z,0.0011,-0.9951,0.1230,0.1594,-0.0012,-0.0834,0.0047,0.0996,-0.0053,2.9059,1.4540,2.9717
2024-10-11T14:16:30.680Z,0.0010,-0.9964,0.1219,0.1594,-0.0012,-0.0834,0.0054,0.1050,-0.0067,2.9059,1.4540,2.9717
2024-10-11T14:16:30.690Z,0.0014,-0.9984,0.1201,0.1594,-0.0012,-0.0834,0.0036,0.1118,-0.0067,2.9059,1.4540,2.9717
2024-10-11T14:16:30.701Z,0.0038,-1.0002,0.1216,0.1742,0.0546,-0.0588,0.0045,0.1159,-0.0109,2.9075,1.4538,2.9730
2024-10-11T14:16:30.711Z,0.0084,-1.0009,0.1221,0.1742,0.0546,-0.0588,0.0032,0.1164,-0.0091,2.9075,1.4538,2.9730
2024-10-11T14:16:30.721Z,0.0131,-0.9979,0.1219,0.1742,0.0546,-0.0588,0.0043,0.1161,-0.0112,2.9075,1.4538,2.9730
2024-10-11T14:16:30.731Z,0.0163,-0.9981,0.1238,0.0397,0.0493,-0.0701,0.0046,0.1148,-0.0118,2.9100,1.4537,2.9738
2024-10-11T14:16:30.740Z,0.0184,-0.9949,0.1227,0.0397,0.0493,-0.0701,0.0032,0.1133,-0.0145,2.9100,1.4537,2.9738
2024-10-11T14:16:30.751Z,0.0180,-0.9950,0.1200,0.0397,0.0493,-0.0701,0.0028,0.1127,-0.0150,2.9100,1.4537,2.9738
2024-10-11T14:16:30.761Z,0.0176,-0.9935,0.1224,0.0308,0.0148,-0.0523,-0.0002,0.1121,-0.0173,2.9134,1.4534,2.9735
2024-10-11T14:16:30.771Z,0.0187,-0.9936,0.1219,0.0308,0.0148,-0.0523,0.0034,0.1111,-0.0225,2.9134,1.4534,2.9735
2024-10-11T14:16:30.781Z,0.0188,-0.9927,0.1190,0.0308,0.0148,-0.0523,0.0081,0.1063,-0.0206,2.9134,1.4534,2.9735
2024-10-11T14:16:30.790Z,0.0217,-0.9912,0.1196,-0.0012,-0.0109,-0.0417,0.0054,0.1036,-0.0204,2.9181,1.4533,2.9719
2024-10-11T14:16:30.800Z,0.0278,-0.9893,0.1162,-0.0012,-0.0109,-0.0417,0.0073,0.1004,-0.0216,2.9181,1.4533,2.9719
2024-10-11T14:16:30.811Z,0.0315,-0.9883,0.1143,-0.0012,-0.0109,-0.0417,0.0047,0.0993,-0.0248,2.9181,1.4533,2.9719
2024-10-11T14:16:30.821Z,0.0382,-0.9881,0.1156,-0.1515,-0.0486,0.0074,0.0068,0.0968,-0.0203,2.9231,1.4530,2.9697
2024-10-11T14:16:30.831Z,0.0379,-0.9914,0.1165,-0.1515,-0.0486,0.0074,0.0049,0.0948,-0.0211,2.9231,1.4530,2.9697
2024-10-11T14:16:30.840Z,0.0415,-0.9906,0.1204,-0.1515,-0.0486,0.0074,0.0042,0.0924,-0.0217,2.9231,1.4530,2.9697
2024-10-11T14:16:30.851Z,0.0410,-0.9898,0.1224,-0.2084,-0.0276,-0.0581,0.0039,0.0903,-0.0212,2.9282,1.4527,2.9672
2024-10-11T14:16:30.861Z,0.0395,-0.9917,0.1210,-0.2084,-0.0276,-0.0581,0.0026,0.0881,-0.0195,2.9282,1.4527,2.9672
2024-10-11T14:16:30.871Z,0.0379,-0.9924,0.1207,-0.2084,-0.0276,-0.0581,0.0019,0.0836,-0.0211,2.9282,1.4527,2.9672
2024-10-11T14:16:30.881Z,0.0375,-0.9934,0.1205,-0.1663,-0.0026,-0.0370,0.0024,0.0830,-0.0191,2.9331,1.4525,2.9647
2024-10-11T14:16:30.890Z,0.0374,-0.9937,0.1188,-0.1663,-0.0026,-0.0370,0.0029,0.0806,-0.0202,2.9331,1.4525,2.9647
2024-10-11T14:16:30.901Z,0.0359,-0.9946,0.1166,-0.1663,-0.0026,-0.0370,0.0019,0.0808,-0.0176,2.9331,1.4525,2.9647
2024-10-11T14:16:30.911Z,0.0359,-0.9954,0.1171,-0.1451,0.0246,-0.0071,0.0047,0.0771,-0.0198,2.9376,1.4523,2.9624
2024-10-11T14:16:30.921Z,0.0329,-0.9959,0.1147,-0.1451,0.0246,-0.0071,0.0032,0.0706,-0.0208,2.9376,1.4523,2.9624
2024-10-11T14:16:30.931Z,0.0312,-0.9962,0.1131,-0.1451,0.0246,-0.0071,0.0044,0.0661,-0.0207,2.9376,1.4523,2.9624
2024-10-11T14:16:30.940Z,0.0301,-0.9957,0.1110,-0.0867,0.0283,0.0425,0.0087,0.0605,-0.0225,2.9428,1.4520,2.9590
2024-10-11T14:16:30.951Z,0.0244,-0.9961,0.1116,-0.0867,0.0283,0.0425,0.0074,0.0577,-0.0255,2.9428,1.4520,2.9590
2024-10-11T14:16:30.961Z,0.0214,-0.9960,0.1130,-0.0867,0.0283,0.0425,0.0077,0.0517,-0.0273,2.9428,1.4520,2.9590
2024-10-11T14:16:30.971Z,0.0202,-0.9968,0.1158,0.0009,0.0305,0.0139,0.0086,0.0484,-0.0298,2.9490,1.4516,2.9542
2024-10-11T14:16:30.981Z,0.0162,-0.9944,0.1143,0.0009,0.0305,0.0139,0.0086,0.0431,-0.0323,2.9490,1.4516,2.9542
2024-10-11T14:16:30.991Z,0.0158,-0.9970,0.1179,0.0009,0.0305,0.0139,0.0074,0.0418,-0.0369,2.9490,1.4516,2.9542
2024-10-11T14:16:31.001Z,0.0137,-0.9978,0.1201,0.0921,0.0454,-0.0164,0.0069,0.0417,-0.0361,2.9565,1.4512,2.9478
2024-10-11T14:16:31.011Z,0.0160,-0.9981,0.1198,0.0921,0.0454,-0.0164,0.0069,0.0402,-0.0368,2.9565,1.4512,2.9478
2024-10-11T14:16:31.021Z,0.0178,-0.9972,0.1220,0.0921,0.0454,-0.0164,0.0042,0.0340,-0.0381,2.9565,1.4512,2.9478
2024-10-11T14:16:31.030Z,0.0218,-0.9958,0.1218,0.0309,0.0462,-0.0434,0.0036,0.0372,-0.0398,2.9651,1.4507,2.9401
2024-10-11T14:16:31.040Z,0.0227,-0.9959,0.1236,0.0309,0.0462,-0.0434,0.0052,0.0349,-0.0391,2.9651,1.4507,2.9401
2024-10-11T14:16:31.051Z,0.0240,-0.9968,0.1248,0.0309,0.0462,-0.0434,0.0032,0.0339,-0.0389,2.9651,1.4507,2.9401
2024-10-11T14:16:31.061Z,0.0271,-0.9960,0.1246,0.0098,0.0362,-0.0736,0.0029,0.0343,-0.0373,2.9741,1.4504,2.9318
2024-10-11T14:16:31.071Z,0.0298,-0.9971,0.1253,0.0098,0.0362,-0.0736,0.0040,0.0334,-0.0362,2.9741,1.4504,2.9318
2024-10-11T14:16:31.081Z,0.0284,-0.9986,0.1243,0.0098,0.0362,-0.0736,-0.0007,0.0332,-0.0356,2.9741,1.4504,2.9318
2024-10-11T14:16:31.090Z,0.0314,-1.0003,0.1234,-0.0358,0.0694,-0.0525,0.0004,0.0372,-0.0335,2.9825,1.4501,2.9243
2024-10-11T14:16:31.101Z,0.0367,-1.0002,0.1224,-0.0358,0.0694,-0.0525,-0.0017,0.0384,-0.0315,2.9825,1.4501,2.9243
2024-10-11T14:16:31.111Z,0.0372,-0.9960,0.1214,-0.0358,0.0694,-0.0525,-0.0026,0.0394,-0.0310,2.9825,1.4501,2.9243
2024-10-11T14:16:31.120Z,0.0369,-0.9940,0.1198,-0.0971,0.0184,-0.0268,-0.0015,0.0417,-0.0273,2.9901,1.4499,2.9176
2024-10-11T14:16:31.131Z,0.0382,-0.9920,0.1194,-0.0971,0.0184,-0.0268,-0.0032,0.0400,-0.0265,2.9901,1.4499,2.9176
2024-10-11T14:16:31.141Z,0.0423,-0.9897,0.1187,-0.0971,0.0184,-0.0268,-0.0037,0.0424,-0.0234,2.9901,1.4499,2.9176
2024-10-11T14:16:31.151Z,0.0391,-0.9897,0.1185,-0.1427,-0.0315,-0.0033,-0.0046,0.0424,-0.0226,2.9964,1.4499,2.9123
2024-10-11T14:16:31.161Z,0.0390,-0.9907,0.1189,-0.1427,-0.0315,-0.0033,-0.0051,0.0446,-0.0189,2.9964,1.4499,2.9123
2024-10-11T14:16:31.172Z,0.0371,-0.9908,0.1178,-0.0860,-0.0188,-0.0088,-0.0056,0.0465,-0.0156,3.0011,1.4499,2.9088
2024-10-11T14:16:31.180Z,0.0368,-0.9903,0.1192,-0.0860,-0.0188,-0.0088,-0.0096,0.0502,-0.0164,3.0011,1.4499,2.9088
2024-10-11T14:16:31.190Z,0.0364,-0.9917,0.1187,-0.0860,-0.0188,-0.0088,-0.0071,0.0505,-0.0130,3.0011,1.4499,2.9088
2024-10-11T14:16:31.202Z,0.0361,-0.9916,0.1197,-0.0830,-0.0082,-0.0432,-0.0096,0.0534,-0.0102,3.0046,1.4500,2.9065
2024-10-11T14:16:31.210Z,0.0351,-0.9922,0.1247,-0.0830,-0.0082,-0.0432,-0.0108,0.0563,-0.0105,3.0046,1.4500,2.9065
2024-10-11T14:16:31.221Z,0.0321,-0.9929,0.1262,-0.0830,-0.0082,-0.0432,-0.0108,0.0561,-0.0082,3.0046,1.4500,2.9065
2024-10-11T14:16:31.232Z,0.0318,-0.9949,0.1250,-0.0228,0.0217,-0.0936,-0.0117,0.0572,-0.0071,3.0081,1.4502,2.9045
2024-10-11T14:16:31.241Z,0.0286,-0.9942,0.1290,-0.0228,0.0217,-0.0936,-0.0104,0.0583,-0.0040,3.0081,1.4502,2.9045
2024-10-11T14:16:31.250Z,0.0262,-0.9964,0.1289,-0.0228,0.0217,-0.0936,-0.0133,0.0620,-0.0078,3.0081,1.4502,2.9045
2024-10-11T14:16:31.262Z,0.0279,-0.9968,0.1293,-0.0204,0.0515,-0.1129,-0.0140,0.0620,-0.0058,3.0104,1.4506,2.9037
2024-10-11T14:16:31.271Z,0.0319,-1.0002,0.1268,-0.0204,0.0515,-0.1129,-0.0170,0.0633,-0.0038,3.0104,1.4506,2.9037
2024-10-11T14:16:31.281Z,0.0322,-0.9996,0.1272,-0.0204,0.0515,-0.1129,-0.0167,0.0660,-0.0014,3.0104,1.4506,2.9037
2024-10-11T14:16:31.293Z,0.0342,-1.0008,0.1279,-0.0665,0.0652,-0.1189,-0.0190,0.0655,0.0007,3.0118,1.4510,2.9040
2024-10-11T14:16:31.300Z,0.0340,-0.9976,0.1281,-0.0665,0.0652,-0.1189,-0.0219,0.0680,0.0010,3.0118,1.4510,2.9040
2024-10-11T14:16:31.311Z,0.0353,-0.9966,0.1277,-0.0665,0.0652,-0.1189,-0.0206,0.0686,0.0032,3.0118,1.4510,2.9040
2024-10-11T14:16:31.322Z,0.0371,-0.9971,0.1251,-0.0939,0.0291,-0.0744,-0.0207,0.0709,0.0059,3.0122,1.4517,2.9055
2024-10-11T14:16:31.330Z,0.0379,-0.9942,0.1228,-0.0939,0.0291,-0.0744,-0.0214,0.0726,0.0073,3.0122,1.4517,2.9055
2024-10-11T14:16:31.341Z,0.0398,-0.9936,0.1197,-0.0939,0.0291,-0.0744,-0.0229,0.0773,0.0090,3.0122,1.4517,2.9055
2024-10-11T14:16:31.350Z,0.0410,-0.9937,0.1175,-0.0939,0.0291,-0.0744,-0.0167,0.0749,0.0130,3.0122,1.4517,2.9055
2024-10-11T14:16:31.361Z,0.0405,-0.9958,0.1115,-0.1421,0.0228,0.0010,-0.0174,0.0748,0.0148,3.0109,1.4523,2.9089
2024-10-11T14:16:31.371Z,0.0390,-0.9932,0.1076,-0.1421,0.0228,0.0010,-0.0176,0.0745,0.0157,3.0109,1.4523,2.9089
2024-10-11T14:16:31.381Z,0.0378,-0.9906,0.1038,-0.1114,-0.0287,0.1184,-0.0146,0.0750,0.0159,3.0080,1.4529,2.9137
2024-10-11T14:16:31.391Z,0.0397,-0.9890,0.1011,-0.1114,-0.0287,0.1184,-0.0131,0.0754,0.0157,3.0080,1.4529,2.9137
2024-10-11T14:16:31.401Z,0.0428,-0.9859,0.0995,-0.1114,-0.0287,0.1184,-0.0090,0.0718,0.0169,3.0080,1.4529,2.9137
2024-10-11T14:16:31.410Z,0.0421,-0.9838,0.1004,-0.1114,-0.0287,0.1184,-0.0077,0.0668,0.0196,3.0080,1.4529,2.9137
2024-10-11T14:16:31.421Z,0.0453,-0.9834,0.0988,-0.1735,-0.0976,0.1484,-0.0093,0.0670,0.0205,3.0040,1.4533,2.9195
2024-10-11T14:16:31.431Z,0.0482,-0.9820,0.1015,-0.1735,-0.0976,0.1484,-0.0031,0.0629,0.0218,3.0040,1.4533,2.9195
2024-10-11T14:16:31.442Z,0.0473,-0.9808,0.1034,-0.2061,-0.1146,0.0883,-0.0008,0.0634,0.0224,2.9988,1.4535,2.9263
2024-10-11T14:16:31.450Z,0.0438,-0.9824,0.1068,-0.2061,-0.1146,0.0883,-0.0013,0.0600,0.0244,2.9988,1.4535,2.9263
2024-10-11T14:16:31.461Z,0.0416,-0.9827,0.1054,-0.2061,-0.1146,0.0883,0.0002,0.0584,0.0238,2.9988,1.4535,2.9263
2024-10-11T14:16:31.472Z,0.0417,-0.9810,0.1050,-0.1724,-0.1164,0.0798,0.0023,0.0568,0.0242,2.9926,1.4536,2.9338
2024-10-11T14:16:31.481Z,0.0407,-0.9816,0.1081,-0.1724,-0.1164,0.0798,0.0017,0.0518,0.0248,2.9926,1.4536,2.9338
2024-10-11T14:16:31.492Z,0.0384,-0.9825,0.1069,-0.1724,-0.1164,0.0798,0.0045,0.0493,0.0245,2.9926,1.4536,2.9338
2024-10-11T14:16:31.501Z,0.0340,-0.9815,0.1097,-0.0810,-0.1047,0.0348,0.0042,0.0439,0.0238,2.9864,1.4536,2.9412
2024-10-11T14:16:31.510Z,0.0305,-0.9832,0.1124,-0.0810,-0.1047,0.0348,0.0066,0.0389,0.0212,2.9864,1.4536,2.9412
2024-10-11T14:16:31.521Z,0.0283,-0.9855,0.1147,-0.0810,-0.1047,0.0348,0.0086,0.0327,0.0211,2.9864,1.4536,2.9412
2024-10-11T14:16:31.531Z,0.0271,-0.9865,0.1168,-0.0296,-0.0723,-0.0333,0.0027,0.0317,0.0193,2.9809,1.4536,2.9474
2024-10-11T14:16:31.541Z,0.0252,-0.9849,0.1193,-0.0296,-0.0723,-0.0333,0.0090,0.0278,0.0176,2.9809,1.4536,2.9474
2024-10-11T14:16:31.551Z,0.0293,-0.9861,0.1184,-0.0296,-0.0723,-0.0333,0.0074,0.0255,0.0176,2.9809,1.4536,2.9474
2024-10-11T14:16:31.560Z,0.0292,-0.9850,0.1186,-0.0296,-0.0723,-0.0333,0.0068,0.0215,0.0154,2.9809,1.4536,2.9474
2024-10-11T14:16:31.571Z,0.0294,-0.9845,0.1156,-0.0664,-0.0786,-0.0246,0.0079,0.0167,0.0149,2.9767,1.4535,2.9521
2024-10-11T14:16:31.581Z,0.0285,-0.9857,0.1154,-0.0664,-0.0786,-0.0246,0.0085,0.0132,0.0107,2.9767,1.4535,2.9521
2024-10-11T14:16:31.592Z,0.0279,-0.9882,0.1149,-0.0627,-0.0253,-0.0038,0.0083,0.0097,0.0114,2.9729,1.4533,2.9559
2024-10-11T14:16:31.601Z,0.0271,-0.9926,0.1156,-0.0627,-0.0253,-0.0038,0.0092,0.0041,0.0118,2.9729,1.4533,2.9559
2024-10-11T14:16:31.610Z,0.0237,-0.9936,0.1134,-0.0627,-0.0253,-0.0038,0.0109,0.0003,0.0100,2.9729,1.4533,2.9559
2024-10-11T14:16:31.621Z,0.0253,-0.9967,0.1128,-0.0370,0.0457,0.0149,0.0126,-0.0026,0.0088,2.9697,1.4530,2.9588
2024-10-11T14:16:31.631Z,0.0243,-0.9967,0.1150,-0.0370,0.0457,0.0149,0.0122,-0.0029,0.0073,2.9697,1.4530,2.9588
2024-10-11T14:16:31.641Z,0.0239,-0.9950,0.1155,-0.0370,0.0457,0.0149,0.0136,-0.0022,0.0101,2.9697,1.4530,2.9588
2024-10-11T14:16:31.651Z,0.0228,-0.9941,0.1168,-0.0214,-0.0002,-0.0145,0.0130,-0.0042,0.0075,2.9669,1.4526,2.9612
2024-10-11T14:16:31.660Z,0.0250,-0.9938,0.1184,-0.0214,-0.0002,-0.0145,0.0109,-0.0027,0.0081,2.9669,1.4526,2.9612
2024-10-11T14:16:31.671Z,0.0262,-0.9944,0.1186,-0.0214,-0.0002,-0.0145,0.0129,-0.0046,0.0099,2.9669,1.4526,2.9612
2024-10-11T14:16:31.681Z,0.0268,-0.9944,0.1184,-0.0685,0.0123,-0.0334,0.0131,-0.0066,0.0116,2.9638,1.4523,2.9639
2024-10-11T14:16:31.691Z,0.0273,-0.9937,0.1203,-0.0685,0.0123,-0.0334,0.0105,-0.0073,0.0094,2.9638,1.4523,2.9639
2024-10-11T14:16:31.701Z,0.0278,-0.9926,0.1207,-0.0685,0.0123,-0.0334,0.0102,-0.0055,0.0142,2.9638,1.4523,2.9639
2024-10-11T14:16:31.712Z,0.0280,-0.9933,0.1222,-0.0747,0.0180,-0.0619,0.0113,-0.0050,0.0108,2.9604,1.4521,2.9668
2024-10-11T14:16:31.721Z,0.0286,-0.9941,0.1245,-0.0747,0.0180,-0.0619,0.0084,-0.0071,0.0114,2.9604,1.4521,2.9668
2024-10-11T14:16:31.731Z,0.0281,-0.9953,0.1253,-0.0747,0.0180,-0.0619,0.0078,-0.0056,0.0136,2.9604,1.4521,2.9668
2024-10-11T14:16:31.742Z,0.0255,-0.9948,0.1259,-0.0527,0.0280,-0.0969,0.0088,-0.0039,0.0134,2.9568,1.4519,2.9700
2024-10-11T14:16:31.751Z,0.0236,-0.9974,0.1283,-0.0527,0.0280,-0.0969,0.0060,-0.0030,0.0143,2.9568,1.4519,2.9700
2024-10-11T14:16:31.761Z,0.0232,-0.9973,0.1292,-0.0527,0.0280,-0.0969,0.0048,-0.0039,0.0150,2.9568,1.4519,2.9700
2024-10-11T14:16:31.771Z,0.0218,-0.9974,0.1256,0.0007,0.0518,-0.0835,0.0045,-0.0062,0.0138,2.9529,1.4518,2.9734
2024-10-11T14:16:31.781Z,0.0192,-0.9992,0.1246,0.0007,0.0518,-0.0835,0.0013,-0.0064,0.0113,2.9529,1.4518,2.9734
2024-10-11T14:16:31.791Z,0.0173,-0.9992,0.1219,0.0007,0.0518,-0.0835,0.0051,-0.0090,0.0119,2.9529,1.4518,2.9734
2024-10-11T14:16:31.801Z,0.0147,-1.0009,0.1229,0.0662,0.0721,-0.0432,0.0057,-0.0100,0.0129,2.9499,1.4517,2.9759
2024-10-11T14:16:31.811Z,0.0138,-0.9990,0.1201,0.0662,0.0721,-0.0432,0.0007,-0.0152,0.0093,2.9499,1.4517,2.9759
2024-10-11T14:16:31.820Z,0.0140,-0.9972,0.1195,0.0662,0.0721,-0.0432,-0.0006,-0.0145,0.0087,2.9499,1.4517,2.9759
2024-10-11T14:16:31.831Z,0.0138,-0.9959,0.1170,0.0445,0.0358,0.0071,0.0023,-0.0147,0.0055,2.9481,1.4517,2.9770
2024-10-11T14:16:31.841Z,0.0148,-0.9961,0.1170,0.0445,0.0358,0.0071,0.0018,-0.0157,0.0052,2.9481,1.4517,2.9770
2024-10-11T14:16:31.851Z,0.0172,-0.9958,0.1188,0.0445,0.0358,0.0071,0.0016,-0.0196,0.0046,2.9481,1.4517,2.9770
2024-10-11T14:16:31.861Z,0.0158,-0.9958,0.1209,0.0406,0.0308,-0.0426,0.0017,-0.0195,0.0042,2.9465,1.4516,2.9778
2024-10-11T14:16:31.871Z,0.0136,-0.9967,0.1222,0.0406,0.0308,-0.0426,-0.0009,-0.0179,0.0051,2.9465,1.4516,2.9778
2024-10-11T14:16:31.881Z,0.0138,-0.9986,0.1252,0.0406,0.0308,-0.0426,-0.0014,-0.0194,0.0044,2.9465,1.4516,2.9778
2024-10-11T14:16:31.891Z,0.0130,-0.9969,0.1261,0.0678,0.0489,-0.0922,-0.0007,-0.0185,0.0036,2.9451,1.4517,2.9784
2024-10-11T14:16:31.901Z,0.0139,-0.9975,0.1260,0.0678,0.0489,-0.0922,-0.0046,-0.0145,0.0026,2.9451,1.4517,2.9784
2024-10-11T14:16:31.910Z,0.0188,-0.9966,0.1264,0.0678,0.0489,-0.0922,-0.0024,-0.0190,0.0056,2.9451,1.4517,2.9784
2024-10-11T14:16:31.921Z,0.0220,-0.9973,0.1245,-0.0431,0.0453,-0.0722,-0.0034,-0.0135,0.0036,2.9441,1.4518,2.9787
2024-10-11T14:16:31.930Z,0.0242,-0.9988,0.1251,-0.0431,0.0453,-0.0722,-0.0029,-0.0152,0.0028,2.9441,1.4518,2.9787
2024-10-11T14:16:31.942Z,0.0224,-0.9983,0.1206,-0.0431,0.0453,-0.0722,-0.0052,-0.0121,0.0048,2.9441,1.4518,2.9787
2024-10-11T14:16:31.951Z,0.0242,-0.9973,0.1217,-0.0594,0.0388,-0.0478,-0.0067,-0.0105,0.0084,2.9424,1.4520,2.9797
2024-10-11T14:16:31.961Z,0.0226,-0.9969,0.1236,-0.0594,0.0388,-0.0478,-0.0070,-0.0108,0.0098,2.9424,1.4520,2.9797
2024-10-11T14:16:31.971Z,0.0212,-0.9951,0.1228,-0.0594,0.0388,-0.0478,-0.0082,-0.0088,0.0077,2.9424,1.4520,2.9797
2024-10-11T14:16:31.980Z,0.0238,-0.9933,0.1202,-0.0405,0.0139,-0.0289,-0.0087,-0.0065,0.0058,2.9404,1.4521,2.9813
2024-10-11T14:16:31.991Z,0.0232,-0.9945,0.1194,-0.0405,0.0139,-0.0289,-0.0057,-0.0053,0.0085,2.9404,1.4521,2.9813
2024-10-11T14:16:32.001Z,0.0249,-0.9942,0.1194,-0.0405,0.0139,-0.0289,-0.0097,-0.0032,0.0120,2.9404,1.4521,2.9813
2024-10-11T14:16:32.011Z,0.0219,-0.9930,0.1220,-0.0228,-0.0033,-0.0564,-0.0078,-0.0022,0.0135,2.9378,1.4524,2.9835
2024-10-11T14:16:32.020Z,0.0201,-0.9922,0.1244,-0.0228,-0.0033,-0.0564,-0.0078,0.0013,0.0128,2.9378,1.4524,2.9835
2024-10-11T14:16:32.031Z,0.0177,-0.9907,0.1242,-0.0228,-0.0033,-0.0564,-0.0100,0.0006,0.0125,2.9378,1.4524,2.9835
2024-10-11T14:16:32.042Z,0.0169,-0.9895,0.1246,0.0161,-0.0333,-0.0694,-0.0090,0.0045,0.0135,2.9345,1.4527,2.9866
2024-10-11T14:16:32.050Z,0.0156,-0.9903,0.1213,0.0161,-0.0333,-0.0694,-0.0072,0.0017,0.0149,2.9345,1.4527,2.9866
2024-10-11T14:16:32.061Z,0.0135,-0.9899,0.1189,0.0161,-0.0333,-0.0694,-0.0094,0.0010,0.0143,2.9345,1.4527,2.9866
2024-10-11T14:16:32.071Z,0.0112,-0.9884,0.1180,0.0730,-0.0471,-0.0201,-0.0080,-0.0010,0.0146,2.9316,1.4530,2.9892
2024-10-11T14:16:32.081Z,0.0089,-0.9863,0.1189,0.0730,-0.0471,-0.0201,-0.0083,-0.0028,0.0139,2.9316,1.4530,2.9892
2024-10-11T14:16:32.090Z,0.0064,-0.9851,0.1198,0.0730,-0.0471,-0.0201,-0.0081,-0.0020,0.0122,2.9316,1.4530,2.9892
2024-10-11T14:16:32.101Z,0.0056,-0.9846,0.1201,0.1202,-0.0809,-0.0506,-0.0090,-0.0034,0.0116,2.9290,1.4532,2.9916
2024-10-11T14:16:32.111Z,0.0068,-0.9854,0.1221,0.1202,-0.0809,-0.0506,-0.0064,-0.0033,0.0075,2.9290,1.4532,2.9916
2024-10-11T14:16:32.120Z,0.0067,-0.9870,0.1204,0.1202,-0.0809,-0.0506,-0.0058,-0.0054,0.0091,2.9290,1.4532,2.9916
2024-10-11T14:16:32.131Z,0.0045,-0.9889,0.1220,0.1084,-0.0392,-0.0683,-0.0050,-0.0055,0.0078,2.9268,1.4534,2.9934
2024-10-11T14:16:32.142Z,0.0076,-0.9889,0.1208,0.1084,-0.0392,-0.0683,-0.0059,-0.0047,0.0078,2.9268,1.4534,2.9934
2024-10-11T14:16:32.151Z,0.0090,-0.9888,0.1189,0.1084,-0.0392,-0.0683,-0.0041,-0.0055,0.0076,2.9268,1.4534,2.9934
2024-10-11T14:16:32.162Z,0.0098,-0.9883,0.1185,0.0770,-0.0480,-0.0274,-0.0041,-0.0058,0.0056,2.9251,1.4536,2.9946
2024-10-11T14:16:32.171Z,0.0083,-0.9881,0.1188,0.0770,-0.0480,-0.0274,-0.0050,-0.0068,0.0054,2.9251,1.4536,2.9946
2024-10-11T14:16:32.181Z,0.0066,-0.9890,0.1162,0.0770,-0.0480,-0.0274,-0.0046,-0.0063,0.0038,2.9251,1.4536,2.9946
2024-10-11T14:16:32.192Z,0.0041,-0.9897,0.1139,0.1226,-0.0208,0.0178,-0.0036,-0.0095,0.0040,2.9231,1.4537,2.9961
2024-10-11T14:16:32.201Z,0.0042,-0.9917,0.1141,0.1226,-0.0208,0.0178,-0.0018,-0.0059,0.0030,2.9231,1.4537,2.9961
2024-10-11T14:16:32.211Z,0.0025,-0.9902,0.1125,0.1226,-0.0208,0.0178,-0.0002,-0.0082,-0.0006,2.9231,1.4537,2.9961
2024-10-11T14:16:32.221Z,0.0020,-0.9902,0.1142,0.1600,-0.0376,0.0334,0.0012,-0.0088,0.0000,2.9210,1.4535,2.9977
2024-10-11T14:16:32.231Z,0.0004,-0.9881,0.1122,0.1600,-0.0376,0.0334,0.0003,-0.0106,-0.0008,2.9210,1.4535,2.9977
2024-10-11T14:16:32.241Z,0.0015,-0.9893,0.1127,0.1600,-0.0376,0.0334,0.0037,-0.0103,-0.0032,2.9210,1.4535,2.9977
2024-10-11T14:16:32.251Z,0.0018,-0.9895,0.1111,0.1441,-0.0392,0.0544,0.0037,-0.0104,-0.0042,2.9208,1.4534,2.9973
2024-10-11T14:16:32.260Z,0.0026,-0.9896,0.1110,0.1441,-0.0392,0.0544,0.0029,-0.0088,-0.0077,2.9208,1.4534,2.9973
2024-10-11T14:16:32.271Z,0.0029,-0.9905,0.1117,0.1441,-0.0392,0.0544,0.0073,-0.0071,-0.0079,2.9208,1.4534,2.9973
2024-10-11T14:16:32.281Z,0.0044,-0.9893,0.1131,0.1198,-0.0366,0.0419,0.0067,-0.0099,-0.0075,2.9210,1.4532,2.9967
2024-10-11T14:16:32.290Z,0.0041,-0.9899,0.1109,0.1198,-0.0366,0.0419,0.0090,-0.0100,-0.0076,2.9210,1.4532,2.9967
2024-10-11T14:16:32.301Z,0.0051,-0.9897,0.1128,0.1198,-0.0366,0.0419,0.0096,-0.0074,-0.0101,2.9210,1.4532,2.9967
2024-10-11T14:16:32.311Z,0.0050,-0.9908,0.1149,0.1176,-0.0160,-0.0038,0.0082,-0.0122,-0.0081,2.9194,1.4530,2.9978
2024-10-11T14:16:32.321Z,0.0038,-0.9924,0.1177,0.1176,-0.0160,-0.0038,0.0109,-0.0095,-0.0110,2.9194,1.4530,2.9978
2024-10-11T14:16:32.331Z,0.0026,-0.9937,0.1192,0.1176,-0.0160,-0.0038,0.0073,-0.0105,-0.0134,2.9194,1.4530,2.9978
2024-10-11T14:16:32.341Z,0.0041,-0.9927,0.1216,0.1351,0.0022,-0.0558,0.0073,-0.0110,-0.0116,2.9182,1.4530,2.9984
2024-10-11T14:16:32.351Z,0.0027,-0.9926,0.1218,0.1351,0.0022,-0.0558,0.0070,-0.0130,-0.0127,2.9182,1.4530,2.9984
2024-10-11T14:16:32.361Z,0.0034,-0.9913,0.1220,0.1351,0.0022,-0.0558,0.0066,-0.0137,-0.0166,2.9182,1.4530,2.9984
2024-10-11T14:16:32.371Z,0.0032,-0.9928,0.1237,0.1308,0.0048,-0.0596,0.0048,-0.0134,-0.0192,2.9209,1.4527,2.9951
2024-10-11T14:16:32.381Z,0.0036,-0.9935,0.1229,0.1308,0.0048,-0.0596,0.0039,-0.0170,-0.0178,2.9209,1.4527,2.9951
2024-10-11T14:16:32.392Z,0.0020,-0.9947,0.1223,0.1308,0.0048,-0.0596,0.0052,-0.0185,-0.0206,2.9209,1.4527,2.9951
2024-10-11T14:16:32.400Z,0.0027,-0.9949,0.1202,0.1320,0.0124,-0.0402,0.0046,-0.0184,-0.0213,2.9250,1.4525,2.9902
2024-10-11T14:16:32.410Z,0.0043,-0.9951,0.1207,0.1320,0.0124,-0.0402,0.0048,-0.0182,-0.0203,2.9250,1.4525,2.9902
2024-10-11T14:16:32.420Z,0.0055,-0.9980,0.1201,0.1320,0.0124,-0.0402,0.0013,-0.0176,-0.0246,2.9250,1.4525,2.9902
2024-10-11T14:16:32.430Z,0.0082,-0.9983,0.1222,0.1043,0.0476,-0.0560,0.0038,-0.0206,-0.0214,2.9290,1.4523,2.9854
2024-10-11T14:16:32.441Z,0.0082,-0.9974,0.1221,0.1043,0.0476,-0.0560,0.0016,-0.0183,-0.0233,2.9290,1.4523,2.9854
2024-10-11T14:16:32.451Z,0.0107,-0.9974,0.1228,0.1043,0.0476,-0.0560,-0.0011,-0.0157,-0.0235,2.9290,1.4523,2.9854
2024-10-11T14:16:32.461Z,0.0129,-0.9969,0.1228,0.0599,0.0277,-0.0514,-0.0004,-0.0168,-0.0221,2.9326,1.4522,2.9811
2024-10-11T14:16:32.471Z,0.0141,-0.9953,0.1222,0.0599,0.0277,-0.0514,0.0015,-0.0154,-0.0238,2.9326,1.4522,2.9811
2024-10-11T14:16:32.481Z,0.0148,-0.9952,0.1215,0.0599,0.0277,-0.0514,-0.0017,-0.0138,-0.0261,2.9326,1.4522,2.9811
2024-10-11T14:16:32.492Z,0.0195,-0.9949,0.1219,0.0004,0.0255,-0.0411,-0.0002,-0.0128,-0.0200,2.9374,1.4521,2.9757
2024-10-11T14:16:32.501Z,0.0185,-0.9949,0.1198,0.0004,0.0255,-0.0411,0.0004,-0.0103,-0.0211,2.9374,1.4521,2.9757
2024-10-11T14:16:32.510Z,0.0196,-0.9964,0.1194,0.0004,0.0255,-0.0411,-0.0037,-0.0072,-0.0197,2.9374,1.4521,2.9757
2024-10-11T14:16:32.520Z,0.0225,-0.9979,0.1188,-0.0369,0.0440,-0.0286,-0.0030,-0.0048,-0.0186,2.9418,1.4520,2.9709
2024-10-11T14:16:32.531Z,0.0242,-0.9970,0.1205,-0.0369,0.0440,-0.0286,-0.0031,-0.0030,-0.0179,2.9418,1.4520,2.9709
2024-10-11T14:16:32.541Z,0.0249,-0.9959,0.1208,-0.0369,0.0440,-0.0286,-0.0027,-0.0012,-0.0169,2.9418,1.4520,2.9709
2024-10-11T14:16:32.551Z,0.0236,-0.9960,0.1211,-0.0403,0.0073,-0.0636,-0.0039,-0.0002,-0.0165,2.9455,1.4520,2.9669
2024-10-11T14:16:32.561Z,0.0265,-0.9934,0.1243,-0.0403,0.0073,-0.0636,-0.0031,0.0018,-0.0118,2.9455,1.4520,2.9669
2024-10-11T14:16:32.571Z,0.0287,-0.9938,0.1252,-0.0403,0.0073,-0.0636,-0.0067,0.0025,-0.0128,2.9455,1.4520,2.9669
2024-10-11T14:16:32.581Z,0.0292,-0.9944,0.1255,-0.0794,0.0043,-0.0937,-0.0069,0.0054,-0.0087,2.9481,1.4521,2.9641
2024-10-11T14:16:32.592Z,0.0284,-0.9931,0.1266,-0.0794,0.0043,-0.0937,-0.0065,0.0055,-0.0100,2.9481,1.4521,2.9641
2024-10-11T14:16:32.601Z,0.0266,-0.9913,0.1297,-0.0794,0.0043,-0.0937,-0.0094,0.0044,-0.0067,2.9481,1.4521,2.9641
2024-10-11T14:16:32.610Z,0.0238,-0.9886,0.1286,-0.0160,-0.0351,-0.1145,-0.0089,0.0036,-0.0065,2.9500,1.4523,2.9621
2024-10-11T14:16:32.621Z,0.0227,-0.9909,0.1280,-0.0160,-0.0351,-0.1145,-0.0085,0.0032,-0.0077,2.9500,1.4523,2.9621
2024-10-11T14:16:32.631Z,0.0194,-0.9895,0.1241,-0.0160,-0.0351,-0.1145,-0.0105,0.0016,-0.0061,2.9500,1.4523,2.9621
2024-10-11T14:16:32.641Z,0.0181,-0.9906,0.1250,0.0286,-0.0291,-0.0854,-0.0091,0.0002,-0.0057,2.9520,1.4525,2.9600
2024-10-11T14:16:32.651Z,0.0190,-0.9887,0.1236,0.0286,-0.0291,-0.0854,-0.0126,0.0015,-0.0042,2.9520,1.4525,2.9600
2024-10-11T14:16:32.661Z,0.0210,-0.9874,0.1210,0.0286,-0.0291,-0.0854,-0.0155,-0.0012,-0.0061,2.9520,1.4525,2.9600
2024-10-11T14:16:32.671Z,0.0207,-0.9875,0.1179,0.0010,-0.0544,-0.0033,-0.0141,-0.0005,-0.0040,2.9541,1.4527,2.9576
2024-10-11T14:16:32.681Z,0.0209,-0.9879,0.1151,0.0010,-0.0544,-0.0033,-0.0144,0.0008,-0.0062,2.9541,1.4527,2.9576
2024-10-11T14:16:32.691Z,0.0198,-0.9927,0.1132,0.0010,-0.0544,-0.0033,-0.0140,-0.0010,-0.0069,2.9541,1.4527,2.9576
2024-10-11T14:16:32.701Z,0.0217,-0.9958,0.1105,-0.0034,0.0358,0.0514,-0.0149,-0.0006,-0.0050,2.9563,1.4530,2.9552
2024-10-11T14:16:32.711Z,0.0215,-0.9974,0.1100,-0.0034,0.0358,0.0514,-0.0161,0.0000,-0.0040,2.9563,1.4530,2.9552
2024-10-11T14:16:32.721Z,0.0253,-0.9985,0.1085,-0.0034,0.0358,0.0514,-0.0143,-0.0051,-0.0032,2.9563,1.4530,2.9552
2024-10-11T14:16:32.731Z,0.0270,-1.0005,0.1076,-0.0612,0.0800,0.0834,-0.0129,-0.0044,-0.0060,2.9578,1.4533,2.9533
2024-10-11T14:16:32.742Z,0.0297,-1.0022,0.1069,-0.0612,0.0800,0.0834,-0.0091,-0.0022,-0.0046,2.9578,1.4533,2.9533
2024-10-11T14:16:32.750Z,0.0298,-1.0025,0.1067,-0.0612,0.0800,0.0834,-0.0060,-0.0067,-0.0022,2.9578,1.4533,2.9533
2024-10-11T14:16:32.761Z,0.0320,-1.0037,0.1057,-0.0952,0.0968,0.0724,-0.0063,-0.0053,0.0011,2.9583,1.4535,2.9524
2024-10-11T14:16:32.771Z,0.0311,-1.0025,0.1081,-0.0952,0.0968,0.0724,-0.0078,-0.0029,-0.0005,2.9583,1.4535,2.9524
2024-10-11T14:16:32.780Z,0.0315,-1.0008,0.1094,-0.0952,0.0968,0.0724,-0.0036,0.0003,0.0015,2.9583,1.4535,2.9524
2024-10-11T14:16:32.792Z,0.0316,-0.9978,0.1128,-0.0949,0.0198,0.0090,-0.0027,0.0012,0.0014,2.9579,1.4536,2.9526
2024-10-11T14:16:32.801Z,0.0311,-0.9921,0.1159,-0.0949,0.0198,0.0090,-0.0055,0.0043,0.0023,2.9579,1.4536,2.9526
2024-10-11T14:16:32.810Z,0.0290,-0.9904,0.1202,-0.0949,0.0198,0.0090,-0.0045,0.0032,0.0044,2.9579,1.4536,2.9526
2024-10-11T14:16:32.821Z,0.0299,-0.9880,0.1203,-0.0792,-0.0511,-0.0354,-0.0049,0.0067,0.0053,2.9573,1.4538,2.9531
2024-10-11T14:16:32.832Z,0.0299,-0.9874,0.1186,-0.0792,-0.0511,-0.0354,-0.0089,0.0078,0.0057,2.9573,1.4538,2.9531
2024-10-11T14:16:32.841Z,0.0285,-0.9857,0.1213,-0.0792,-0.0511,-0.0354,-0.0050,0.0127,0.0053,2.9573,1.4538,2.9531
2024-10-11T14:16:32.851Z,0.0263,-0.9858,0.1200,-0.0453,-0.0744,-0.0565,-0.0071,0.0119,0.0050,2.9563,1.4541,2.9541
2024-10-11T14:16:32.860Z,0.0258,-0.9850,0.1194,-0.0453,-0.0744,-0.0565,-0.0087,0.0161,0.0049,2.9563,1.4541,2.9541
2024-10-11T14:16:32.871Z,0.0229,-0.9843,0.1157,-0.0453,-0.0744,-0.0565,-0.0087,0.0155,0.0053,2.9563,1.4541,2.9541
2024-10-11T14:16:32.881Z,0.0237,-0.9851,0.1154,-0.0238,-0.0534,-0.0020,-0.0075,0.0165,0.0042,2.9555,1.4543,2.9551
2024-10-11T14:16:32.892Z,0.0230,-0.9877,0.1130,-0.0238,-0.0534,-0.0020,-0.0055,0.0174,0.0018,2.9555,1.4543,2.9551
2024-10-11T14:16:32.901Z,0.0219,-0.9884,0.1106,-0.0238,-0.0534,-0.0020,-0.0049,0.0155,0.0022,2.9555,1.4543,2.9551
2024-10-11T14:16:32.911Z,0.0204,-0.9897,0.1105,0.0170,-0.0470,0.0359,-0.0087,0.0158,0.0017,2.9551,1.4544,2.9558
2024-10-11T14:16:32.921Z,0.0205,-0.9898,0.1103,0.0170,-0.0470,0.0359,-0.0024,0.0137,0.0016,2.9551,1.4544,2.9558
2024-10-11T14:16:32.931Z,0.0209,-0.9886,0.1111,0.0170,-0.0470,0.0359,-0.0025,0.0137,-0.0004,2.9551,1.4544,2.9558
2024-10-11T14:16:32.941Z,0.0201,-0.9878,0.1133,0.0102,-0.0452,0.0107,-0.0004,0.0104,0.0003,2.9551,1.4544,2.9558
2024-10-11T14:16:32.950Z,0.0224,-0.9888,0.1128,0.0102,-0.0452,0.0107,-0.0010,0.0094,-0.0013,2.9551,1.4544,2.9558
2024-10-11T14:16:32.961Z,0.0244,-0.9895,0.1140,0.0102,-0.0452,0.0107,0.0021,0.0108,-0.0028,2.9551,1.4544,2.9558
2024-10-11T14:16:32.971Z,0.0237,-0.9912,0.1133,-0.0129,-0.0208,0.0085,0.0002,0.0091,0.0012,2.9553,1.4544,2.9557
2024-10-11T14:16:32.981Z,0.0233,-0.9897,0.1156,-0.0129,-0.0208,0.0085,-0.0014,0.0086,0.0007,2.9553,1.4544,2.9557
2024-10-11T14:16:32.991Z,0.0255,-0.9867,0.1141,-0.0129,-0.0208,0.0085,0.0045,0.0074,-0.0036,2.9553,1.4544,2.9557
2024-10-11T14:16:33.000Z,0.0243,-0.9884,0.1146,-0.0197,-0.0364,-0.0151,0.0035,0.0042,-0.0035,2.9556,1.4544,2.9553
2024-10-11T14:16:33.011Z,0.0245,-0.9894,0.1160,-0.0197,-0.0364,-0.0151,0.0055,0.0050,-0.0043,2.9556,1.4544,2.9553
2024-10-11T14:16:33.021Z,0.0252,-0.9903,0.1146,-0.0197,-0.0364,-0.0151,0.0043,0.0032,-0.0054,2.9556,1.4544,2.9553
2024-10-11T14:16:33.031Z,0.0236,-0.9925,0.1133,-0.0129,-0.0026,0.0225,0.0048,0.0026,-0.0047,2.9566,1.4543,2.9542
2024-10-11T14:16:33.041Z,0.0241,-0.9923,0.1125,-0.0129,-0.0026,0.0225,0.0079,0.0014,-0.0056,2.9566,1.4543,2.9542
2024-10-11T14:16:33.051Z,0.0254,-0.9902,0.1136,-0.0129,-0.0026,0.0225,0.0062,0.0027,-0.0077,2.9566,1.4543,2.9542
2024-10-11T14:16:33.061Z,0.0239,-0.9897,0.1117,-0.0067,-0.0258,0.0240,0.0072,0.0022,-0.0042,2.9591,1.4540,2.9515
2024-10-11T14:16:33.071Z,0.0223,-0.9903,0.1130,-0.0067,-0.0258,0.0240,0.0111,0.0013,-0.0079,2.9591,1.4540,2.9515
2024-10-11T14:16:33.081Z,0.0219,-0.9895,0.1126,-0.0067,-0.0258,0.0240,0.0095,-0.0015,-0.0050,2.9591,1.4540,2.9515
2024-10-11T14:16:33.091Z,0.0226,-0.9888,0.1131,0.0017,-0.0376,0.0180,0.0148,-0.0006,-0.0084,2.9632,1.4533,2.9471
2024-10-11T14:16:33.100Z,0.0230,-0.9892,0.1132,0.0017,-0.0376,0.0180,0.0109,-0.0010,-0.0083,2.9632,1.4533,2.9471
2024-10-11T14:16:33.110Z,0.0219,-0.9888,0.1150,0.0017,-0.0376,0.0180,0.0120,-0.0012,-0.0058,2.9632,1.4533,2.9471
2024-10-11T14:16:33.121Z,0.0220,-0.9890,0.1162,-0.0007,-0.0341,-0.0037,0.0123,-0.0008,-0.0063,2.9676,1.4533,2.9424
2024-10-11T14:16:33.131Z,0.0242,-0.9893,0.1151,-0.0007,-0.0341,-0.0037,0.0100,0.0007,-0.0095,2.9676,1.4533,2.9424
2024-10-11T14:16:33.141Z,0.0243,-0.9877,0.1164,-0.0007,-0.0341,-0.0037,0.0122,0.0009,-0.0062,2.9676,1.4533,2.9424
2024-10-11T14:16:33.151Z,0.0254,-0.9884,0.1176,-0.0143,-0.0170,-0.0337,0.0082,0.0064,-0.0052,2.9690,1.4532,2.9409
2024-10-11T14:16:33.160Z,0.0249,-0.9921,0.1197,-0.0143,-0.0170,-0.0337,0.0080,0.0089,-0.0051,2.9690,1.4532,2.9409
2024-10-11T14:16:33.171Z,0.0249,-0.9902,0.1203,-0.0143,-0.0170,-0.0337,0.0085,0.0104,-0.0042,2.9690,1.4532,2.9409
2024-10-11T14:16:33.181Z,0.0260,-0.9910,0.1216,-0.0345,-0.0086,-0.0562,0.0056,0.0141,-0.0035,2.9695,1.4530,2.9405
2024-10-11T14:16:33.191Z,0.0264,-0.9922,0.1213,-0.0345,-0.0086,-0.0562,0.0079,0.0142,-0.0018,2.9695,1.4530,2.9405
2024-10-11T14:16:33.201Z,0.0266,-0.9918,0.1225,-0.0345,-0.0086,-0.0562,0.0070,0.0139,-0.0013,2.9695,1.4530,2.9405
2024-10-11T14:16:33.210Z,0.0271,-0.9943,0.1220,-0.0254,0.0242,-0.0589,0.0067,0.0102,-0.0017,2.9693,1.4528,2.9408
2024-10-11T14:16:33.221Z,0.0258,-0.9961,0.1201,-0.0254,0.0242,-0.0589,0.0059,0.0123,-0.0009,2.9693,1.4528,2.9408
2024-10-11T14:16:33.231Z,0.0265,-0.9988,0.1188,-0.0254,0.0242,-0.0589,0.0060,0.0096,-0.0004,2.9693,1.4528,2.9408
2024-10-11T14:16:33.241Z,0.0254,-0.9988,0.1180,-0.0230,0.0481,-0.0247,0.0031,0.0073,0.0016,2.9688,1.4526,2.9413
2024-10-11T14:16:33.251Z,0.0260,-0.9980,0.1186,-0.0230,0.0481,-0.0247,0.0031,0.0073,0.0016,2.9688,1.4526,2.9413
2024-10-11T14:16:33.260Z,0.0261,-0.9978,0.1181,-0.0230,0.0481,-0.0247,0.0024,0.0077,0.0030,2.9688,1.4526,2.9413
2024-10-11T14:16:33.271Z,0.0266,-0.9975,0.1167,-0.0350,0.0493,-0.0188,0.0027,0.0058,0.0047,2.9681,1.4525,2.9420
2024-10-11T14:16:33.282Z,0.0270,-0.9989,0.1181,-0.0350,0.0493,-0.0188,0.0020,0.0053,0.0029,2.9681,1.4525,2.9420
2024-10-11T14:16:33.292Z,0.0261,-0.9996,0.1198,-0.0350,0.0493,-0.0188,0.0023,0.0033,0.0030,2.9681,1.4525,2.9420
2024-10-11T14:16:33.300Z,0.0230,-1.0004,0.1183,0.0033,0.0717,-0.0441,0.0023,0.0033,0.0030,2.9668,1.4524,2.9431
2024-10-11T14:16:33.310Z,0.0216,-1.0004,0.1216,0.0033,0.0717,-0.0441,0.0023,0.0017,0.0039,2.9668,1.4524,2.9431
2024-10-11T14:16:33.322Z,0.0220,-0.9997,0.1224,0.0033,0.0717,-0.0441,0.0004,0.0047,0.0050,2.9668,1.4524,2.9431
2024-10-11T14:16:33.330Z,0.0252,-0.9976,0.1225,-0.0204,0.0555,-0.0672,0.0004,0.0047,0.0050,2.9653,1.4524,2.9444
2024-10-11T14:16:33.342Z,0.0262,-0.9984,0.1223,-0.0204,0.0555,-0.0672,-0.0013,0.0008,0.0082,2.9653,1.4524,2.9444
2024-10-11T14:16:33.351Z,0.0297,-0.9975,0.1228,-0.0204,0.0555,-0.0672,-0.0013,0.0006,0.0129,2.9653,1.4524,2.9444
2024-10-11T14:16:33.360Z,0.0302,-0.9975,0.1247,-0.0768,0.0485,-0.0891,-0.0013,0.0006,0.0129,2.9632,1.4524,2.9463
2024-10-11T14:16:33.372Z,0.0310,-0.9966,0.1246,-0.0768,0.0485,-0.0891,-0.0036,-0.0007,0.0145,2.9632,1.4524,2.9463
2024-10-11T14:16:33.382Z,0.0315,-0.9948,0.1286,-0.0768,0.0485,-0.0891,-0.0067,0.0010,0.0129,2.9632,1.4524,2.9463
2024-10-11T14:16:33.392Z,0.0316,-0.9939,0.1307,-0.1025,0.0070,-0.1534,-0.0057,0.0004,0.0155,2.9597,1.4525,2.9496
2024-10-11T14:16:33.401Z,0.0341,-0.9934,0.1308,-0.1025,0.0070,-0.1534,-0.0097,0.0014,0.0192,2.9597,1.4525,2.9496
2024-10-11T14:16:33.410Z,0.0353,-0.9933,0.1310,-0.1025,0.0070,-0.1534,-0.0097,0.0014,0.0192,2.9597,1.4525,2.9496
2024-10-11T14:16:33.421Z,0.0347,-0.9975,0.1335,-0.1194,0.0497,-0.1632,-0.0145,-0.0019,0.0192,2.9557,1.4529,2.9533
2024-10-11T14:16:33.431Z,0.0344,-0.9970,0.1312,-0.1194,0.0497,-0.1632,-0.0121,-0.0035,0.0217,2.9557,1.4529,2.9533
2024-10-11T14:16:33.442Z,0.0350,-0.9952,0.1297,-0.1194,0.0497,-0.1632,-0.0169,-0.0077,0.0180,2.9557,1.4529,2.9533
2024-10-11T14:16:33.451Z,0.0295,-0.9924,0.1260,-0.0699,-0.0001,-0.0989,-0.0129,-0.0094,0.0222,2.9513,1.4533,2.9572
2024-10-11T14:16:33.461Z,0.0268,-0.9944,0.1246,-0.0699,-0.0001,-0.0989,-0.0129,-0.0094,0.0222,2.9513,1.4533,2.9572
2024-10-11T14:16:33.472Z,0.0252,-0.9949,0.1228,-0.0699,-0.0001,-0.0989,-0.0141,-0.0111,0.0215,2.9513,1.4533,2.9572
2024-10-11T14:16:33.481Z,0.0260,-0.9960,0.1188,-0.0293,0.0315,-0.0357,-0.0128,-0.0101,0.0196,2.9470,1.4538,2.9609
2024-10-11T14:16:33.492Z,0.0213,-0.9970,0.1175,-0.0293,0.0315,-0.0357,-0.0115,-0.0159,0.0204,2.9470,1.4538,2.9609
2024-10-11T14:16:33.501Z,0.0217,-0.9952,0.1193,-0.0293,0.0315,-0.0357,-0.0128,-0.0184,0.0193,2.9470,1.4538,2.9609
2024-10-11T14:16:33.511Z,0.0227,-0.9958,0.1219,-0.0329,0.0140,-0.0711,-0.0093,-0.0211,0.0186,2.9430,1.4541,2.9642
2024-10-11T14:16:33.522Z,0.0248,-0.9936,0.1213,-0.0329,0.0140,-0.0711,-0.0144,-0.0243,0.0134,2.9430,1.4541,2.9642
2024-10-11T14:16:33.532Z,0.0221,-0.9964,0.1196,-0.0329,0.0140,-0.0711,-0.0129,-0.0285,0.0156,2.9430,1.4541,2.9642
2024-10-11T14:16:33.541Z,0.0186,-0.9978,0.1199,0.0063,0.0439,-0.0446,-0.0153,-0.0342,0.0141,2.9394,1.4546,2.9666
2024-10-11T14:16:33.551Z,0.0211,-0.9984,0.1186,0.0063,0.0439,-0.0446,-0.0128,-0.0350,0.0146,2.9394,1.4546,2.9666
2024-10-11T14:16:33.561Z,0.0251,-0.9962,0.1174,0.0063,0.0439,-0.0446,-0.0150,-0.0387,0.0125,2.9394,1.4546,2.9666
2024-10-11T14:16:33.571Z,0.0238,-0.9956,0.1172,-0.0469,0.0293,-0.0414,-0.0127,-0.0422,0.0117,2.9365,1.4550,2.9682
2024-10-11T14:16:33.581Z,0.0272,-0.9960,0.1175,-0.0469,0.0293,-0.0414,-0.0153,-0.0433,0.0115,2.9365,1.4550,2.9682
2024-10-11T14:16:33.591Z,0.0310,-0.9913,0.1181,-0.0469,0.0293,-0.0414,-0.0123,-0.0496,0.0115,2.9365,1.4550,2.9682
2024-10-11T14:16:33.601Z,0.0311,-0.9930,0.1182,-0.1137,-0.0085,-0.0319,-0.0135,-0.0530,0.0117,2.9338,1.4554,2.9692
2024-10-11T14:16:33.611Z,0.0314,-0.9912,0.1174,-0.1137,-0.0085,-0.0319,-0.0135,-0.0530,0.0117,2.9338,1.4554,2.9692
2024-10-11T14:16:33.621Z,0.0314,-0.9912,0.1174,-0.1137,-0.0085,-0.0319,-0.0148,-0.0572,0.0133,2.9338,1.4554,2.9692
2024-10-11T14:16:33.631Z,0.0303,-0.9906,0.1188,-0.1041,-0.0466,-0.0590,-0.0126,-0.0587,0.0126,2.9310,1.4558,2.9701
2024-10-11T14:16:33.641Z,0.0305,-0.9889,0.1173,-0.1041,-0.0466,-0.0590,-0.0176,-0.0612,0.0116,2.9310,1.4558,2.9701
2024-10-11T14:16:33.651Z,0.0326,-0.9895,0.1151,-0.1041,-0.0466,-0.0590,-0.0183,-0.0638,0.0142,2.9310,1.4558,2.9701
2024-10-11T14:16:33.661Z,0.0325,-0.9899,0.1156,-0.1275,-0.0366,-0.0310,-0.0183,-0.0638,0.0142,2.9282,1.4564,2.9708
2024-10-11T14:16:33.671Z,0.0322,-0.9888,0.1142,-0.1275,-0.0366,-0.0310,-0.0167,-0.0697,0.0137,2.9282,1.4564,2.9708
2024-10-11T14:16:33.681Z,0.0323,-0.9902,0.1147,-0.1275,-0.0366,-0.0310,-0.0167,-0.0697,0.0137,2.9282,1.4564,2.9708
2024-10-11T14:16:33.691Z,0.0307,-0.9895,0.1127,-0.1172,-0.0420,-0.0030,-0.0150,-0.0776,0.0137,2.9254,1.4569,2.9713
2024-10-11T14:16:33.701Z,0.0280,-0.9894,0.1122,-0.1172,-0.0420,-0.0030,-0.0155,-0.0797,0.0119,2.9254,1.4569,2.9713
2024-10-11T14:16:33.711Z,0.0280,-0.9894,0.1122,-0.1172,-0.0420,-0.0030,-0.0155,-0.0811,0.0109,2.9254,1.4569,2.9713
2024-10-11T14:16:33.721Z,0.0249,-0.9904,0.1115,-0.0472,-0.0263,-0.0054,-0.0137,-0.0842,0.0107,2.9230,1.4575,2.9712
2024-10-11T14:16:33.731Z,0.0234,-0.9908,0.1115,-0.0472,-0.0263,-0.0054,-0.0146,-0.0886,0.0081,2.9230,1.4575,2.9712
2024-10-11T14:16:33.741Z,0.0214,-0.9931,0.1068,-0.0472,-0.0263,-0.0054,-0.0135,-0.0949,0.0078,2.9230,1.4575,2.9712
2024-10-11T14:16:33.751Z,0.0214,-0.9931,0.1068,-0.0090,0.0013,0.0245,-0.0108,-0.0981,0.0069,2.9213,1.4579,2.9699
2024-10-11T14:16:33.761Z,0.0204,-0.9926,0.1103,-0.0090,0.0013,0.0245,-0.0122,-0.0996,0.0056,2.9213,1.4579,2.9699
2024-10-11T14:16:33.771Z,0.0211,-0.9888,0.1106,-0.0090,0.0013,0.0245,-0.0113,-0.1028,0.0037,2.9213,1.4579,2.9699
2024-10-11T14:16:33.781Z,0.0223,-0.9875,0.1107,-0.0416,-0.0685,0.0107,-0.0096,-0.1058,0.0034,2.9208,1.4582,2.9672
2024-10-11T14:16:33.791Z,0.0228,-0.9893,0.1076,-0.0416,-0.0685,0.0107,-0.0085,-0.1080,0.0011,2.9208,1.4582,2.9672
2024-10-11T14:16:33.801Z,0.0228,-0.9893,0.1076,-0.0416,-0.0685,0.0107,-0.0080,-0.1109,-0.0005,2.9208,1.4582,2.9672
2024-10-11T14:16:33.811Z,0.0243,-0.9894,0.1080,-0.0194,-0.0476,0.0388,-0.0061,-0.1153,-0.0006,2.9209,1.4585,2.9636
2024-10-11T14:16:33.821Z,0.0226,-0.9879,0.1059,-0.0194,-0.0476,0.0388,-0.0060,-0.1180,0.0013,2.9209,1.4585,2.9636
2024-10-11T14:16:33.831Z,0.0240,-0.9884,0.1068,-0.0194,-0.0476,0.0388,-0.0031,-0.1202,-0.0004,2.9209,1.4585,2.9636
2024-10-11T14:16:33.841Z,0.0224,-0.9876,0.1070,-0.0428,-0.0564,0.0264,-0.0060,-0.1214,-0.0006,2.9213,1.4586,2.9594
2024-10-11T14:16:33.851Z,0.0273,-0.9893,0.1076,-0.0428,-0.0564,0.0264,-0.0025,-0.1242,-0.0008,2.9213,1.4586,2.9594
2024-10-11T14:16:33.861Z,0.0296,-0.9928,0.1122,-0.0428,-0.0564,0.0264,-0.0025,-0.1242,-0.0008,2.9213,1.4586,2.9594
2024-10-11T14:16:33.871Z,0.0262,-0.9916,0.1146,-0.0758,-0.0139,-0.0408,-0.0045,-0.1250,-0.0002,2.9215,1.4587,2.9552
2024-10-11T14:16:33.881Z,0.0262,-0.9916,0.1146,-0.0758,-0.0139,-0.0408,-0.0021,-0.1258,-0.0010,2.9215,1.4587,2.9552
2024-10-11T14:16:33.891Z,0.0257,-0.9903,0.1160,-0.0758,-0.0139,-0.0408,-0.0027,-0.1280,0.0015,2.9215,1.4587,2.9552
2024-10-11T14:16:33.901Z,0.0254,-0.9886,0.1175,-0.0375,-0.0445,-0.0782,-0.0035,-0.1298,0.0018,2.9215,1.4588,2.9511
2024-10-11T14:16:33.912Z,0.0254,-0.9886,0.1175,-0.0375,-0.0445,-0.0782,-0.0025,-0.1294,0.0001,2.9215,1.4588,2.9511
2024-10-11T14:16:33.921Z,0.0249,-0.9936,0.1166,-0.0375,-0.0445,-0.0782,-0.0030,-0.1314,-0.0001,2.9215,1.4588,2.9511
2024-10-11T14:16:33.931Z,0.0247,-0.9922,0.1177,-0.0297,-0.0268,-0.0728,-0.0028,-0.1343,0.0004,2.9215,1.4589,2.9470
2024-10-11T14:16:33.941Z,0.0271,-0.9927,0.1169,-0.0297,-0.0268,-0.0728,-0.0012,-0.1353,0.0009,2.9215,1.4589,2.9470
2024-10-11T14:16:33.951Z,0.0271,-0.9927,0.1169,-0.0297,-0.0268,-0.0728,-0.0049,-0.1348,0.0021,2.9215,1.4589,2.9470
2024-10-11T14:16:33.962Z,0.0273,-0.9919,0.1165,-0.0584,-0.0133,-0.0683,-0.0041,-0.1364,0.0035,2.9210,1.4590,2.9431
2024-10-11T14:16:33.971Z,0.0307,-0.9913,0.1165,-0.0584,-0.0133,-0.0683,-0.0064,-0.1354,0.0055,2.9210,1.4590,2.9431
2024-10-11T14:16:33.981Z,0.0307,-0.9913,0.1165,-0.0584,-0.0133,-0.0683,-0.0038,-0.1354,0.0033,2.9210,1.4590,2.9431
2024-10-11T14:16:33.991Z,0.0325,-0.9921,0.1186,-0.1032,-0.0187,-0.0793,-0.0042,-0.1336,0.0069,2.9198,1.4591,2.9400
2024-10-11T14:16:34.001Z,0.0285,-0.9940,0.1154,-0.1032,-0.0187,-0.0793,-0.0019,-0.1316,0.0059,2.9198,1.4591,2.9400
2024-10-11T14:16:34.011Z,0.0285,-0.9940,0.1154,-0.1032,-0.0187,-0.0793,-0.0024,-0.1330,0.0089,2.9198,1.4591,2.9400
2024-10-11T14:16:34.021Z,0.0271,-0.9899,0.1147,-0.0601,-0.0304,-0.0609,-0.0028,-0.1337,0.0092,2.9178,1.4592,2.9378
2024-10-11T14:16:34.032Z,0.0257,-0.9905,0.1150,-0.0601,-0.0304,-0.0609,-0.0020,-0.1302,0.0094,2.9178,1.4592,2.9378
2024-10-11T14:16:34.041Z,0.0246,-0.9898,0.1146,-0.0601,-0.0304,-0.0609,-0.0028,-0.1297,0.0103,2.9178,1.4592,2.9378
2024-10-11T14:16:34.051Z,0.0252,-0.9917,0.1146,-0.0217,-0.0304,-0.0462,-0.0030,-0.1279,0.0077,2.9153,1.4593,2.9361
2024-10-11T14:16:34.061Z,0.0252,-0.9917,0.1146,-0.0217,-0.0304,-0.0462,-0.0023,-0.1307,0.0122,2.9153,1.4593,2.9361
2024-10-11T14:16:34.071Z,0.0265,-0.9926,0.1166,-0.0217,-0.0304,-0.0462,-0.0005,-0.1286,0.0127,2.9153,1.4593,2.9361
2024-10-11T14:16:34.080Z,0.0246,-0.9936,0.1175,-0.0236,-0.0045,-0.0809,-0.0005,-0.1286,0.0127,2.9122,1.4594,2.9351
2024-10-11T14:16:34.091Z,0.0242,-0.9924,0.1194,-0.0236,-0.0045,-0.0809,-0.0039,-0.1280,0.0119,2.9122,1.4594,2.9351
2024-10-11T14:16:34.101Z,0.0242,-0.9924,0.1194,-0.0236,-0.0045,-0.0809,-0.0058,-0.1240,0.0121,2.9122,1.4594,2.9351
2024-10-11T14:16:34.111Z,0.0226,-0.9919,0.1189,0.0059,-0.0262,-0.0913,-0.0035,-0.1287,0.0138,2.9089,1.4596,2.9342
2024-10-11T14:16:34.121Z,0.0206,-0.9950,0.1188,0.0059,-0.0262,-0.0913,-0.0041,-0.1248,0.0125,2.9089,1.4596,2.9342
2024-10-11T14:16:34.131Z,0.0179,-0.9943,0.1170,0.0059,-0.0262,-0.0913,-0.0091,-0.1284,0.0130,2.9089,1.4596,2.9342
2024-10-11T14:16:34.141Z,0.0163,-0.9920,0.1180,0.0604,-0.0094,-0.0878,-0.0076,-0.1291,0.0111,2.9058,1.4598,2.9333
2024-10-11T14:16:34.151Z,0.0173,-0.9899,0.1176,0.0604,-0.0094,-0.0878,-0.0082,-0.1287,0.0096,2.9058,1.4598,2.9333
2024-10-11T14:16:34.161Z,0.0173,-0.9899,0.1176,0.0604,-0.0094,-0.0878,-0.0022,-0.1303,0.0144,2.9058,1.4598,2.9333
2024-10-11T14:16:34.171Z,0.0184,-0.9929,0.1131,0.0436,-0.0156,-0.0468,-0.0044,-0.1290,0.0121,2.9028,1.4600,2.9321
2024-10-11T14:16:34.181Z,0.0186,-0.9952,0.1134,0.0436,-0.0156,-0.0468,-0.0053,-0.1278,0.0113,2.9028,1.4600,2.9321
2024-10-11T14:16:34.191Z,0.0184,-0.9955,0.1114,0.0436,-0.0156,-0.0468,-0.0076,-0.1274,0.0105,2.9028,1.4600,2.9321
2024-10-11T14:16:34.201Z,0.0178,-0.9962,0.1106,0.0572,0.0307,-0.0251,-0.0056,-0.1286,0.0123,2.8999,1.4603,2.9310
2024-10-11T14:16:34.211Z,0.0178,-0.9962,0.1106,0.0572,0.0307,-0.0251,-0.0068,-0.1250,0.0130,2.8999,1.4603,2.9310
2024-10-11T14:16:34.221Z,0.0163,-0.9961,0.1079,0.0572,0.0307,-0.0251,-0.0035,-0.1266,0.0127,2.8999,1.4603,2.9310
2024-10-11T14:16:34.230Z,0.0192,-0.9978,0.1079,0.0487,0.0307,0.0008,-0.0047,-0.1255,0.0145,2.8964,1.4605,2.9304
2024-10-11T14:16:34.241Z,0.0173,-0.9976,0.1074,0.0487,0.0307,0.0008,-0.0051,-0.1226,0.0161,2.8964,1.4605,2.9304
2024-10-11T14:16:34.250Z,0.0190,-0.9971,0.1079,0.0487,0.0307,0.0008,-0.0021,-0.1228,0.0156,2.8964,1.4605,2.9304
2024-10-11T14:16:34.262Z,0.0186,-0.9992,0.1073,0.0332,0.0459,0.0002,-0.0056,-0.1175,0.0166,2.8923,1.4607,2.9305
2024-10-11T14:16:34.271Z,0.0161,-0.9981,0.1113,0.0332,0.0459,0.0002,-0.0061,-0.1175,0.0186,2.8923,1.4607,2.9305
2024-10-11T14:16:34.280Z,0.0175,-0.9953,0.1134,0.0332,0.0459,0.0002,-0.0061,-0.1141,0.0177,2.8923,1.4607,2.9305
2024-10-11T14:16:34.291Z,0.0130,-0.9964,0.1144,0.0717,0.0117,-0.0653,-0.0052,-0.1116,0.0155,2.8877,1.4609,2.9313
2024-10-11T14:16:34.301Z,0.0105,-0.9983,0.1139,0.0717,0.0117,-0.0653,-0.0061,-0.1112,0.0166,2.8877,1.4609,2.9313
2024-10-11T14:16:34.312Z,0.0127,-0.9981,0.1158,0.0717,0.0117,-0.0653,-0.0090,-0.1082,0.0154,2.8877,1.4609,2.9313
2024-10-11T14:16:34.321Z,0.0107,-0.9996,0.1158,0.1065,0.0549,-0.0885,-0.0065,-0.1068,0.0191,2.8834,1.4612,2.9321
2024-10-11T14:16:34.332Z,0.0099,-0.9984,0.1147,0.1065,0.0549,-0.0885,-0.0103,-0.1045,0.0161,2.8834,1.4612,2.9321
2024-10-11T14:16:34.341Z,0.0106,-0.9997,0.1147,0.1065,0.0549,-0.0885,-0.0095,-0.1030,0.0128,2.8834,1.4612,2.9321
2024-10-11T14:16:34.351Z,0.0084,-0.9983,0.1124,0.1330,0.0519,-0.0690,-0.0103,-0.1038,0.0145,2.8791,1.4615,2.9329
2024-10-11T14:16:34.361Z,0.0087,-0.9974,0.1124,0.1330,0.0519,-0.0690,-0.0107,-0.0994,0.0128,2.8791,1.4615,2.9329
2024-10-11T14:16:34.371Z,0.0075,-0.9961,0.1095,0.1330,0.0519,-0.0690,-0.0096,-0.1022,0.0146,2.8791,1.4615,2.9329
2024-10-11T14:16:34.381Z,0.0061,-0.9958,0.1087,0.1509,0.0228,-0.0279,-0.0104,-0.0976,0.0094,2.8757,1.4619,2.9330
2024-10-11T14:16:34.391Z,0.0047,-0.9930,0.1054,0.1509,0.0228,-0.0279,-0.0102,-0.0993,0.0118,2.8757,1.4619,2.9330
2024-10-11T14:16:34.401Z,0.0036,-0.9914,0.1049,0.1509,0.0228,-0.0279,-0.0117,-0.0967,0.0083,2.8757,1.4619,2.9330
2024-10-11T14:16:34.411Z,0.0036,-0.9914,0.1049,0.1733,-0.0430,0.0149,-0.0113,-0.0958,0.0086,2.8734,1.4622,2.9321
2024-10-11T14:16:34.421Z,0.0053,-0.9883,0.1024,0.1733,-0.0430,0.0149,-0.0109,-0.0941,0.0084,2.8734,1.4622,2.9321
2024-10-11T14:16:34.430Z,0.0065,-0.9899,0.1001,0.1733,-0.0430,0.0149,-0.0080,-0.0913,0.0060,2.8734,1.4622,2.9321
2024-10-11T14:16:34.441Z,0.0094,-0.9930,0.1010,0.1492,-0.0144,0.0419,-0.0107,-0.0906,0.0084,2.8716,1.4625,2.9308
2024-10-11T14:16:34.451Z,0.0118,-0.9919,0.0997,0.1492,-0.0144,0.0419,-0.0091,-0.0868,0.0048,2.8716,1.4625,2.9308
2024-10-11T14:16:34.461Z,0.0118,-0.9919,0.0997,0.1492,-0.0144,0.0419,-0.0097,-0.0869,0.0048,2.8716,1.4625,2.9308
2024-10-11T14:16:34.471Z,0.0135,-0.9907,0.0998,0.0967,-0.0327,0.0698,-0.0076,-0.0813,0.0075,2.8702,1.4628,2.9294
2024-10-11T14:16:34.481Z,0.0157,-0.9914,0.0988,0.0967,-0.0327,0.0698,-0.0056,-0.0812,0.0069,2.8702,1.4628,2.9294
2024-10-11T14:16:34.491Z,0.0169,-0.9909,0.0980,0.0967,-0.0327,0.0698,-0.0027,-0.0761,0.0070,2.8702,1.4628,2.9294
2024-10-11T14:16:34.501Z,0.0177,-0.9903,0.0974,0.0515,-0.0356,0.0722,-0.0050,-0.0760,0.0084,2.8684,1.4630,2.9286
2024-10-11T14:16:34.511Z,0.0181,-0.9901,0.0966,0.0515,-0.0356,0.0722,-0.0038,-0.0735,0.0088,2.8684,1.4630,2.9286
2024-10-11T14:16:34.521Z,0.0190,-0.9886,0.0969,0.0515,-0.0356,0.0722,-0.0046,-0.0699,0.0104,2.8684,1.4630,2.9286
2024-10-11T14:16:34.531Z,0.0182,-0.9860,0.0964,0.0413,-0.0724,0.0782,-0.0002,-0.0649,0.0072,2.8658,1.4631,2.9287
2024-10-11T14:16:34.541Z,0.0178,-0.9843,0.0959,0.0413,-0.0724,0.0782,0.0001,-0.0645,0.0122,2.8658,1.4631,2.9287
2024-10-11T14:16:34.551Z,0.0152,-0.9844,0.0935,0.0413,-0.0724,0.0782,-0.0013,-0.0620,0.0090,2.8658,1.4631,2.9287
2024-10-11T14:16:34.564Z,0.0161,-0.9855,0.0926,0.0694,-0.0921,0.1176,0.0000,-0.0594,0.0117,2.8626,1.4632,2.9296
2024-10-11T14:16:34.571Z,0.0134,-0.9873,0.0893,0.0694,-0.0921,0.1176,0.0052,-0.0598,0.0090,2.8626,1.4632,2.9296
2024-10-11T14:16:34.581Z,0.0128,-0.9878,0.0889,0.0694,-0.0921,0.1176,0.0055,-0.0578,0.0103,2.8626,1.4632,2.9296
2024-10-11T14:16:34.591Z,0.0130,-0.9877,0.0880,0.0941,-0.0630,0.1609,0.0050,-0.0580,0.0088,2.8596,1.4632,2.9306
2024-10-11T14:16:34.601Z,0.0108,-0.9877,0.0874,0.0941,-0.0630,0.1609,0.0100,-0.0553,0.0080,2.8596,1.4632,2.9306
2024-10-11T14:16:34.610Z,0.0129,-0.9894,0.0861,0.0941,-0.0630,0.1609,0.0130,-0.0563,0.0076,2.8596,1.4632,2.9306
2024-10-11T14:16:34.621Z,0.0117,-0.9895,0.0868,0.0889,-0.0448,0.1873,0.0122,-0.0550,0.0091,2.8561,1.4629,2.9321
2024-10-11T14:16:34.630Z,0.0095,-0.9886,0.0877,0.0889,-0.0448,0.1873,0.0166,-0.0543,0.0064,2.8561,1.4629,2.9321
2024-10-11T14:16:34.641Z,0.0086,-0.9880,0.0865,0.0889,-0.0448,0.1873,0.0175,-0.0539,0.0066,2.8561,1.4629,2.9321
2024-10-11T14:16:34.651Z,0.0084,-0.9870,0.0888,0.1447,-0.0618,0.1829,0.0177,-0.0503,0.0066,2.8527,1.4625,2.9336
2024-10-11T14:16:34.661Z,0.0093,-0.9860,0.0913,0.1447,-0.0618,0.1829,0.0190,-0.0509,0.0078,2.8527,1.4625,2.9336
2024-10-11T14:16:34.670Z,0.0119,-0.9832,0.0963,0.1447,-0.0618,0.1829,0.0213,-0.0465,0.0065,2.8527,1.4625,2.9336
2024-10-11T14:16:34.681Z,0.0128,-0.9835,0.0982,0.0905,-0.1080,0.0923,0.0183,-0.0443,0.0083,2.8495,1.4620,2.9351
2024-10-11T14:16:34.691Z,0.0141,-0.9872,0.1001,0.0905,-0.1080,0.0923,0.0195,-0.0404,0.0086,2.8495,1.4620,2.9351
2024-10-11T14:16:34.701Z,0.0141,-0.9890,0.1018,0.0905,-0.1080,0.0923,0.0221,-0.0405,0.0110,2.8495,1.4620,2.9351
2024-10-11T14:16:34.711Z,0.0123,-0.9881,0.1035,0.0909,-0.0520,0.0415,0.0179,-0.0378,0.0084,2.8457,1.4615,2.9374
2024-10-11T14:16:34.721Z,0.0146,-0.9909,0.1045,0.0909,-0.0520,0.0415,0.0205,-0.0356,0.0099,2.8457,1.4615,2.9374
2024-10-11T14:16:34.731Z,0.0146,-0.9909,0.1045,0.0909,-0.0520,0.0415,0.0202,-0.0336,0.0110,2.8457,1.4615,2.9374
2024-10-11T14:16:34.741Z,0.0144,-0.9951,0.1051,0.0846,-0.0109,0.0107,0.0183,-0.0293,0.0119,2.8415,1.4609,2.9403
2024-10-11T14:16:34.751Z,0.0136,-0.9949,0.1058,0.0846,-0.0109,0.0107,0.0196,-0.0281,0.0124,2.8415,1.4609,2.9403
2024-10-11T14:16:34.762Z,0.0126,-0.9961,0.1049,0.0846,-0.0109,0.0107,0.0196,-0.0261,0.0122,2.8415,1.4609,2.9403
2024-10-11T14:16:34.771Z,0.0134,-0.9979,0.1045,0.0870,0.0341,0.0329,0.0173,-0.0228,0.0116,2.8373,1.4605,2.9434
2024-10-11T14:16:34.781Z,0.0124,-0.9976,0.1054,0.0870,0.0341,0.0329,0.0169,-0.0210,0.0126,2.8373,1.4605,2.9434
2024-10-11T14:16:34.791Z,0.0131,-0.9966,0.1053,0.0870,0.0341,0.0329,0.0153,-0.0166,0.0116,2.8373,1.4605,2.9434
2024-10-11T14:16:34.801Z,0.0145,-0.9967,0.1053,0.0741,0.0268,0.0264,0.0170,-0.0163,0.0145,2.8328,1.4600,2.9470
2024-10-11T14:16:34.811Z,0.0151,-0.9978,0.1041,0.0741,0.0268,0.0264,0.0198,-0.0113,0.0130,2.8328,1.4600,2.9470
2024-10-11T14:16:34.821Z,0.0140,-1.0014,0.1059,0.0741,0.0268,0.0264,0.0174,-0.0109,0.0187,2.8328,1.4600,2.9470
2024-10-11T14:16:34.830Z,0.0160,-1.0016,0.1059,0.0662,0.0859,0.0248,0.0161,-0.0071,0.0159,2.8273,1.4596,2.9519
2024-10-11T14:16:34.841Z,0.0153,-1.0025,0.1079,0.0662,0.0859,0.0248,0.0155,-0.0054,0.0169,2.8273,1.4596,2.9519
2024-10-11T14:16:34.851Z,0.0137,-1.0025,0.1100,0.0662,0.0859,0.0248,0.0164,-0.0040,0.0187,2.8273,1.4596,2.9519
2024-10-11T14:16:34.862Z,0.0119,-1.0017,0.1124,0.0694,0.0810,-0.0132,0.0154,-0.0015,0.0194,2.8215,1.4592,2.9572
2024-10-11T14:16:34.870Z,0.0095,-1.0034,0.1167,0.0694,0.0810,-0.0132,0.0117,0.0007,0.0166,2.8215,1.4592,2.9572
2024-10-11T14:16:34.881Z,0.0088,-1.0039,0.1167,0.0694,0.0810,-0.0132,0.0109,0.0021,0.0166,2.8215,1.4592,2.9572
2024-10-11T14:16:34.890Z,0.0103,-1.0039,0.1178,0.0935,0.0945,-0.0648,0.0078,0.0053,0.0195,2.8159,1.4590,2.9626
2024-10-11T14:16:34.901Z,0.0057,-1.0031,0.1203,0.0935,0.0945,-0.0648,0.0086,0.0063,0.0166,2.8159,1.4590,2.9626
2024-10-11T14:16:34.911Z,0.0055,-1.0026,0.1202,0.0935,0.0945,-0.0648,0.0090,0.0064,0.0165,2.8159,1.4590,2.9626
2024-10-11T14:16:34.920Z,0.0071,-1.0004,0.1215,0.1199,0.0790,-0.1085,0.0038,0.0086,0.0149,2.8110,1.4589,2.9675
2024-10-11T14:16:34.930Z,0.0056,-0.9986,0.1196,0.1199,0.0790,-0.1085,0.0031,0.0106,0.0134,2.8110,1.4589,2.9675
2024-10-11T14:16:34.941Z,0.0040,-1.0001,0.1216,0.1199,0.0790,-0.1085,-0.0009,0.0126,0.0126,2.8110,1.4589,2.9675
2024-10-11T14:16:34.951Z,0.0025,-1.0011,0.1178,0.1571,0.0760,-0.0891,0.0009,0.0110,0.0128,2.8069,1.4589,2.9716
2024-10-11T14:16:34.961Z,0.0033,-1.0007,0.1167,0.1571,0.0760,-0.0891,-0.0023,0.0126,0.0093,2.8069,1.4589,2.9716
2024-10-11T14:16:34.971Z,-0.0001,-1.0005,0.1157,0.1571,0.0760,-0.0891,-0.0041,0.0113,0.0103,2.8069,1.4589,2.9716
2024-10-11T14:16:34.981Z,0.0030,-1.0006,0.1149,0.1701,0.0655,-0.0607,-0.0054,0.0145,0.0074,2.8037,1.4590,2.9748
2024-10-11T14:16:34.991Z,0.0031,-0.9989,0.1137,0.1701,0.0655,-0.0607,-0.0058,0.0164,0.0078,2.8037,1.4590,2.9748
2024-10-11T14:16:35.001Z,0.0037,-0.9991,0.1124,0.1701,0.0655,-0.0607,-0.0085,0.0144,0.0071,2.8037,1.4590,2.9748
2024-10-11T14:16:35.012Z,0.0037,-0.9998,0.1100,0.1464,0.0541,-0.0098,-0.0066,0.0159,0.0046,2.8014,1.4592,2.9773
2024-10-11T14:16:35.021Z,0.0053,-0.9975,0.1090,0.1464,0.0541,-0.0098,-0.0078,0.0150,0.0049,2.8014,1.4592,2.9773
2024-10-11T14:16:35.031Z,0.0051,-0.9966,0.1089,0.1464,0.0541,-0.0098,-0.0063,0.0163,0.0028,2.8014,1.4592,2.9773
2024-10-11T14:16:35.041Z,0.0039,-0.9966,0.1077,0.1362,0.0286,0.0169,-0.0071,0.0183,0.0026,2.7995,1.4594,2.9795
2024-10-11T14:16:35.051Z,0.0057,-0.9935,0.1083,0.1362,0.0286,0.0169,-0.0065,0.0182,0.0013,2.7995,1.4594,2.9795
2024-10-11T14:16:35.061Z,0.0036,-0.9922,0.1065,0.1362,0.0286,0.0169,-0.0041,0.0197,0.0005,2.7995,1.4594,2.9795
2024-10-11T14:16:35.071Z,0.0028,-0.9930,0.1065,0.1450,-0.0185,0.0317,-0.0059,0.0201,-0.0012,2.7987,1.4595,2.9805
2024-10-11T14:16:35.081Z,0.0052,-0.9949,0.1078,0.1450,-0.0185,0.0317,-0.0067,0.0225,-0.0026,2.7987,1.4595,2.9805
2024-10-11T14:16:35.091Z,0.0074,-0.9952,0.1064,0.1450,-0.0185,0.0317,-0.0069,0.0219,-0.0007,2.7987,1.4595,2.9805
2024-10-11T14:16:35.101Z,0.0082,-0.9942,0.1075,0.1003,0.0018,0.0282,-0.0058,0.0247,-0.0026,2.7987,1.4597,2.9809
2024-10-11T14:16:35.111Z,0.0067,-0.9949,0.1076,0.1003,0.0018,0.0282,-0.0062,0.0239,-0.0054,2.7987,1.4597,2.9809
2024-10-11T14:16:35.121Z,0.0065,-0.9954,0.1103,0.1003,0.0018,0.0282,-0.0043,0.0235,-0.0041,2.7987,1.4597,2.9809
2024-10-11T14:16:35.131Z,0.0067,-0.9930,0.1088,0.1092,0.0064,-0.0010,-0.0075,0.0264,-0.0073,2.7983,1.4599,2.9818
2024-10-11T14:16:35.141Z,0.0054,-0.9920,0.1117,0.1092,0.0064,-0.0010,-0.0075,0.0230,-0.0075,2.7983,1.4599,2.9818
2024-10-11T14:16:35.151Z,0.0040,-0.9919,0.1122,0.1092,0.0064,-0.0010,-0.0090,0.0254,-0.0078,2.7983,1.4599,2.9818
2024-10-11T14:16:35.161Z,0.0033,-0.9921,0.1122,0.1364,-0.0164,-0.0291,-0.0051,0.0262,-0.0085,2.7970,1.4602,2.9836
2024-10-11T14:16:35.171Z,0.0064,-0.9908,0.1135,0.1364,-0.0164,-0.0291,-0.0067,0.0259,-0.0104,2.7970,1.4602,2.9836
2024-10-11T14:16:35.181Z,0.0058,-0.9921,0.1152,0.1364,-0.0164,-0.0291,-0.0074,0.0246,-0.0103,2.7970,1.4602,2.9836
2024-10-11T14:16:35.191Z,0.0067,-0.9904,0.1129,0.1214,-0.0277,-0.0474,-0.0066,0.0242,-0.0107,2.7969,1.4604,2.9843
2024-10-11T14:16:35.201Z,0.0071,-0.9914,0.1126,0.1214,-0.0277,-0.0474,-0.0079,0.0275,-0.0115,2.7969,1.4604,2.9843
2024-10-11T14:16:35.211Z,0.0060,-0.9956,0.1107,0.1214,-0.0277,-0.0474,-0.0072,0.0266,-0.0136,2.7969,1.4604,2.9843
2024-10-11T14:16:35.221Z,0.0054,-0.9945,0.1107,0.1220,0.0104,-0.0275,-0.0048,0.0266,-0.0167,2.7988,1.4606,2.9829
2024-10-11T14:16:35.231Z,0.0077,-0.9952,0.1080,0.1220,0.0104,-0.0275,-0.0055,0.0259,-0.0145,2.7988,1.4606,2.9829
2024-10-11T14:16:35.241Z,0.0057,-0.9947,0.1094,0.1220,0.0104,-0.0275,-0.0069,0.0288,-0.0171,2.7988,1.4606,2.9829
2024-10-11T14:16:35.251Z,0.0059,-0.9937,0.1100,0.1188,0.0132,-0.0144,-0.0042,0.0275,-0.0180,2.7997,1.4606,2.9826
2024-10-11T14:16:35.263Z,0.0080,-0.9933,0.1102,0.1188,0.0132,-0.0144,-0.0053,0.0252,-0.0151,2.7997,1.4606,2.9826
2024-10-11T14:16:35.270Z,0.0090,-0.9923,0.1127,0.1188,0.0132,-0.0144,-0.0065,0.0279,-0.0180,2.7997,1.4606,2.9826
2024-10-11T14:16:35.281Z,0.0078,-0.9907,0.1135,0.0839,-0.0292,-0.0458,-0.0037,0.0266,-0.0183,2.7979,1.4604,2.9850
2024-10-11T14:16:35.291Z,0.0094,-0.9918,0.1138,0.0839,-0.0292,-0.0458,-0.0039,0.0257,-0.0181,2.7979,1.4604,2.9850
2024-10-11T14:16:35.301Z,0.0135,-0.9924,0.1116,0.0839,-0.0292,-0.0458,-0.0048,0.0273,-0.0182,2.7979,1.4604,2.9850
2024-10-11T14:16:35.311Z,0.0140,-0.9894,0.1135,0.0267,-0.0287,-0.0375,-0.0043,0.0281,-0.0184,2.7988,1.4605,2.9847
2024-10-11T14:16:35.321Z,0.0138,-0.9872,0.1127,0.0267,-0.0287,-0.0375,-0.0045,0.0304,-0.0184,2.7988,1.4605,2.9847
2024-10-11T14:16:35.331Z,0.0146,-0.9877,0.1094,0.0267,-0.0287,-0.0375,-0.0042,0.0309,-0.0203,2.7988,1.4605,2.9847
2024-10-11T14:16:35.341Z,0.0130,-0.9902,0.1096,0.0396,-0.0501,0.0046,-0.0027,0.0324,-0.0188,2.8029,1.4605,2.9813
2024-10-11T14:16:35.350Z,0.0163,-0.9900,0.1107,0.0396,-0.0501,0.0046,0.0009,0.0244,-0.0134,2.8029,1.4605,2.9813
2024-10-11T14:16:35.364Z,0.0350,-0.9874,0.1067,-0.1023,-0.0789,0.0286,0.0007,0.0268,-0.0160,2.8069,1.4604,2.9779
2024-10-11T14:16:35.370Z,0.0180,-0.9861,0.1058,-0.1023,-0.0789,0.0286,0.0016,0.0251,-0.0181,2.8069,1.4604,2.9779
2024-10-11T14:16:35.381Z,0.0363,-0.9779,0.1004,-0.1023,-0.0789,0.0286,0.0029,0.0198,-0.0191,2.8069,1.4604,2.9779
2024-10-11T14:16:35.391Z,0.0351,-0.9739,0.0981,-0.1023,-0.0789,0.0286,0.0074,0.0145,-0.0145,2.8069,1.4604,2.9779
2024-10-11T14:16:35.401Z,0.0346,-0.9748,0.0973,-0.1301,-0.1624,0.1051,0.0141,0.0078,-0.0164,2.8106,1.4601,2.9745
2024-10-11T14:16:35.412Z,0.0330,-0.9755,0.0983,-0.1301,-0.1624,0.1051,0.0125,0.0078,-0.0142,2.8106,1.4601,2.9745
2024-10-11T14:16:35.421Z,0.0194,-0.9893,0.1012,-0.1301,-0.1624,0.1051,0.0147,0.0081,-0.0126,2.8106,1.4601,2.9745
2024-10-11T14:16:35.431Z,0.0288,-0.9856,0.1042,-0.0385,-0.0556,0.0735,0.0150,0.0096,-0.0123,2.8135,1.4597,2.9716
2024-10-11T14:16:35.441Z,0.0240,-0.9895,0.1068,-0.0385,-0.0556,0.0735,0.0142,0.0120,-0.0129,2.8135,1.4597,2.9716
2024-10-11T14:16:35.451Z,0.0213,-0.9875,0.1076,-0.0385,-0.0556,0.0735,0.0132,0.0111,-0.0090,2.8135,1.4597,2.9716
2024-10-11T14:16:35.462Z,0.0208,-0.9930,0.1108,-0.0306,-0.0431,-0.0071,0.0119,0.0134,-0.0104,2.8157,1.4592,2.9695
2024-10-11T14:16:35.471Z,0.0169,-0.9927,0.1096,-0.0306,-0.0431,-0.0071,0.0141,0.0136,-0.0083,2.8157,1.4592,2.9695
2024-10-11T14:16:35.481Z,0.0146,-0.9936,0.1134,-0.0306,-0.0431,-0.0071,0.0159,0.0158,-0.0092,2.8157,1.4592,2.9695
2024-10-11T14:16:35.491Z,0.0167,-0.9926,0.1118,0.0370,0.0038,-0.0348,0.0152,0.0167,-0.0076,2.8176,1.4587,2.9678
2024-10-11T14:16:35.501Z,0.0164,-0.9926,0.1093,0.0370,0.0038,-0.0348,0.0158,0.0209,-0.0082,2.8176,1.4587,2.9678
2024-10-11T14:16:35.513Z,0.0146,-0.9915,0.1082,0.0540,-0.0241,0.0356,0.0185,0.0220,-0.0059,2.8189,1.4582,2.9668
2024-10-11T14:16:35.520Z,0.0135,-0.9900,0.1050,0.0540,-0.0241,0.0356,0.0186,0.0218,-0.0083,2.8189,1.4582,2.9668
2024-10-11T14:16:35.531Z,0.0152,-0.9877,0.1056,0.0540,-0.0241,0.0356,0.0192,0.0287,-0.0078,2.8189,1.4582,2.9668
2024-10-11T14:16:35.541Z,0.0140,-0.9894,0.1081,0.0540,-0.0241,0.0356,0.0200,0.0274,-0.0099,2.8189,1.4582,2.9668
2024-10-11T14:16:35.551Z,0.0112,-0.9951,0.1130,0.0608,-0.0069,0.0142,0.0211,0.0300,-0.0087,2.8200,1.4575,2.9662
2024-10-11T14:16:35.562Z,0.0064,-0.9979,0.1170,0.0608,-0.0069,0.0142,0.0189,0.0340,-0.0080,2.8200,1.4575,2.9662
2024-10-11T14:16:35.571Z,0.0071,-0.9967,0.1199,0.0608,-0.0069,0.0142,0.0197,0.0365,-0.0098,2.8200,1.4575,2.9662
2024-10-11T14:16:35.581Z,0.0074,-0.9943,0.1175,0.1138,0.0186,-0.0522,0.0164,0.0413,-0.0097,2.8210,1.4569,2.9661
2024-10-11T14:16:35.591Z,0.0054,-0.9957,0.1204,0.1138,0.0186,-0.0522,0.0137,0.0471,-0.0083,2.8210,1.4569,2.9661
2024-10-11T14:16:35.601Z,0.0026,-0.9970,0.1186,0.1138,0.0186,-0.0522,0.0152,0.0484,-0.0110,2.8210,1.4569,2.9661
2024-10-11T14:16:35.611Z,0.0068,-0.9974,0.1178,0.1492,0.0412,-0.0522,0.0133,0.0535,-0.0105,2.8224,1.4564,2.9658
2024-10-11T14:16:35.621Z,0.0043,-0.9957,0.1193,0.1492,0.0412,-0.0522,0.0142,0.0572,-0.0105,2.8224,1.4564,2.9658
2024-10-11T14:16:35.631Z,0.0042,-0.9961,0.1217,0.1492,0.0412,-0.0522,0.0146,0.0611,-0.0096,2.8224,1.4564,2.9658
2024-10-11T14:16:35.641Z,0.0051,-0.9956,0.1239,0.1449,0.0314,-0.1027,0.0114,0.0670,-0.0070,2.8239,1.4560,2.9658
2024-10-11T14:16:35.651Z,0.0063,-0.9963,0.1261,0.1449,0.0314,-0.1027,0.0094,0.0722,-0.0090,2.8239,1.4560,2.9658
2024-10-11T14:16:35.662Z,0.0070,-0.9949,0.1262,0.1174,0.0325,-0.1384,0.0102,0.0763,-0.0086,2.8254,1.4556,2.9662
2024-10-11T14:16:35.670Z,0.0100,-0.9981,0.1284,0.1174,0.0325,-0.1384,0.0040,0.0808,-0.0092,2.8254,1.4556,2.9662
2024-10-11T14:16:35.681Z,0.0096,-0.9984,0.1270,0.1174,0.0325,-0.1384,0.0065,0.0856,-0.0092,2.8254,1.4556,2.9662
2024-10-11T14:16:35.691Z,0.0097,-0.9982,0.1254,0.1174,0.0325,-0.1384,0.0064,0.0899,-0.0084,2.8254,1.4556,2.9662
2024-10-11T14:16:35.701Z,0.0113,-0.9968,0.1256,0.0850,0.0352,-0.1147,0.0038,0.0906,-0.0087,2.8271,1.4554,2.9669
2024-10-11T14:16:35.711Z,0.0110,-0.9979,0.1250,0.0850,0.0352,-0.1147,0.0029,0.0953,-0.0086,2.8271,1.4554,2.9669
2024-10-11T14:16:35.722Z,0.0113,-0.9986,0.1241,0.0874,0.0590,-0.0946,0.0025,0.0979,-0.0099,2.8295,1.4552,2.9671
2024-10-11T14:16:35.730Z,0.0100,-1.0011,0.1218,0.0874,0.0590,-0.0946,0.0015,0.0986,-0.0104,2.8295,1.4552,2.9671
2024-10-11T14:16:35.740Z,0.0086,-1.0009,0.1220,0.0874,0.0590,-0.0946,0.0019,0.1011,-0.0103,2.8295,1.4552,2.9671
2024-10-11T14:16:35.751Z,0.0100,-0.9993,0.1219,0.0874,0.0590,-0.0946,0.0016,0.1007,-0.0112,2.8295,1.4552,2.9671
2024-10-11T14:16:35.761Z,0.0078,-0.9993,0.1252,0.1163,0.0589,-0.0857,-0.0002,0.1026,-0.0138,2.8326,1.4552,2.9668
2024-10-11T14:16:35.771Z,0.0062,-0.9989,0.1290,0.1163,0.0589,-0.0857,-0.0053,0.1011,-0.0135,2.8326,1.4552,2.9668
2024-10-11T14:16:35.780Z,0.0064,-0.9998,0.1299,0.1163,0.0589,-0.0857,-0.0060,0.1031,-0.0167,2.8326,1.4552,2.9668
2024-10-11T14:16:35.791Z,0.0065,-0.9995,0.1326,0.1259,0.0589,-0.1736,-0.0053,0.1016,-0.0179,2.8370,1.4552,2.9651
2024-10-11T14:16:35.801Z,0.0091,-0.9991,0.1322,0.1259,0.0589,-0.1736,-0.0089,0.1001,-0.0193,2.8370,1.4552,2.9651
2024-10-11T14:16:35.812Z,0.0099,-1.0005,0.1300,0.0825,0.0646,-0.1510,-0.0094,0.1008,-0.0190,2.8428,1.4553,2.9621
2024-10-11T14:16:35.820Z,0.0130,-0.9985,0.1273,0.0825,0.0646,-0.1510,-0.0093,0.1009,-0.0193,2.8428,1.4553,2.9621
2024-10-11T14:16:35.830Z,0.0132,-0.9973,0.1279,0.0825,0.0646,-0.1510,-0.0112,0.0981,-0.0212,2.8428,1.4553,2.9621
2024-10-11T14:16:35.842Z,0.0162,-0.9964,0.1278,0.0486,0.0335,-0.1443,-0.0119,0.0974,-0.0218,2.8493,1.4555,2.9584
2024-10-11T14:16:35.850Z,0.0148,-0.9971,0.1266,0.0486,0.0335,-0.1443,-0.0111,0.0997,-0.0244,2.8493,1.4555,2.9584
2024-10-11T14:16:35.861Z,0.0175,-0.9981,0.1247,0.0486,0.0335,-0.1443,-0.0135,0.0990,-0.0220,2.8493,1.4555,2.9584
2024-10-11T14:16:35.872Z,0.0195,-0.9986,0.1229,0.0226,0.0470,-0.0767,-0.0138,0.0962,-0.0248,2.8564,1.4557,2.9540
2024-10-11T14:16:35.880Z,0.0213,-0.9971,0.1199,0.0226,0.0470,-0.0767,-0.0162,0.0986,-0.0235,2.8564,1.4557,2.9540
2024-10-11T14:16:35.891Z,0.0242,-0.9948,0.1172,0.0226,0.0470,-0.0767,-0.0145,0.0968,-0.0210,2.8564,1.4557,2.9540
2024-10-11T14:16:35.901Z,0.0240,-0.9923,0.1149,0.0226,0.0470,-0.0767,-0.0122,0.0979,-0.0235,2.8564,1.4557,2.9540
2024-10-11T14:16:35.911Z,0.0261,-0.9906,0.1115,-0.0347,-0.0167,-0.0095,-0.0151,0.0968,-0.0214,2.8632,1.4560,2.9499
2024-10-11T14:16:35.921Z,0.0305,-0.9905,0.1080,-0.0347,-0.0167,-0.0095,-0.0131,0.0980,-0.0229,2.8632,1.4560,2.9499
2024-10-11T14:16:35.930Z,0.0316,-0.9897,0.1061,-0.0347,-0.0167,-0.0095,-0.0092,0.0963,-0.0189,2.8632,1.4560,2.9499
2024-10-11T14:16:35.941Z,0.0325,-0.9893,0.1028,-0.1113,-0.0406,0.0760,-0.0078,0.0969,-0.0180,2.8693,1.4562,2.9464
2024-10-11T14:16:35.951Z,0.0311,-0.9885,0.1025,-0.1113,-0.0406,0.0760,-0.0069,0.0969,-0.0172,2.8693,1.4562,2.9464
2024-10-11T14:16:35.962Z,0.0305,-0.9859,0.1031,-0.0738,-0.0757,0.0924,-0.0069,0.0966,-0.0176,2.8745,1.4564,2.9440
2024-10-11T14:16:35.971Z,0.0295,-0.9867,0.1023,-0.0738,-0.0757,0.0924,-0.0064,0.0961,-0.0169,2.8745,1.4564,2.9440
2024-10-11T14:16:35.980Z,0.0284,-0.9856,0.1049,-0.0738,-0.0757,0.0924,-0.0059,0.0930,-0.0157,2.8745,1.4564,2.9440
2024-10-11T14:16:35.992Z,0.0252,-0.9881,0.1063,-0.0317,-0.0497,0.0386,-0.0066,0.0950,-0.0170,2.8794,1.4564,2.9417
2024-10-11T14:16:36.001Z,0.0282,-0.9867,0.1089,-0.0317,-0.0497,0.0386,-0.0060,0.0946,-0.0145,2.8794,1.4564,2.9417
2024-10-11T14:16:36.011Z,0.0297,-0.9853,0.1111,-0.0317,-0.0497,0.0386,-0.0053,0.0930,-0.0150,2.8794,1.4564,2.9417
2024-10-11T14:16:36.021Z,0.0279,-0.9867,0.1142,-0.0598,-0.0629,-0.0222,-0.0021,0.0936,-0.0136,2.8837,1.4565,2.9400
2024-10-11T14:16:36.030Z,0.0294,-0.9869,0.1135,-0.0598,-0.0629,-0.0222,-0.0064,0.0936,-0.0149,2.8837,1.4565,2.9400
2024-10-11T14:16:36.041Z,0.0278,-0.9862,0.1137,-0.0598,-0.0629,-0.0222,-0.0035,0.0901,-0.0145,2.8837,1.4565,2.9400
2024-10-11T14:16:36.051Z,0.0297,-0.9867,0.1143,-0.0725,-0.0666,-0.0272,-0.0015,0.0918,-0.0134,2.8876,1.4565,2.9385
2024-10-11T14:16:36.060Z,0.0313,-0.9856,0.1136,-0.0725,-0.0666,-0.0272,-0.0021,0.0904,-0.0150,2.8876,1.4565,2.9385
2024-10-11T14:16:36.071Z,0.0286,-0.9877,0.1135,-0.0725,-0.0666,-0.0272,0.0010,0.0903,-0.0119,2.8876,1.4565,2.9385
2024-10-11T14:16:36.082Z,0.0282,-0.9895,0.1122,-0.0573,-0.0547,-0.0136,0.0005,0.0856,-0.0133,2.8909,1.4565,2.9376
2024-10-11T14:16:36.091Z,0.0287,-0.9855,0.1128,-0.0573,-0.0547,-0.0136,-0.0016,0.0864,-0.0122,2.8909,1.4565,2.9376
2024-10-11T14:16:36.101Z,0.0274,-0.9867,0.1159,-0.0573,-0.0547,-0.0136,0.0003,0.0857,-0.0095,2.8909,1.4565,2.9376
2024-10-11T14:16:36.112Z,0.0287,-0.9905,0.1149,-0.0781,-0.0155,-0.0194,0.0021,0.0865,-0.0086,2.8935,1.4564,2.9374
2024-10-11T14:16:36.120Z,0.0326,-0.9932,0.1138,-0.0781,-0.0155,-0.0194,0.0012,0.0860,-0.0071,2.8935,1.4564,2.9374
2024-10-11T14:16:36.130Z,0.0323,-0.9937,0.1141,-0.0781,-0.0155,-0.0194,0.0022,0.0886,-0.0070,2.8935,1.4564,2.9374
2024-10-11T14:16:36.141Z,0.0341,-0.9944,0.1116,-0.1305,0.0101,-0.0004,0.0019,0.0879,-0.0053,2.8953,1.4563,2.9380
2024-10-11T14:16:36.151Z,0.0369,-0.9947,0.1120,-0.1305,0.0101,-0.0004,0.0013,0.0889,-0.0033,2.8953,1.4563,2.9380
2024-10-11T14:16:36.161Z,0.0347,-0.9930,0.1124,-0.1305,0.0101,-0.0004,0.0027,0.0873,-0.0041,2.8953,1.4563,2.9380
2024-10-11T14:16:36.171Z,0.0365,-0.9913,0.1130,-0.1424,-0.0217,-0.0186,0.0012,0.0859,-0.0054,2.8962,1.4562,2.9394
2024-10-11T14:16:36.180Z,0.0362,-0.9927,0.1143,-0.1424,-0.0217,-0.0186,0.0054,0.0849,-0.0025,2.8962,1.4562,2.9394
2024-10-11T14:16:36.190Z,0.0349,-0.9919,0.1135,-0.1424,-0.0217,-0.0186,0.0055,0.0861,-0.0035,2.8962,1.4562,2.9394
2024-10-11T14:16:36.201Z,0.0347,-0.9913,0.1157,-0.1200,-0.0301,-0.0406,0.0033,0.0843,-0.0013,2.8965,1.4560,2.9414
2024-10-11T14:16:36.210Z,0.0343,-0.9906,0.1170,-0.1200,-0.0301,-0.0406,0.0019,0.0826,-0.0019,2.8965,1.4560,2.9414
2024-10-11T14:16:36.221Z,0.0341,-0.9891,0.1184,-0.1200,-0.0301,-0.0406,0.0008,0.0840,-0.0009,2.8965,1.4560,2.9414
2024-10-11T14:16:36.231Z,0.0324,-0.9885,0.1227,-0.1049,-0.0391,-0.1098,0.0032,0.0796,0.0009,2.8962,1.4559,2.9438
2024-10-11T14:16:36.241Z,0.0348,-0.9922,0.1234,-0.1049,-0.0391,-0.1098,0.0056,0.0791,0.0024,2.8962,1.4559,2.9438
2024-10-11T14:16:36.251Z,0.0378,-0.9926,0.1231,-0.1049,-0.0391,-0.1098,0.0011,0.0771,0.0022,2.8962,1.4559,2.9438
2024-10-11T14:16:36.261Z,0.0357,-0.9947,0.1216,-0.1340,0.0111,-0.1032,0.0040,0.0759,0.0033,2.8955,1.4559,2.9465
2024-10-11T14:16:36.271Z,0.0367,-0.9945,0.1237,-0.1340,0.0111,-0.1032,0.0013,0.0765,0.0020,2.8955,1.4559,2.9465
2024-10-11T14:16:36.280Z,0.0392,-0.9964,0.1235,-0.1340,0.0111,-0.1032,-0.0001,0.0720,0.0039,2.8955,1.4559,2.9465
2024-10-11T14:16:36.291Z,0.0377,-0.9965,0.1195,-0.1585,0.0361,-0.0651,0.0015,0.0745,0.0057,2.8944,1.4559,2.9496
2024-10-11T14:16:36.301Z,0.0386,-0.9950,0.1190,-0.1585,0.0361,-0.0651,0.0005,0.0714,0.0034,2.8944,1.4559,2.9496
2024-10-11T14:16:36.310Z,0.0379,-0.9946,0.1166,-0.1585,0.0361,-0.0651,-0.0004,0.0686,0.0098,2.8944,1.4559,2.9496
2024-10-11T14:16:36.321Z,0.0365,-0.9952,0.1185,-0.1300,0.0158,-0.0496,0.0010,0.0690,0.0082,2.8930,1.4559,2.9528
2024-10-11T14:16:36.331Z,0.0324,-0.9944,0.1176,-0.1300,0.0158,-0.0496,0.0004,0.0664,0.0054,2.8930,1.4559,2.9528
2024-10-11T14:16:36.341Z,0.0316,-0.9936,0.1172,-0.1300,0.0158,-0.0496,0.0000,0.0662,0.0054,2.8930,1.4559,2.9528
2024-10-11T14:16:36.351Z,0.0299,-0.9925,0.1190,-0.0660,-0.0110,-0.0576,-0.0003,0.0630,0.0079,2.8916,1.4559,2.9559
2024-10-11T14:16:36.361Z,0.0278,-0.9911,0.1183,-0.0660,-0.0110,-0.0576,0.0013,0.0600,0.0084,2.8916,1.4559,2.9559
2024-10-11T14:16:36.371Z,0.0289,-0.9926,0.1190,-0.0660,-0.0110,-0.0576,0.0014,0.0581,0.0062,2.8916,1.4559,2.9559
2024-10-11T14:16:36.381Z,0.0278,-0.9927,0.1196,-0.0732,-0.0011,-0.0668,-0.0020,0.0562,0.0051,2.8905,1.4559,2.9585
2024-10-11T14:16:36.391Z,0.0285,-0.9942,0.1194,-0.0732,-0.0011,-0.0668,-0.0020,0.0575,0.0052,2.8905,1.4559,2.9585
2024-10-11T14:16:36.401Z,0.0267,-0.9952,0.1218,-0.0732,-0.0011,-0.0668,0.0009,0.0526,0.0038,2.8905,1.4559,2.9585
2024-10-11T14:16:36.410Z,0.0254,-0.9956,0.1224,-0.0344,0.0227,-0.1047,-0.0031,0.0509,0.0056,2.8895,1.4559,2.9609
2024-10-11T14:16:36.421Z,0.0237,-0.9960,0.1248,-0.0344,0.0227,-0.1047,-0.0034,0.0497,0.0038,2.8895,1.4559,2.9609
2024-10-11T14:16:36.431Z,0.0238,-0.9975,0.1251,-0.0344,0.0227,-0.1047,-0.0061,0.0478,0.0016,2.8895,1.4559,2.9609
2024-10-11T14:16:36.440Z,0.0230,-0.9993,0.1263,-0.0121,0.0696,-0.1307,-0.0043,0.0463,0.0025,2.8892,1.4561,2.9623
2024-10-11T14:16:36.451Z,0.0220,-0.9999,0.1268,-0.0121,0.0696,-0.1307,-0.0079,0.0437,0.0003,2.8892,1.4561,2.9623
2024-10-11T14:16:36.460Z,0.0221,-1.0002,0.1287,-0.0121,0.0696,-0.1307,-0.0089,0.0380,-0.0008,2.8892,1.4561,2.9623
2024-10-11T14:16:36.471Z,0.0212,-0.9991,0.1268,-0.0082,0.0510,-0.1236,-0.0059,0.0359,0.0012,2.8897,1.4562,2.9627
2024-10-11T14:16:36.481Z,0.0209,-0.9979,0.1259,-0.0082,0.0510,-0.1236,-0.0101,0.0348,-0.0030,2.8897,1.4562,2.9627
2024-10-11T14:16:36.491Z,0.0220,-0.9964,0.1257,-0.0082,0.0510,-0.1236,-0.0107,0.0311,-0.0023,2.8897,1.4562,2.9627
2024-10-11T14:16:36.501Z,0.0222,-0.9973,0.1231,-0.0334,0.0463,-0.0873,-0.0093,0.0286,-0.0038,2.8908,1.4564,2.9622
2024-10-11T14:16:36.510Z,0.0250,-0.9987,0.1202,-0.0334,0.0463,-0.0873,-0.0102,0.0266,-0.0037,2.8908,1.4564,2.9622
2024-10-11T14:16:36.521Z,0.0258,-0.9966,0.1209,-0.0334,0.0463,-0.0873,-0.0107,0.0238,-0.0030,2.8908,1.4564,2.9622
2024-10-11T14:16:36.532Z,0.0280,-0.9935,0.1208,-0.0830,-0.0097,-0.0760,-0.0112,0.0220,-0.0030,2.8920,1.4565,2.9614
2024-10-11T14:16:36.540Z,0.0287,-0.9931,0.1190,-0.0830,-0.0097,-0.0760,-0.0133,0.0179,-0.0059,2.8920,1.4565,2.9614
2024-10-11T14:16:36.551Z,0.0274,-0.9926,0.1207,-0.0830,-0.0097,-0.0760,-0.0114,0.0200,-0.0028,2.8920,1.4565,2.9614
2024-10-11T14:16:36.561Z,0.0259,-0.9897,0.1198,-0.0557,-0.0280,-0.0755,-0.0131,0.0188,-0.0037,2.8933,1.4566,2.9605
2024-10-11T14:16:36.571Z,0.0264,-0.9903,0.1196,-0.0557,-0.0280,-0.0755,-0.0134,0.0152,-0.0046,2.8933,1.4566,2.9605
2024-10-11T14:16:36.581Z,0.0256,-0.9894,0.1187,-0.0557,-0.0280,-0.0755,-0.0156,0.0131,-0.0046,2.8933,1.4566,2.9605
2024-10-11T14:16:36.590Z,0.0251,-0.9908,0.1181,-0.0309,-0.0228,-0.0570,-0.0141,0.0130,-0.0055,2.8952,1.4569,2.9588
2024-10-11T14:16:36.600Z,0.0217,-0.9913,0.1175,-0.0309,-0.0228,-0.0570,-0.0155,0.0111,-0.0086,2.8952,1.4569,2.9588
2024-10-11T14:16:36.610Z,0.0208,-0.9914,0.1180,-0.0309,-0.0228,-0.0570,-0.0163,0.0074,-0.0049,2.8952,1.4569,2.9588
2024-10-11T14:16:36.621Z,0.0192,-0.9914,0.1166,0.0128,-0.0175,-0.0473,-0.0128,0.0036,-0.0083,2.8977,1.4572,2.9562
2024-10-11T14:16:36.631Z,0.0201,-0.9938,0.1150,0.0128,-0.0175,-0.0473,-0.0165,0.0033,-0.0080,2.8977,1.4572,2.9562
2024-10-11T14:16:36.641Z,0.0209,-0.9957,0.1140,0.0128,-0.0175,-0.0473,-0.0128,-0.0000,-0.0075,2.8977,1.4572,2.9562
2024-10-11T14:16:36.651Z,0.0204,-0.9955,0.1122,0.0031,0.0224,-0.0079,-0.0140,-0.0020,-0.0094,2.9008,1.4575,2.9528
2024-10-11T14:16:36.661Z,0.0208,-0.9958,0.1113,0.0031,0.0224,-0.0079,-0.0155,-0.0040,-0.0083,2.9008,1.4575,2.9528
2024-10-11T14:16:36.671Z,0.0218,-0.9934,0.1115,0.0031,0.0224,-0.0079,-0.0128,-0.0046,-0.0098,2.9008,1.4575,2.9528
2024-10-11T14:16:36.681Z,0.0217,-0.9945,0.1115,-0.0028,0.0021,-0.0149,-0.0129,-0.0079,-0.0111,2.9040,1.4578,2.9492
2024-10-11T14:16:36.691Z,0.0229,-0.9925,0.1138,-0.0028,0.0021,-0.0149,-0.0154,-0.0105,-0.0088,2.9040,1.4578,2.9492
2024-10-11T14:16:36.701Z,0.0219,-0.9925,0.1118,-0.0028,0.0021,-0.0149,-0.0144,-0.0076,-0.0092,2.9040,1.4578,2.9492
2024-10-11T14:16:36.710Z,0.0225,-0.9927,0.1109,-0.0137,-0.0005,0.0062,-0.0122,-0.0101,-0.0101,2.9070,1.4581,2.9457
2024-10-11T14:16:36.721Z,0.0241,-0.9946,0.1078,-0.0137,-0.0005,0.0062,-0.0147,-0.0097,-0.0111,2.9070,1.4581,2.9457
2024-10-11T14:16:36.731Z,0.0256,-0.9940,0.1069,-0.0137,-0.0005,0.0062,-0.0114,-0.0089,-0.0128,2.9070,1.4581,2.9457
2024-10-11T14:16:36.741Z,0.0254,-0.9932,0.1062,-0.0455,-0.0157,0.0396,-0.0117,-0.0098,-0.0098,2.9099,1.4584,2.9423
2024-10-11T14:16:36.751Z,0.0281,-0.9919,0.1036,-0.0455,-0.0157,0.0396,-0.0090,-0.0061,-0.0089,2.9099,1.4584,2.9423
2024-10-11T14:16:36.761Z,0.0286,-0.9942,0.1003,-0.0455,-0.0157,0.0396,-0.0072,-0.0069,-0.0081,2.9099,1.4584,2.9423
2024-10-11T14:16:36.771Z,0.0295,-0.9944,0.0981,-0.0732,-0.0094,0.1070,-0.0088,-0.0054,-0.0068,2.9121,1.4586,2.9396
2024-10-11T14:16:36.781Z,0.0301,-0.9906,0.1000,-0.0732,-0.0094,0.1070,-0.0090,-0.0057,-0.0059,2.9121,1.4586,2.9396
2024-10-11T14:16:36.791Z,0.0314,-0.9900,0.1001,-0.0732,-0.0094,0.1070,-0.0042,-0.0063,-0.0037,2.9121,1.4586,2.9396
2024-10-11T14:16:36.801Z,0.0314,-0.9874,0.0983,-0.0851,-0.0699,0.1092,-0.0045,-0.0009,-0.0015,2.9132,1.4587,2.9382
2024-10-11T14:16:36.811Z,0.0312,-0.9861,0.0999,-0.0851,-0.0699,0.1092,-0.0022,-0.0007,-0.0017,2.9132,1.4587,2.9382
2024-10-11T14:16:36.821Z,0.0287,-0.9838,0.1022,-0.0851,-0.0699,0.1092,-0.0032,-0.0003,0.0016,2.9132,1.4587,2.9382
2024-10-11T14:16:36.831Z,0.0276,-0.9846,0.1022,-0.0499,-0.0915,0.0832,-0.0017,0.0007,0.0017,2.9131,1.4588,2.9380
2024-10-11T14:16:36.841Z,0.0268,-0.9850,0.1024,-0.0499,-0.0915,0.0832,0.0012,-0.0024,0.0024,2.9131,1.4588,2.9380
2024-10-11T14:16:36.851Z,0.0254,-0.9838,0.1033,-0.0499,-0.0915,0.0832,0.0004,-0.0007,0.0042,2.9131,1.4588,2.9380
2024-10-11T14:16:36.861Z,0.0249,-0.9833,0.1019,-0.0296,-0.1066,0.0638,0.0025,0.0008,0.0047,2.9123,1.4588,2.9385
2024-10-11T14:16:36.871Z,0.0257,-0.9832,0.1036,-0.0296,-0.1066,0.0638,0.0017,0.0012,0.0041,2.9123,1.4588,2.9385
2024-10-11T14:16:36.881Z,0.0235,-0.9855,0.1054,-0.0296,-0.1066,0.0638,0.0056,0.0026,0.0032,2.9123,1.4588,2.9385
2024-10-11T14:16:36.891Z,0.0231,-0.9866,0.1055,-0.0037,-0.0561,0.0370,0.0042,-0.0003,0.0037,2.9112,1.4587,2.9394
2024-10-11T14:16:36.901Z,0.0233,-0.9874,0.1061,-0.0037,-0.0561,0.0370,0.0029,-0.0010,0.0042,2.9112,1.4587,2.9394
2024-10-11T14:16:36.911Z,0.0237,-0.9874,0.1072,-0.0037,-0.0561,0.0370,0.0068,0.0014,0.0046,2.9112,1.4587,2.9394
2024-10-11T14:16:36.921Z,0.0206,-0.9890,0.1080,0.0077,-0.0243,0.0137,0.0053,0.0011,0.0059,2.9098,1.4586,2.9404
2024-10-11T14:16:36.931Z,0.0220,-0.9920,0.1080,0.0077,-0.0243,0.0137,0.0066,-0.0005,0.0043,2.9098,1.4586,2.9404
2024-10-11T14:16:36.941Z,0.0195,-0.9916,0.1083,0.0077,-0.0243,0.0137,0.0079,-0.0019,0.0055,2.9098,1.4586,2.9404
2024-10-11T14:16:36.950Z,0.0199,-0.9917,0.1077,0.0151,-0.0213,0.0152,0.0069,0.0002,0.0067,2.9087,1.4585,2.9414
2024-10-11T14:16:36.961Z,0.0212,-0.9923,0.1093,0.0151,-0.0213,0.0152,0.0046,-0.0012,0.0038,2.9087,1.4585,2.9414
2024-10-11T14:16:36.971Z,0.0226,-0.9949,0.1070,0.0151,-0.0213,0.0152,0.0057,-0.0005,0.0032,2.9087,1.4585,2.9414
2024-10-11T14:16:36.982Z,0.0229,-0.9959,0.1068,0.0034,0.0351,0.0261,0.0049,0.0001,0.0057,2.9072,1.4584,2.9425
2024-10-11T14:16:36.990Z,0.0225,-0.9985,0.1070,0.0034,0.0351,0.0261,0.0030,-0.0016,0.0049,2.9072,1.4584,2.9425
2024-10-11T14:16:37.001Z,0.0246,-0.9978,0.1062,0.0034,0.0351,0.0261,0.0044,-0.0004,0.0046,2.9072,1.4584,2.9425
2024-10-11T14:16:37.011Z,0.0240,-0.9984,0.1065,-0.0131,0.0713,0.0314,0.0023,-0.0027,0.0053,2.9056,1.4583,2.9438
2024-10-11T14:16:37.021Z,0.0234,-1.0021,0.1070,-0.0131,0.0713,0.0314,0.0051,-0.0025,0.0050,2.9056,1.4583,2.9438
2024-10-11T14:16:37.031Z,0.0251,-1.0031,0.1060,-0.0131,0.0713,0.0314,0.0043,-0.0023,0.0046,2.9056,1.4583,2.9438
2024-10-11T14:16:37.041Z,0.0249,-1.0025,0.1065,-0.0306,0.0805,0.0299,0.0037,0.0004,0.0045,2.9043,1.4582,2.9448
2024-10-11T14:16:37.051Z,0.0253,-1.0018,0.1084,-0.0306,0.0805,0.0299,0.0035,-0.0006,0.0069,2.9043,1.4582,2.9448
2024-10-11T14:16:37.061Z,0.0236,-0.9998,0.1071,-0.0306,0.0805,0.0299,0.0026,-0.0005,0.0051,2.9043,1.4582,2.9448
2024-10-11T14:16:37.071Z,0.0249,-1.0000,0.1075,-0.0235,0.0469,0.0322,0.0029,0.0011,0.0053,2.9028,1.4581,2.9461
2024-10-11T14:16:37.081Z,0.0229,-0.9972,0.1080,-0.0235,0.0469,0.0322,0.0024,0.0012,0.0029,2.9028,1.4581,2.9461
2024-10-11T14:16:37.091Z,0.0236,-0.9978,0.1091,-0.0235,0.0469,0.0322,0.0020,-0.0003,0.0040,2.9028,1.4581,2.9461
2024-10-11T14:16:37.100Z,0.0233,-0.9968,0.1102,-0.0087,0.0260,0.0028,0.0009,0.0021,0.0022,2.9017,1.4581,2.9470
2024-10-11T14:16:37.111Z,0.0216,-0.9957,0.1108,-0.0087,0.0260,0.0028,0.0028,-0.0012,0.0041,2.9017,1.4581,2.9470
2024-10-11T14:16:37.121Z,0.0216,-0.9933,0.1116,-0.0087,0.0260,0.0028,0.0007,-0.0013,0.0057,2.9017,1.4581,2.9470
2024-10-11T14:16:37.131Z,0.0209,-0.9928,0.1136,0.0013,-0.0087,-0.0414,0.0014,-0.0034,0.0049,2.9008,1.4582,2.9476
2024-10-11T14:16:37.141Z,0.0219,-0.9938,0.1146,0.0013,-0.0087,-0.0414,0.0007,-0.0015,0.0042,2.9008,1.4582,2.9476
2024-10-11T14:16:37.150Z,0.0213,-0.9948,0.1129,0.0013,-0.0087,-0.0414,-0.0003,-0.0022,0.0044,2.9008,1.4582,2.9476
2024-10-11T14:16:37.160Z,0.0207,-0.9963,0.1117,0.0133,0.0230,-0.0030,-0.0006,-0.0020,0.0029,2.8997,1.4583,2.9484
2024-10-11T14:16:37.171Z,0.0192,-0.9955,0.1101,0.0133,0.0230,-0.0030,-0.0038,-0.0031,0.0027,2.8997,1.4583,2.9484
2024-10-11T14:16:37.181Z,0.0160,-0.9943,0.1109,0.0133,0.0230,-0.0030,-0.0026,-0.0032,0.0024,2.8997,1.4583,2.9484
2024-10-11T14:16:37.191Z,0.0151,-0.9943,0.1102,0.0816,0.0044,0.0026,-0.0026,-0.0077,0.0009,2.8991,1.4584,2.9486
2024-10-11T14:16:37.200Z,0.0111,-0.9938,0.1085,0.0816,0.0044,0.0026,-0.0039,-0.0073,-0.0004,2.8991,1.4584,2.9486
2024-10-11T14:16:37.211Z,0.0137,-0.9957,0.1082,0.0816,0.0044,0.0026,-0.0016,-0.0077,0.0013,2.8991,1.4584,2.9486
2024-10-11T14:16:37.221Z,0.0125,-0.9953,0.1071,0.0894,0.0186,0.0258,-0.0041,-0.0093,-0.0009,2.8992,1.4585,2.9480
2024-10-11T14:16:37.232Z,0.0127,-0.9956,0.1072,0.0894,0.0186,0.0258,-0.0028,-0.0083,-0.0006,2.8992,1.4585,2.9480
2024-10-11T14:16:37.241Z,0.0138,-0.9975,0.1062,0.0894,0.0186,0.0258,-0.0019,-0.0083,-0.0033,2.8992,1.4585,2.9480
2024-10-11T14:16:37.250Z,0.0153,-0.9987,0.1055,0.0495,0.0547,0.0450,-0.0018,-0.0054,-0.0044,2.8996,1.4585,2.9471
2024-10-11T14:16:37.261Z,0.0165,-0.9999,0.1056,0.0495,0.0547,0.0450,-0.0045,-0.0075,-0.0030,2.8996,1.4585,2.9471
2024-10-11T14:16:37.271Z,0.0155,-1.0000,0.1078,0.0495,0.0547,0.0450,-0.0015,-0.0082,-0.0025,2.8996,1.4585,2.9471
2024-10-11T14:16:37.281Z,0.0121,-0.9994,0.1060,0.0931,0.0662,0.0452,0.0003,-0.0060,-0.0043,2.8997,1.4585,2.9465
2024-10-11T14:16:37.291Z,0.0127,-1.0011,0.1060,0.0931,0.0662,0.0452,-0.0027,-0.0061,-0.0058,2.8997,1.4585,2.9465
2024-10-11T14:16:37.301Z,0.0144,-1.0008,0.1079,0.0931,0.0662,0.0452,-0.0010,-0.0053,-0.0063,2.8997,1.4585,2.9465
2024-10-11T14:16:37.311Z,0.0135,-0.9989,0.1087,0.0649,0.0390,0.0143,-0.0001,-0.0050,-0.0079,2.8991,1.4586,2.9467
2024-10-11T14:16:37.321Z,0.0156,-0.9966,0.1088,0.0649,0.0390,0.0143,-0.0023,-0.0040,-0.0064,2.8991,1.4586,2.9467
2024-10-11T14:16:37.331Z,0.0150,-0.9945,0.1107,0.0649,0.0390,0.0143,-0.0022,-0.0056,-0.0053,2.8991,1.4586,2.9467
2024-10-11T14:16:37.341Z,0.0146,-0.9943,0.1116,0.0700,-0.0027,-0.0248,-0.0013,-0.0027,-0.0055,2.8992,1.4589,2.9462
2024-10-11T14:16:37.351Z,0.0154,-0.9924,0.1119,0.0700,-0.0027,-0.0248,-0.0057,-0.0039,-0.0088,2.8992,1.4589,2.9462
2024-10-11T14:16:37.361Z,0.0182,-0.9919,0.1120,0.0700,-0.0027,-0.0248,-0.0023,-0.0054,-0.0050,2.8992,1.4589,2.9462
2024-10-11T14:16:37.371Z,0.0183,-0.9913,0.1113,0.0228,-0.0263,-0.0183,-0.0033,-0.0024,-0.0070,2.8995,1.4590,2.9455
2024-10-11T14:16:37.381Z,0.0203,-0.9895,0.1120,0.0228,-0.0263,-0.0183,-0.0045,-0.0016,-0.0039,2.8995,1.4590,2.9455
2024-10-11T14:16:37.391Z,0.0207,-0.9889,0.1131,0.0228,-0.0263,-0.0183,-0.0021,-0.0029,-0.0039,2.8995,1.4590,2.9455
2024-10-11T14:16:37.400Z,0.0199,-0.9900,0.1131,0.0263,-0.0387,-0.0280,-0.0044,0.0008,-0.0040,2.9004,1.4591,2.9443
2024-10-11T14:16:37.411Z,0.0200,-0.9911,0.1109,0.0263,-0.0387,-0.0280,-0.0037,0.0023,-0.0047,2.9004,1.4591,2.9443
2024-10-11T14:16:37.421Z,0.0210,-0.9922,0.1077,0.0263,-0.0387,-0.0280,-0.0042,0.0063,-0.0057,2.9004,1.4591,2.9443
2024-10-11T14:16:37.432Z,0.0211,-0.9897,0.1078,-0.0029,-0.0370,0.0182,-0.0053,0.0037,-0.0042,2.9014,1.4592,2.9432
2024-10-11T14:16:37.440Z,0.0217,-0.9902,0.1057,-0.0029,-0.0370,0.0182,-0.0040,0.0058,-0.0016,2.9014,1.4592,2.9432
2024-10-11T14:16:37.452Z,0.0191,-0.9883,0.1075,-0.0029,-0.0370,0.0182,-0.0006,0.0052,-0.0036,2.9014,1.4592,2.9432
2024-10-11T14:16:37.461Z,0.0197,-0.9869,0.1046,0.0135,-0.0624,0.0605,-0.0028,0.0050,-0.0025,2.9019,1.4592,2.9426
2024-10-11T14:16:37.471Z,0.0196,-0.9872,0.1040,0.0135,-0.0624,0.0605,-0.0024,0.0060,-0.0060,2.9019,1.4592,2.9426
2024-10-11T14:16:37.481Z,0.0217,-0.9883,0.1034,0.0135,-0.0624,0.0605,-0.0024,0.0066,-0.0035,2.9019,1.4592,2.9426
2024-10-11T14:16:37.491Z,0.0208,-0.9883,0.1009,-0.0018,-0.0613,0.0743,-0.0001,0.0041,-0.0017,2.9024,1.4591,2.9420
2024-10-11T14:16:37.500Z,0.0223,-0.9873,0.1019,-0.0018,-0.0613,0.0743,0.0022,0.0057,-0.0046,2.9024,1.4591,2.9420
2024-10-11T14:16:37.511Z,0.0238,-0.9887,0.0997,-0.0018,-0.0613,0.0743,0.0043,0.0086,-0.0032,2.9024,1.4591,2.9420
2024-10-11T14:16:37.521Z,0.0242,-0.9900,0.1009,-0.0063,-0.0395,0.0641,0.0037,0.0107,0.0003,2.9025,1.4590,2.9420
2024-10-11T14:16:37.531Z,0.0223,-0.9921,0.1022,-0.0063,-0.0395,0.0641,0.0032,0.0128,-0.0019,2.9025,1.4590,2.9420
2024-10-11T14:16:37.541Z,0.0200,-0.9926,0.1030,-0.0063,-0.0395,0.0641,0.0061,0.0146,0.0014,2.9025,1.4590,2.9420
2024-10-11T14:16:37.551Z,0.0223,-0.9926,0.1052,-0.0055,-0.0204,0.0270,0.0061,0.0185,0.0013,2.9018,1.4589,2.9429
2024-10-11T14:16:37.561Z,0.0221,-0.9893,0.1076,-0.0055,-0.0204,0.0270,0.0050,0.0175,0.0011,2.9018,1.4589,2.9429
2024-10-11T14:16:37.571Z,0.0224,-0.9903,0.1084,-0.0055,-0.0204,0.0270,0.0085,0.0211,0.0015,2.9018,1.4589,2.9429
2024-10-11T14:16:37.581Z,0.0202,-0.9892,0.1092,0.0310,-0.0492,-0.0073,0.0086,0.0189,0.0037,2.9007,1.4588,2.9442
2024-10-11T14:16:37.591Z,0.0203,-0.9904,0.1104,0.0310,-0.0492,-0.0073,0.0079,0.0249,0.0032,2.9007,1.4588,2.9442
2024-10-11T14:16:37.601Z,0.0200,-0.9885,0.1106,0.0310,-0.0492,-0.0073,0.0071,0.0260,0.0034,2.9007,1.4588,2.9442
2024-10-11T14:16:37.611Z,0.0198,-0.9903,0.1092,0.0262,-0.0196,0.0089,0.0088,0.0291,0.0058,2.8992,1.4587,2.9462
2024-10-11T14:16:37.621Z,0.0190,-0.9913,0.1096,0.0262,-0.0196,0.0089,0.0091,0.0280,0.0035,2.8992,1.4587,2.9462
2024-10-11T14:16:37.631Z,0.0220,-0.9894,0.1102,0.0262,-0.0196,0.0089,0.0089,0.0282,0.0035,2.8992,1.4587,2.9462
2024-10-11T14:16:37.640Z,0.0223,-0.9906,0.1094,-0.0019,-0.0385,0.0122,0.0098,0.0306,0.0053,2.8975,1.4585,2.9486
2024-10-11T14:16:37.651Z,0.0233,-0.9899,0.1082,-0.0019,-0.0385,0.0122,0.0095,0.0305,0.0055,2.8975,1.4585,2.9486
2024-10-11T14:16:37.661Z,0.0243,-0.9907,0.1099,-0.0019,-0.0385,0.0122,0.0091,0.0292,0.0058,2.8975,1.4585,2.9486
2024-10-11T14:16:37.671Z,0.0235,-0.9924,0.1084,-0.0266,-0.0064,0.0255,0.0112,0.0310,0.0064,2.8951,1.4582,2.9516
2024-10-11T14:16:37.681Z,0.0246,-0.9943,0.1079,-0.0266,-0.0064,0.0255,0.0114,0.0301,0.0076,2.8951,1.4582,2.9516
2024-10-11T14:16:37.691Z,0.0247,-0.9933,0.1100,-0.0266,-0.0064,0.0255,0.0121,0.0270,0.0055,2.8951,1.4582,2.9516
2024-10-11T14:16:37.700Z,0.0265,-0.9939,0.1135,-0.0550,0.0117,-0.0356,0.0101,0.0257,0.0061,2.8923,1.4579,2.9550
2024-10-11T14:16:37.711Z,0.0257,-0.9965,0.1136,-0.0550,0.0117,-0.0356,0.0125,0.0250,0.0076,2.8923,1.4579,2.9550
2024-10-11T14:16:37.721Z,0.0277,-0.9987,0.1158,-0.0550,0.0117,-0.0356,0.0102,0.0213,0.0063,2.8923,1.4579,2.9550
2024-10-11T14:16:37.731Z,0.0287,-0.9989,0.1189,-0.0680,0.0516,-0.0728,0.0095,0.0193,0.0063,2.8899,1.4577,2.9577
2024-10-11T14:16:37.742Z,0.0260,-0.9994,0.1181,-0.0680,0.0516,-0.0728,0.0063,0.0102,0.0074,2.8899,1.4577,2.9577
2024-10-11T14:16:37.751Z,0.0255,-0.9998,0.1198,-0.0680,0.0516,-0.0728,0.0063,0.0102,0.0074,2.8899,1.4577,2.9577
2024-10-11T14:16:37.761Z,0.0272,-0.9998,0.1211,-0.0670,0.0680,-0.1148,0.0063,0.0100,0.0082,2.8876,1.4575,2.9601
2024-10-11T14:16:37.772Z,0.0278,-1.0003,0.1242,-0.0670,0.0680,-0.1148,0.0044,0.0032,0.0038,2.8876,1.4575,2.9601
2024-10-11T14:16:37.781Z,0.0289,-0.9985,0.1247,-0.0670,0.0680,-0.1148,0.0044,0.0032,0.0038,2.8876,1.4575,2.9601
2024-10-11T14:16:37.792Z,0.0241,-0.9994,0.1247,-0.0161,0.0618,-0.1241,-0.0020,-0.0034,0.0030,2.8858,1.4574,2.9616
2024-10-11T14:16:37.801Z,0.0225,-1.0013,0.1234,-0.0161,0.0618,-0.1241,-0.0020,-0.0034,0.0030,2.8858,1.4574,2.9616
2024-10-11T14:16:37.812Z,0.0231,-1.0002,0.1222,-0.0161,0.0618,-0.1241,0.0000,-0.0082,0.0017,2.8858,1.4574,2.9616
2024-10-11T14:16:37.821Z,0.0218,-0.9998,0.1224,-0.0232,0.0617,-0.0960,-0.0029,-0.0124,0.0024,2.8846,1.4575,2.9624
2024-10-11T14:16:37.833Z,0.0231,-0.9989,0.1203,-0.0232,0.0617,-0.0960,-0.0028,-0.0172,0.0050,2.8846,1.4575,2.9624
2024-10-11T14:16:37.841Z,0.0228,-0.9978,0.1188,-0.0232,0.0617,-0.0960,-0.0019,-0.0184,0.0034,2.8846,1.4575,2.9624
2024-10-11T14:16:37.850Z,0.0233,-0.9966,0.1177,-0.0272,0.0282,-0.0607,-0.0019,-0.0184,0.0034,2.8843,1.4574,2.9620
2024-10-11T14:16:37.861Z,0.0234,-0.9946,0.1169,-0.0272,0.0282,-0.0607,-0.0040,-0.0241,0.0018,2.8843,1.4574,2.9620
2024-10-11T14:16:37.871Z,0.0239,-0.9942,0.1166,-0.0272,0.0282,-0.0607,-0.0067,-0.0250,0.0001,2.8843,1.4574,2.9620
2024-10-11T14:16:37.883Z,0.0245,-0.9933,0.1149,-0.0353,0.0003,-0.0245,-0.0067,-0.0250,0.0001,2.8844,1.4574,2.9609
2024-10-11T14:16:37.891Z,0.0245,-0.9936,0.1133,-0.0353,0.0003,-0.0245,-0.0042,-0.0276,0.0006,2.8844,1.4574,2.9609
2024-10-11T14:16:37.902Z,0.0246,-0.9929,0.1118,-0.0353,0.0003,-0.0245,-0.0042,-0.0294,-0.0014,2.8844,1.4574,2.9609
2024-10-11T14:16:37.912Z,0.0267,-0.9926,0.1125,-0.0614,-0.0084,-0.0157,-0.0059,-0.0311,0.0001,2.8843,1.4574,2.9599
2024-10-11T14:16:37.922Z,0.0271,-0.9918,0.1130,-0.0614,-0.0084,-0.0157,-0.0045,-0.0318,0.0009,2.8843,1.4574,2.9599
2024-10-11T14:16:37.932Z,0.0277,-0.9928,0.1111,-0.0614,-0.0084,-0.0157,-0.0044,-0.0343,0.0007,2.8843,1.4574,2.9599
2024-10-11T14:16:37.941Z,0.0274,-0.9940,0.1123,-0.0656,-0.0039,-0.0219,-0.0055,-0.0374,0.0025,2.8840,1.4576,2.9590
2024-10-11T14:16:37.952Z,0.0272,-0.9911,0.1132,-0.0656,-0.0039,-0.0219,-0.0069,-0.0348,-0.0001,2.8840,1.4576,2.9590
2024-10-11T14:16:37.961Z,0.0258,-0.9892,0.1137,-0.0656,-0.0039,-0.0219,-0.0049,-0.0359,-0.0004,2.8840,1.4576,2.9590
2024-10-11T14:16:37.970Z,0.0252,-0.9920,0.1154,-0.0499,-0.0075,-0.0447,-0.0049,-0.0359,-0.0004,2.8840,1.4577,2.9576
2024-10-11T14:16:37.983Z,0.0251,-0.9939,0.1156,-0.0499,-0.0075,-0.0447,-0.0044,-0.0389,0.0006,2.8840,1.4577,2.9576
2024-10-11T14:16:37.991Z,0.0238,-0.9961,0.1156,-0.0499,-0.0075,-0.0447,-0.0048,-0.0354,-0.0009,2.8840,1.4577,2.9576
2024-10-11T14:16:38.001Z,0.0256,-0.9966,0.1156,-0.0389,0.0318,-0.0460,-0.0062,-0.0389,0.0009,2.8859,1.4577,2.9544
2024-10-11T14:16:38.011Z,0.0234,-0.9965,0.1162,-0.0389,0.0318,-0.0460,-0.0048,-0.0400,0.0023,2.8859,1.4577,2.9544
2024-10-11T14:16:38.021Z,0.0206,-0.9968,0.1166,-0.0389,0.0318,-0.0460,-0.0061,-0.0443,0.0014,2.8859,1.4577,2.9544
2024-10-11T14:16:38.032Z,0.0195,-0.9966,0.1169,0.0148,0.0310,-0.0605,-0.0079,-0.0416,-0.0006,2.8879,1.4578,2.9509
2024-10-11T14:16:38.041Z,0.0196,-0.9966,0.1161,0.0148,0.0310,-0.0605,-0.0102,-0.0428,0.0008,2.8879,1.4578,2.9509
2024-10-11T14:16:38.051Z,0.0188,-0.9940,0.1133,0.0148,0.0310,-0.0605,-0.0079,-0.0446,-0.0033,2.8879,1.4578,2.9509
2024-10-11T14:16:38.061Z,0.0194,-0.9964,0.1123,0.0184,0.0284,-0.0173,-0.0060,-0.0445,-0.0017,2.8888,1.4579,2.9483
2024-10-11T14:16:38.071Z,0.0205,-0.9924,0.1101,0.0184,0.0284,-0.0173,-0.0064,-0.0445,-0.0035,2.8888,1.4579,2.9483
2024-10-11T14:16:38.082Z,0.0205,-0.9924,0.1101,0.0184,0.0284,-0.0173,-0.0072,-0.0460,-0.0053,2.8888,1.4579,2.9483
2024-10-11T14:16:38.091Z,0.0183,-0.9914,0.1097,0.0451,-0.0269,0.0079,-0.0072,-0.0464,-0.0055,2.8899,1.4581,2.9456
2024-10-11T14:16:38.102Z,0.0164,-0.9917,0.1094,0.0451,-0.0269,0.0079,-0.0056,-0.0495,-0.0030,2.8899,1.4581,2.9456
2024-10-11T14:16:38.111Z,0.0206,-0.9918,0.1093,0.0451,-0.0269,0.0079,-0.0040,-0.0487,-0.0033,2.8899,1.4581,2.9456
2024-10-11T14:16:38.121Z,0.0219,-0.9909,0.1105,0.0056,-0.0328,-0.0015,-0.0077,-0.0499,-0.0039,2.8916,1.4582,2.9422
2024-10-11T14:16:38.134Z,0.0243,-0.9919,0.1120,0.0056,-0.0328,-0.0015,-0.0058,-0.0493,-0.0039,2.8916,1.4582,2.9422
2024-10-11T14:16:38.140Z,0.0243,-0.9919,0.1120,0.0056,-0.0328,-0.0015,-0.0055,-0.0491,-0.0030,2.8916,1.4582,2.9422
2024-10-11T14:16:38.151Z,0.0256,-0.9928,0.1135,-0.0271,-0.0125,-0.0245,-0.0052,-0.0454,-0.0029,2.8935,1.4584,2.9386
2024-10-11T14:16:38.161Z,0.0199,-0.9905,0.1138,-0.0271,-0.0125,-0.0245,-0.0074,-0.0457,-0.0033,2.8935,1.4584,2.9386
2024-10-11T14:16:38.171Z,0.0199,-0.9905,0.1138,-0.0271,-0.0125,-0.0245,-0.0079,-0.0440,-0.0062,2.8935,1.4584,2.9386
2024-10-11T14:16:38.181Z,0.0246,-0.9926,0.1137,0.0183,-0.0215,-0.0297,-0.0045,-0.0388,-0.0016,2.8947,1.4586,2.9358
2024-10-11T14:16:38.191Z,0.0180,-0.9927,0.1119,0.0183,-0.0215,-0.0297,-0.0054,-0.0387,-0.0019,2.8947,1.4586,2.9358
2024-10-11T14:16:38.201Z,0.0216,-0.9977,0.1116,0.0183,-0.0215,-0.0297,-0.0051,-0.0377,0.0012,2.8947,1.4586,2.9358
2024-10-11T14:16:38.211Z,0.0236,-0.9940,0.1123,0.0199,0.0117,-0.0296,-0.0045,-0.0341,-0.0011,2.8955,1.4587,2.9337
2024-10-11T14:16:38.221Z,0.0212,-0.9949,0.1109,0.0199,0.0117,-0.0296,-0.0052,-0.0340,0.0010,2.8955,1.4587,2.9337
2024-10-11T14:16:38.232Z,0.0257,-0.9948,0.1126,0.0199,0.0117,-0.0296,-0.0089,-0.0305,0.0014,2.8955,1.4587,2.9337
2024-10-11T14:16:38.241Z,0.0256,-0.9935,0.1158,-0.0304,0.0025,-0.0496,-0.0057,-0.0272,0.0045,2.8958,1.4589,2.9321
2024-10-11T14:16:38.251Z,0.0238,-0.9930,0.1188,-0.0304,0.0025,-0.0496,-0.0057,-0.0272,0.0045,2.8958,1.4589,2.9321
2024-10-11T14:16:38.261Z,0.0240,-0.9901,0.1207,-0.0304,0.0025,-0.0496,-0.0042,-0.0245,0.0041,2.8958,1.4589,2.9321
2024-10-11T14:16:38.271Z,0.0261,-0.9875,0.1220,-0.0243,-0.0457,-0.1330,-0.0024,-0.0232,0.0051,2.8950,1.4590,2.9320
2024-10-11T14:16:38.281Z,0.0236,-0.9828,0.1183,-0.0243,-0.0457,-0.1330,-0.0016,-0.0241,0.0059,2.8950,1.4590,2.9320
2024-10-11T14:16:38.291Z,0.0238,-0.9802,0.1197,-0.0243,-0.0457,-0.1330,0.0007,-0.0258,0.0044,2.8950,1.4590,2.9320
2024-10-11T14:16:38.301Z,0.0238,-0.9802,0.1197,0.0123,-0.0994,-0.0982,-0.0001,-0.0236,0.0013,2.8936,1.4591,2.9323
2024-10-11T14:16:38.311Z,0.0234,-0.9800,0.1180,0.0123,-0.0994,-0.0982,0.0020,-0.0238,0.0028,2.8936,1.4591,2.9323
2024-10-11T14:16:38.321Z,0.0166,-0.9854,0.1137,0.0123,-0.0994,-0.0982,0.0020,-0.0238,0.0028,2.8936,1.4591,2.9323
2024-10-11T14:16:38.331Z,0.0166,-0.9854,0.1137,0.0681,-0.1141,-0.0572,-0.0004,-0.0207,0.0045,2.8925,1.4590,2.9325
2024-10-11T14:16:38.341Z,0.0154,-0.9880,0.1173,0.0681,-0.1141,-0.0572,-0.0015,-0.0167,0.0059,2.8925,1.4590,2.9325
2024-10-11T14:16:38.351Z,0.0154,-0.9880,0.1173,0.0681,-0.1141,-0.0572,-0.0009,-0.0130,0.0060,2.8925,1.4590,2.9325
2024-10-11T14:16:38.361Z,0.0189,-0.9919,0.1157,0.0228,-0.0205,-0.0691,-0.0039,-0.0129,0.0071,2.8911,1.4590,2.9332
2024-10-11T14:16:38.371Z,0.0189,-0.9919,0.1157,0.0228,-0.0205,-0.0691,-0.0051,-0.0139,0.0088,2.8911,1.4590,2.9332
2024-10-11T14:16:38.381Z,0.0180,-0.9927,0.1100,0.0228,-0.0205,-0.0691,-0.0079,-0.0106,0.0072,2.8911,1.4590,2.9332
2024-10-11T14:16:38.391Z,0.0170,-0.9937,0.1090,0.0652,-0.0039,-0.0051,-0.0054,-0.0100,0.0092,2.8891,1.4592,2.9345
2024-10-11T14:16:38.400Z,0.0170,-0.9937,0.1090,0.0652,-0.0039,-0.0051,-0.0068,-0.0099,0.0091,2.8891,1.4592,2.9345
2024-10-11T14:16:38.411Z,0.0183,-0.9962,0.1062,0.0652,-0.0039,-0.0051,-0.0062,-0.0088,0.0086,2.8891,1.4592,2.9345
2024-10-11T14:16:38.421Z,0.0186,-0.9976,0.1036,0.0322,0.0318,0.0372,-0.0074,-0.0060,0.0063,2.8871,1.4594,2.9360
2024-10-11T14:16:38.431Z,0.0178,-0.9977,0.1027,0.0322,0.0318,0.0372,-0.0077,-0.0073,0.0087,2.8871,1.4594,2.9360
2024-10-11T14:16:38.441Z,0.0192,-0.9990,0.1017,0.0322,0.0318,0.0372,-0.0043,-0.0086,0.0070,2.8871,1.4594,2.9360
2024-10-11T14:16:38.450Z,0.0192,-0.9990,0.1017,0.0368,0.0450,0.0836,-0.0007,-0.0092,0.0085,2.8850,1.4596,2.9377
2024-10-11T14:16:38.461Z,0.0156,-0.9960,0.0998,0.0368,0.0450,0.0836,-0.0014,-0.0051,0.0058,2.8850,1.4596,2.9377
2024-10-11T14:16:38.472Z,0.0117,-0.9975,0.1018,0.0368,0.0450,0.0836,0.0025,-0.0039,0.0064,2.8850,1.4596,2.9377
2024-10-11T14:16:38.480Z,0.0135,-0.9982,0.1035,0.0867,0.0417,0.0594,0.0032,-0.0035,0.0079,2.8827,1.4596,2.9395
2024-10-11T14:16:38.491Z,0.0108,-1.0001,0.1078,0.0867,0.0417,0.0594,0.0066,-0.0014,0.0087,2.8827,1.4596,2.9395
2024-10-11T14:16:38.502Z,0.0108,-1.0001,0.1078,0.0867,0.0417,0.0594,0.0060,0.0046,0.0091,2.8827,1.4596,2.9395
2024-10-11T14:16:38.510Z,0.0086,-1.0031,0.1142,0.1628,0.0939,-0.0824,0.0021,0.0038,0.0061,2.8808,1.4595,2.9412
2024-10-11T14:16:38.521Z,0.0072,-1.0033,0.1225,0.1628,0.0939,-0.0824,-0.0003,0.0087,0.0058,2.8808,1.4595,2.9412
2024-10-11T14:16:38.531Z,0.0050,-1.0008,0.1270,0.1628,0.0939,-0.0824,0.0020,0.0098,0.0033,2.8808,1.4595,2.9412
2024-10-11T14:16:38.541Z,0.0040,-0.9987,0.1305,0.1811,0.0589,-0.2015,-0.0009,0.0128,0.0045,2.8793,1.4595,2.9426
2024-10-11T14:16:38.551Z,0.0040,-0.9987,0.1305,0.1811,0.0589,-0.2015,-0.0041,0.0151,0.0036,2.8793,1.4595,2.9426
2024-10-11T14:16:38.561Z,0.0085,-0.9945,0.1343,0.1811,0.0589,-0.2015,-0.0079,0.0151,0.0027,2.8793,1.4595,2.9426
2024-10-11T14:16:38.571Z,0.0113,-0.9911,0.1356,0.1154,-0.0106,-0.2634,-0.0073,0.0178,0.0007,2.8783,1.4597,2.9438
2024-10-11T14:16:38.581Z,0.0160,-0.9911,0.1330,0.1154,-0.0106,-0.2634,-0.0087,0.0164,0.0022,2.8783,1.4597,2.9438
2024-10-11T14:16:38.591Z,0.0176,-0.9873,0.1323,0.1154,-0.0106,-0.2634,-0.0123,0.0140,0.0002,2.8783,1.4597,2.9438
2024-10-11T14:16:38.600Z,0.0176,-0.9873,0.1323,0.0319,-0.0644,-0.2233,-0.0139,0.0132,-0.0001,2.8781,1.4600,2.9443
2024-10-11T14:16:38.611Z,0.0181,-0.9897,0.1260,0.0319,-0.0644,-0.2233,-0.0147,0.0107,0.0013,2.8781,1.4600,2.9443
2024-10-11T14:16:38.620Z,0.0181,-0.9897,0.1260,0.0319,-0.0644,-0.2233,-0.0153,0.0137,-0.0003,2.8781,1.4600,2.9443
2024-10-11T14:16:38.631Z,0.0151,-0.9960,0.1227,0.0257,0.0110,-0.1697,-0.0173,0.0161,-0.0001,2.8783,1.4604,2.9442
2024-10-11T14:16:38.641Z,0.0114,-0.9964,0.1199,0.0257,0.0110,-0.1697,-0.0155,0.0186,0.0011,2.8783,1.4604,2.9442
2024-10-11T14:16:38.650Z,0.0064,-0.9985,0.1169,0.0257,0.0110,-0.1697,-0.0146,0.0224,-0.0013,2.8783,1.4604,2.9442
2024-10-11T14:16:38.661Z,0.0034,-0.9995,0.1131,0.1680,0.0475,-0.0712,-0.0164,0.0249,0.0015,2.8789,1.4607,2.9439
2024-10-11T14:16:38.671Z,0.0033,-1.0002,0.1095,0.1680,0.0475,-0.0712,-0.0158,0.0307,-0.0025,2.8789,1.4607,2.9439
2024-10-11T14:16:38.681Z,0.0007,-1.0095,0.1124,0.1680,0.0475,-0.0712,-0.0129,0.0325,-0.0011,2.8789,1.4607,2.9439
2024-10-11T14:16:38.691Z,0.0021,-1.0291,0.1017,0.2030,0.2516,-0.0100,-0.0093,0.0342,-0.0017,2.8798,1.4611,2.9436
2024-10-11T14:16:38.700Z,0.0047,-1.0381,0.0945,0.2030,0.2516,-0.0100,-0.0067,0.0375,-0.0021,2.8798,1.4611,2.9436
2024-10-11T14:16:38.711Z,0.0050,-1.0266,0.0992,0.2030,0.2516,-0.0100,-0.0072,0.0393,-0.0050,2.8798,1.4611,2.9436
2024-10-11T14:16:38.721Z,0.0088,-1.0173,0.1038,0.1521,0.2766,0.0257,-0.0053,0.0389,-0.0061,2.8811,1.4612,2.9432
2024-10-11T14:16:38.731Z,0.0112,-1.0108,0.1051,0.1521,0.2766,0.0257,-0.0087,0.0372,-0.0049,2.8811,1.4612,2.9432
2024-10-11T14:16:38.741Z,0.0129,-1.0016,0.1105,0.1521,0.2766,0.0257,-0.0110,0.0391,-0.0060,2.8811,1.4612,2.9432
2024-10-11T14:16:38.750Z,0.0174,-0.9941,0.1221,0.0664,0.0270,-0.0998,-0.0126,0.0399,-0.0032,2.8825,1.4615,2.9427
2024-10-11T14:16:38.761Z,0.0208,-0.9901,0.1326,0.0664,0.0270,-0.0998,-0.0186,0.0399,-0.0042,2.8825,1.4615,2.9427
2024-10-11T14:16:38.771Z,0.0218,-0.9865,0.1279,0.0664,0.0270,-0.0998,-0.0183,0.0390,-0.0036,2.8825,1.4615,2.9427
2024-10-11T14:16:38.781Z,0.0174,-0.9857,0.1096,0.0222,-0.0807,-0.1355,-0.0167,0.0360,-0.0038,2.8839,1.4619,2.9423
2024-10-11T14:16:38.791Z,0.0256,-0.9857,0.1000,0.0222,-0.0807,-0.1355,-0.0170,0.0373,-0.0051,2.8839,1.4619,2.9423
2024-10-11T14:16:38.800Z,0.0256,-0.9857,0.1000,0.0222,-0.0807,-0.1355,-0.0185,0.0335,-0.0055,2.8839,1.4619,2.9423
2024-10-11T14:16:38.811Z,0.0242,-1.0025,0.1108,-0.0210,0.0073,-0.0575,-0.0185,0.0294,-0.0007,2.8850,1.4624,2.9420
2024-10-11T14:16:38.821Z,0.0238,-1.0059,0.1030,-0.0210,0.0073,-0.0575,-0.0183,0.0308,-0.0036,2.8850,1.4624,2.9420
2024-10-11T14:16:38.831Z,0.0289,-0.9891,0.1095,-0.0210,0.0073,-0.0575,-0.0231,0.0265,-0.0011,2.8850,1.4624,2.9420
2024-10-11T14:16:38.841Z,0.0285,-0.9648,0.1222,-0.0913,-0.2006,-0.0936,-0.0251,0.0304,-0.0001,2.8865,1.4629,2.9411
2024-10-11T14:16:38.851Z,0.0285,-0.9648,0.1222,-0.0913,-0.2006,-0.0936,-0.0235,0.0264,-0.0002,2.8865,1.4629,2.9411
2024-10-11T14:16:38.861Z,0.0226,-0.9728,0.0896,-0.0913,-0.2006,-0.0936,-0.0249,0.0257,-0.0007,2.8865,1.4629,2.9411
2024-10-11T14:16:38.871Z,0.0232,-0.9690,0.0972,0.0212,-0.2320,0.1407,-0.0248,0.0242,0.0003,2.8878,1.4636,2.9404
2024-10-11T14:16:38.881Z,0.0290,-0.9728,0.1000,0.0212,-0.2320,0.1407,-0.0239,0.0219,0.0004,2.8878,1.4636,2.9404
2024-10-11T14:16:38.891Z,0.0275,-0.9766,0.1044,0.0212,-0.2320,0.1407,-0.0252,0.0214,0.0021,2.8878,1.4636,2.9404
2024-10-11T14:16:38.901Z,0.0316,-0.9801,0.1020,-0.0903,-0.1605,0.0105,-0.0241,0.0163,0.0014,2.8888,1.4643,2.9397
2024-10-11T14:16:38.910Z,0.0263,-0.9860,0.1017,-0.0903,-0.1605,0.0105,-0.0237,0.0175,0.0022,2.8888,1.4643,2.9397
2024-10-11T14:16:38.921Z,0.0234,-0.9909,0.1032,-0.0903,-0.1605,0.0105,-0.0228,0.0101,0.0014,2.8888,1.4643,2.9397
2024-10-11T14:16:38.931Z,0.0241,-0.9944,0.0929,-0.0185,-0.0182,0.0425,-0.0196,0.0120,0.0011,2.8895,1.4649,2.9392
2024-10-11T14:16:38.941Z,0.0280,-1.0044,0.0752,-0.0185,-0.0182,0.0425,-0.0151,0.0092,0.0027,2.8895,1.4649,2.9392
2024-10-11T14:16:38.951Z,0.0302,-1.0001,0.0821,-0.0185,-0.0182,0.0425,-0.0143,0.0073,0.0019,2.8895,1.4649,2.9392
2024-10-11T14:16:38.961Z,0.0231,-0.9910,0.0965,-0.0560,0.0103,0.0981,-0.0112,0.0052,0.0018,2.8897,1.4653,2.9391
2024-10-11T14:16:38.971Z,0.0211,-0.9916,0.1043,-0.0560,0.0103,0.0981,-0.0103,0.0039,0.0016,2.8897,1.4653,2.9391
2024-10-11T14:16:38.981Z,0.0199,-1.0021,0.0842,-0.0560,0.0103,0.0981,-0.0064,-0.0003,0.0009,2.8897,1.4653,2.9391
2024-10-11T14:16:38.991Z,0.0262,-0.9972,0.0872,-0.0167,0.0636,0.1354,-0.0062,0.0016,-0.0003,2.8901,1.4657,2.9385
2024-10-11T14:16:39.001Z,0.0301,-0.9916,0.0789,-0.0167,0.0636,0.1354,-0.0047,0.0004,0.0017,2.8901,1.4657,2.9385
2024-10-11T14:16:39.011Z,0.0309,-0.9894,0.0743,-0.0167,0.0636,0.1354,-0.0005,-0.0019,0.0035,2.8901,1.4657,2.9385
2024-10-11T14:16:39.021Z,0.0264,-0.9874,0.0819,-0.0747,-0.0642,0.2543,0.0026,-0.0019,0.0023,2.8898,1.4658,2.9386
2024-10-11T14:16:39.031Z,0.0213,-0.9889,0.0877,-0.0747,-0.0642,0.2543,0.0029,-0.0013,0.0051,2.8898,1.4658,2.9386
2024-10-11T14:16:39.041Z,0.0237,-0.9866,0.0962,-0.0747,-0.0642,0.2543,0.0038,-0.0022,0.0033,2.8898,1.4658,2.9386
2024-10-11T14:16:39.052Z,0.0257,-0.9880,0.0977,-0.0416,-0.0699,0.0318,0.0067,-0.0020,0.0037,2.8889,1.4657,2.9392
2024-10-11T14:16:39.061Z,0.0319,-0.9907,0.0921,-0.0416,-0.0699,0.0318,0.0060,-0.0002,0.0064,2.8889,1.4657,2.9392
2024-10-11T14:16:39.071Z,0.0353,-0.9951,0.0938,-0.0416,-0.0699,0.0318,0.0070,-0.0007,0.0072,2.8889,1.4657,2.9392
2024-10-11T14:16:39.081Z,0.0351,-0.9935,0.1115,-0.1527,-0.0075,-0.0013,0.0054,0.0011,0.0088,2.8868,1.4656,2.9410
2024-10-11T14:16:39.091Z,0.0279,-0.9908,0.1121,-0.1527,-0.0075,-0.0013,0.0032,0.0030,0.0109,2.8868,1.4656,2.9410
2024-10-11T14:16:39.101Z,0.0188,-0.9994,0.1083,-0.1527,-0.0075,-0.0013,0.0056,-0.0010,0.0081,2.8868,1.4656,2.9410
2024-10-11T14:16:39.111Z,0.0164,-1.0080,0.1076,0.0254,0.0943,0.0035,0.0050,-0.0005,0.0065,2.8845,1.4656,2.9431
2024-10-11T14:16:39.121Z,0.0152,-1.0104,0.1114,0.0254,0.0943,0.0035,0.0037,-0.0010,0.0040,2.8845,1.4656,2.9431
2024-10-11T14:16:39.131Z,0.0221,-1.0091,0.1098,0.0254,0.0943,0.0035,0.0035,-0.0017,0.0054,2.8845,1.4656,2.9431
2024-10-11T14:16:39.141Z,0.0236,-1.0067,0.1177,-0.0337,0.1321,-0.0984,0.0034,-0.0033,0.0067,2.8825,1.4656,2.9447
2024-10-11T14:16:39.151Z,0.0236,-1.0067,0.1177,-0.0337,0.1321,-0.0984,0.0034,-0.0038,0.0035,2.8825,1.4656,2.9447
2024-10-11T14:16:39.161Z,0.0192,-1.0028,0.1147,-0.0337,0.1321,-0.0984,0.0003,-0.0030,0.0063,2.8825,1.4656,2.9447
2024-10-11T14:16:39.171Z,0.0190,-0.9998,0.1185,0.0222,0.0615,-0.1399,0.0013,-0.0060,0.0064,2.8814,1.4656,2.9455
2024-10-11T14:16:39.181Z,0.0161,-0.9997,0.1088,0.0222,0.0615,-0.1399,-0.0005,-0.0052,0.0004,2.8814,1.4656,2.9455
2024-10-11T14:16:39.191Z,0.0140,-1.0012,0.1097,0.0222,0.0615,-0.1399,-0.0021,-0.0079,-0.0022,2.8814,1.4656,2.9455
2024-10-11T14:16:39.202Z,0.0211,-1.0051,0.1130,0.0270,0.0950,-0.0764,0.0003,-0.0100,-0.0007,2.8808,1.4656,2.9457
2024-10-11T14:16:39.211Z,0.0169,-1.0055,0.1166,0.0270,0.0950,-0.0764,-0.0022,-0.0114,-0.0033,2.8808,1.4656,2.9457
2024-10-11T14:16:39.221Z,0.0092,-1.0044,0.1092,0.0270,0.0950,-0.0764,-0.0036,-0.0144,-0.0049,2.8808,1.4656,2.9457
2024-10-11T14:16:39.231Z,0.0121,-1.0050,0.0968,0.1122,0.0969,-0.0044,-0.0039,-0.0182,-0.0045,2.8817,1.4656,2.9442
2024-10-11T14:16:39.241Z,0.0196,-0.9964,0.0958,0.1122,0.0969,-0.0044,0.0003,-0.0184,-0.0075,2.8817,1.4656,2.9442
2024-10-11T14:16:39.251Z,0.0244,-0.9814,0.0966,0.1122,0.0969,-0.0044,-0.0023,-0.0179,-0.0060,2.8817,1.4656,2.9442
2024-10-11T14:16:39.261Z,0.0283,-0.9697,0.1008,-0.0553,-0.1892,0.0600,-0.0051,-0.0180,-0.0054,2.8832,1.4656,2.9418
2024-10-11T14:16:39.271Z,0.0259,-0.9685,0.1014,-0.0553,-0.1892,0.0600,-0.0038,-0.0228,-0.0060,2.8832,1.4656,2.9418
2024-10-11T14:16:39.281Z,0.0192,-0.9762,0.1026,-0.0553,-0.1892,0.0600,-0.0064,-0.0260,-0.0091,2.8832,1.4656,2.9418
2024-10-11T14:16:39.291Z,0.0128,-0.9793,0.1057,0.0689,-0.1581,0.0039,-0.0049,-0.0311,-0.0098,2.8851,1.4657,2.9389
2024-10-11T14:16:39.301Z,0.0237,-0.9834,0.1060,0.0689,-0.1581,0.0039,-0.0034,-0.0301,-0.0085,2.8851,1.4657,2.9389
2024-10-11T14:16:39.311Z,0.0308,-0.9852,0.0995,0.0689,-0.1581,0.0039,-0.0030,-0.0280,-0.0101,2.8851,1.4657,2.9389
2024-10-11T14:16:39.320Z,0.0314,-0.9899,0.0998,-0.0941,-0.0824,0.0318,-0.0031,-0.0278,-0.0056,2.8870,1.4657,2.9359
2024-10-11T14:16:39.331Z,0.0293,-0.9975,0.1024,-0.0941,-0.0824,0.0318,-0.0040,-0.0286,-0.0068,2.8870,1.4657,2.9359
2024-10-11T14:16:39.341Z,0.0238,-0.9974,0.1078,-0.0941,-0.0824,0.0318,-0.0036,-0.0303,-0.0066,2.8870,1.4657,2.9359
2024-10-11T14:16:39.350Z,0.0204,-0.9964,0.1091,0.0066,0.0302,-0.0751,-0.0029,-0.0303,-0.0070,2.8892,1.4658,2.9326
2024-10-11T14:16:39.361Z,0.0215,-0.9908,0.1142,0.0066,0.0302,-0.0751,-0.0064,-0.0329,-0.0080,2.8892,1.4658,2.9326
2024-10-11T14:16:39.371Z,0.0228,-0.9814,0.1242,0.0066,0.0302,-0.0751,-0.0088,-0.0349,-0.0071,2.8892,1.4658,2.9326
2024-10-11T14:16:39.381Z,0.0223,-0.9844,0.1260,-0.0141,-0.1391,-0.2567,-0.0113,-0.0338,-0.0075,2.8914,1.4660,2.9292
2024-10-11T14:16:39.391Z,0.0172,-0.9935,0.1225,-0.0141,-0.1391,-0.2567,-0.0131,-0.0343,-0.0092,2.8914,1.4660,2.9292
2024-10-11T14:16:39.402Z,0.0130,-1.0030,0.1131,-0.0141,-0.1391,-0.2567,-0.0129,-0.0366,-0.0082,2.8914,1.4660,2.9292
2024-10-11T14:16:39.411Z,0.0115,-1.0034,0.1168,0.1084,0.0833,-0.1282,-0.0158,-0.0366,-0.0107,2.8947,1.4663,2.9246
2024-10-11T14:16:39.420Z,0.0201,-1.0036,0.1206,0.1084,0.0833,-0.1282,-0.0154,-0.0380,-0.0083,2.8947,1.4663,2.9246
2024-10-11T14:16:39.431Z,0.0280,-1.0037,0.1118,0.1084,0.0833,-0.1282,-0.0153,-0.0387,-0.0089,2.8947,1.4663,2.9246
2024-10-11T14:16:39.441Z,0.0283,-1.0023,0.1101,-0.0504,0.0709,-0.0969,-0.0107,-0.0321,-0.0089,2.8976,1.4666,2.9203
2024-10-11T14:16:39.451Z,0.0286,-1.0052,0.1058,-0.0504,0.0709,-0.0969,-0.0113,-0.0296,-0.0034,2.8976,1.4666,2.9203
2024-10-11T14:16:39.461Z,0.0277,-1.0072,0.1060,-0.0504,0.0709,-0.0969,-0.0108,-0.0270,-0.0007,2.8976,1.4666,2.9203
2024-10-11T14:16:39.470Z,0.0247,-1.0028,0.1001,-0.0409,0.1012,-0.0095,-0.0122,-0.0277,-0.0029,2.8990,1.4668,2.9177
2024-10-11T14:16:39.481Z,0.0174,-0.9982,0.0934,-0.0409,0.1012,-0.0095,-0.0102,-0.0301,-0.0008,2.8990,1.4668,2.9177
2024-10-11T14:16:39.491Z,0.0210,-0.9893,0.1077,-0.0409,0.1012,-0.0095,-0.0108,-0.0293,-0.0020,2.8990,1.4668,2.9177
2024-10-11T14:16:39.501Z,0.0245,-0.9871,0.1100,-0.0042,-0.0810,-0.0692,-0.0115,-0.0289,-0.0048,2.8999,1.4670,2.9158
2024-10-11T14:16:39.511Z,0.0192,-0.9977,0.1048,-0.0042,-0.0810,-0.0692,-0.0113,-0.0271,-0.0020,2.8999,1.4670,2.9158
2024-10-11T14:16:39.520Z,0.0162,-0.9949,0.1010,-0.0042,-0.0810,-0.0692,-0.0078,-0.0246,-0.0022,2.8999,1.4670,2.9158
2024-10-11T14:16:39.531Z,0.0177,-0.9917,0.0976,0.0586,-0.0048,0.0380,-0.0110,-0.0264,-0.0053,2.9011,1.4672,2.9136
2024-10-11T14:16:39.541Z,0.0158,-0.9936,0.0999,0.0586,-0.0048,0.0380,-0.0101,-0.0290,-0.0048,2.9011,1.4672,2.9136
2024-10-11T14:16:39.551Z,0.0170,-0.9965,0.0946,0.0586,-0.0048,0.0380,-0.0057,-0.0310,-0.0047,2.9011,1.4672,2.9136
2024-10-11T14:16:39.561Z,0.0138,-0.9940,0.0943,0.0829,0.0144,0.0841,-0.0079,-0.0310,-0.0049,2.9027,1.4674,2.9109
2024-10-11T14:16:39.571Z,0.0167,-0.9964,0.1042,0.0829,0.0144,0.0841,-0.0095,-0.0301,-0.0034,2.9027,1.4674,2.9109
2024-10-11T14:16:39.581Z,0.0204,-1.0004,0.1103,0.0829,0.0144,0.0841,-0.0103,-0.0281,-0.0029,2.9027,1.4674,2.9109
2024-10-11T14:16:39.590Z,0.0204,-1.0012,0.1116,0.0410,0.0683,-0.1390,-0.0103,-0.0285,-0.0052,2.9042,1.4676,2.9082
2024-10-11T14:16:39.601Z,0.0229,-0.9997,0.1027,0.0410,0.0683,-0.1390,-0.0098,-0.0315,-0.0039,2.9042,1.4676,2.9082
2024-10-11T14:16:39.611Z,0.0177,-0.9974,0.0989,0.0410,0.0683,-0.1390,-0.0118,-0.0285,-0.0058,2.9042,1.4676,2.9082
2024-10-11T14:16:39.620Z,0.0256,-0.9960,0.1133,0.0388,0.0055,-0.0982,-0.0117,-0.0322,-0.0068,2.9061,1.4679,2.9052
2024-10-11T14:16:39.631Z,0.0267,-0.9997,0.1037,0.0388,0.0055,-0.0982,-0.0104,-0.0337,-0.0039,2.9061,1.4679,2.9052
2024-10-11T14:16:39.641Z,0.0240,-1.0005,0.0923,0.0388,0.0055,-0.0982,-0.0089,-0.0377,-0.0055,2.9061,1.4679,2.9052
2024-10-11T14:16:39.652Z,0.0290,-0.9965,0.0874,-0.0181,0.0374,0.0834,-0.0100,-0.0401,-0.0034,2.9079,1.4682,2.9021
2024-10-11T14:16:39.661Z,0.0282,-0.9922,0.0969,-0.0181,0.0374,0.0834,-0.0111,-0.0387,-0.0034,2.9079,1.4682,2.9021
