time,gFx,gFy,gFz,ax,ay,az,wx,wy,wz,yaw,pitch,roll
2024-10-11T13:59:46.549Z,0.0215,-0.9758,0.1649,-0.0111,-0.0299,0.2064,0.0050,0.0258,-0.0116,2.8387,1.3813,3.0335
2024-10-11T13:59:46.557Z,0.0210,-0.9821,0.1663,-0.0111,-0.0299,0.2064,0.0115,0.0232,-0.0115,2.8387,1.3813,3.0335
2024-10-11T13:59:46.567Z,0.0220,-0.9823,0.1685,-0.0111,-0.0299,0.2064,0.0161,0.0220,-0.0133,2.8387,1.3813,3.0335
2024-10-11T13:59:46.577Z,0.0226,-0.9848,0.1712,-0.0232,0.0186,0.1751,0.0169,0.0184,-0.0136,2.8404,1.3809,3.0322
2024-10-11T13:59:46.587Z,0.0197,-0.9867,0.1730,-0.0232,0.0186,0.1751,0.0190,0.0169,-0.0159,2.8404,1.3809,3.0322
2024-10-11T13:59:46.597Z,0.0224,-0.9873,0.1748,-0.0232,0.0186,0.1751,0.0244,0.0133,-0.0137,2.8404,1.3809,3.0322
2024-10-11T13:59:46.607Z,0.0240,-0.9876,0.1758,-0.0235,0.0455,0.1195,0.0270,0.0128,-0.0147,2.8420,1.3803,3.0308
2024-10-11T13:59:46.617Z,0.0239,-0.9878,0.1786,-0.0235,0.0455,0.1195,0.0259,0.0110,-0.0160,2.8420,1.3803,3.0308
2024-10-11T13:59:46.627Z,0.0243,-0.9871,0.1795,-0.0235,0.0455,0.1195,0.0269,0.0113,-0.0138,2.8420,1.3803,3.0308
2024-10-11T13:59:46.637Z,0.0246,-0.9868,0.1815,-0.0328,0.0474,0.0724,0.0267,0.0096,-0.0134,2.8436,1.3796,3.0294
2024-10-11T13:59:46.647Z,0.0261,-0.9843,0.1806,-0.0328,0.0474,0.0724,0.0284,0.0077,-0.0138,2.8436,1.3796,3.0294
2024-10-11T13:59:46.657Z,0.0280,-0.9833,0.1799,-0.0328,0.0474,0.0724,0.0278,0.0072,-0.0130,2.8436,1.3796,3.0294
2024-10-11T13:59:46.667Z,0.0274,-0.9815,0.1809,-0.0675,0.0004,0.0930,0.0286,0.0038,-0.0120,2.8447,1.3787,3.0282
2024-10-11T13:59:46.677Z,0.0295,-0.9814,0.1825,-0.0675,0.0004,0.0930,0.0309,0.0001,-0.0088,2.8447,1.3787,3.0282
2024-10-11T13:59:46.687Z,0.0299,-0.9797,0.1844,-0.0675,0.0004,0.0930,0.0335,-0.0014,-0.0093,2.8447,1.3787,3.0282
2024-10-11T13:59:46.697Z,0.0314,-0.9790,0.1880,-0.0849,-0.0255,0.0378,0.0307,-0.0024,-0.0086,2.8455,1.3778,3.0272
2024-10-11T13:59:46.707Z,0.0306,-0.9810,0.1898,-0.0849,-0.0255,0.0378,0.0318,-0.0044,-0.0095,2.8455,1.3778,3.0272
2024-10-11T13:59:46.717Z,0.0311,-0.9792,0.1911,-0.0849,-0.0255,0.0378,0.0305,-0.0040,-0.0067,2.8455,1.3778,3.0272
2024-10-11T13:59:46.727Z,0.0306,-0.9803,0.1944,-0.0923,-0.0102,-0.0150,0.0311,-0.0067,-0.0056,2.8458,1.3768,3.0266
2024-10-11T13:59:46.737Z,0.0295,-0.9799,0.1940,-0.0923,-0.0102,-0.0150,0.0289,-0.0081,-0.0052,2.8458,1.3768,3.0266
2024-10-11T13:59:46.747Z,0.0318,-0.9780,0.1954,-0.0923,-0.0102,-0.0150,0.0277,-0.0074,-0.0033,2.8458,1.3768,3.0266
2024-10-11T13:59:46.756Z,0.0298,-0.9796,0.1944,-0.0882,-0.0173,-0.0225,0.0303,-0.0072,-0.0021,2.8458,1.3759,3.0261
2024-10-11T13:59:46.767Z,0.0294,-0.9797,0.1943,-0.0882,-0.0173,-0.0225,0.0264,-0.0048,-0.0030,2.8458,1.3759,3.0261
2024-10-11T13:59:46.777Z,0.0290,-0.9802,0.1942,-0.0882,-0.0173,-0.0225,0.0270,-0.0089,0.0017,2.8458,1.3759,3.0261
2024-10-11T13:59:46.787Z,0.0291,-0.9813,0.1951,-0.0672,-0.0007,-0.0218,0.0248,-0.0074,-0.0010,2.8457,1.3751,3.0257
2024-10-11T13:59:46.797Z,0.0299,-0.9821,0.1937,-0.0672,-0.0007,-0.0218,0.0247,-0.0085,-0.0004,2.8457,1.3751,3.0257
2024-10-11T13:59:46.807Z,0.0317,-0.9847,0.1947,-0.0672,-0.0007,-0.0218,0.0239,-0.0087,-0.0017,2.8457,1.3751,3.0257
2024-10-11T13:59:46.817Z,0.0295,-0.9830,0.1967,-0.0763,0.0248,-0.0230,0.0219,-0.0076,-0.0015,2.8454,1.3744,3.0255
2024-10-11T13:59:46.827Z,0.0291,-0.9853,0.1979,-0.0763,0.0248,-0.0230,0.0188,-0.0091,-0.0009,2.8454,1.3744,3.0255
2024-10-11T13:59:46.838Z,0.0297,-0.9822,0.1990,-0.0763,0.0248,-0.0230,0.0141,-0.0075,-0.0004,2.8454,1.3744,3.0255
2024-10-11T13:59:46.847Z,0.0312,-0.9829,0.1991,-0.0795,0.0214,-0.0514,0.0160,-0.0085,-0.0012,2.8455,1.3738,3.0249
2024-10-11T13:59:46.857Z,0.0309,-0.9823,0.1999,-0.0795,0.0214,-0.0514,0.0145,-0.0114,-0.0023,2.8455,1.3738,3.0249
2024-10-11T13:59:46.867Z,0.0322,-0.9816,0.2012,-0.0795,0.0214,-0.0514,0.0130,-0.0085,0.0015,2.8455,1.3738,3.0249
2024-10-11T13:59:46.878Z,0.0342,-0.9810,0.2001,-0.1008,0.0054,-0.0594,0.0102,-0.0088,0.0006,2.8458,1.3733,3.0240
2024-10-11T13:59:46.887Z,0.0342,-0.9798,0.1993,-0.1008,0.0054,-0.0594,0.0081,-0.0080,-0.0001,2.8458,1.3733,3.0240
2024-10-11T13:59:46.897Z,0.0337,-0.9795,0.2006,-0.1008,0.0054,-0.0594,0.0087,-0.0055,0.0006,2.8458,1.3733,3.0240
2024-10-11T13:59:46.907Z,0.0335,-0.9800,0.2005,-0.0952,-0.0078,-0.0504,0.0084,-0.0042,0.0029,2.8463,1.3730,3.0229
2024-10-11T13:59:46.917Z,0.0329,-0.9806,0.1991,-0.0952,-0.0078,-0.0504,0.0079,-0.0028,0.0029,2.8463,1.3730,3.0229
2024-10-11T13:59:46.927Z,0.0322,-0.9833,0.1998,-0.0952,-0.0078,-0.0504,0.0061,-0.0026,0.0028,2.8463,1.3730,3.0229
2024-10-11T13:59:46.937Z,0.0309,-0.9844,0.1990,-0.0781,0.0465,-0.0399,0.0063,0.0008,0.0035,2.8467,1.3726,3.0222
2024-10-11T13:59:46.947Z,0.0294,-0.9872,0.1982,-0.0781,0.0465,-0.0399,0.0069,0.0028,0.0037,2.8467,1.3726,3.0222
2024-10-11T13:59:46.956Z,0.0299,-0.9875,0.1941,-0.0781,0.0465,-0.0399,0.0060,0.0015,0.0027,2.8467,1.3726,3.0222
2024-10-11T13:59:46.967Z,0.0295,-0.9903,0.1928,-0.0557,0.0852,0.0267,0.0048,0.0052,0.0018,2.8477,1.3722,3.0210
2024-10-11T13:59:46.977Z,0.0289,-0.9896,0.1926,-0.0557,0.0852,0.0267,0.0075,0.0043,0.0010,2.8477,1.3722,3.0210
2024-10-11T13:59:46.987Z,0.0297,-0.9893,0.1918,-0.0557,0.0852,0.0267,0.0028,0.0083,0.0018,2.8477,1.3722,3.0210
2024-10-11T13:59:46.997Z,0.0289,-0.9895,0.1915,-0.0503,0.0909,0.0503,0.0043,0.0106,0.0047,2.8473,1.3719,3.0212
2024-10-11T13:59:47.006Z,0.0301,-0.9903,0.1898,-0.0503,0.0909,0.0503,0.0050,0.0073,0.0034,2.8473,1.3719,3.0212
2024-10-11T13:59:47.017Z,0.0285,-0.9900,0.1898,-0.0503,0.0909,0.0503,0.0059,0.0062,0.0018,2.8473,1.3719,3.0212
2024-10-11T13:59:47.027Z,0.0292,-0.9894,0.1918,-0.0360,0.0903,0.0474,0.0024,0.0097,0.0021,2.8468,1.3718,3.0217
2024-10-11T13:59:47.038Z,0.0292,-0.9907,0.1901,-0.0360,0.0903,0.0474,0.0064,0.0093,0.0006,2.8468,1.3718,3.0217
2024-10-11T13:59:47.047Z,0.0304,-0.9890,0.1922,-0.0360,0.0903,0.0474,0.0033,0.0127,0.0007,2.8468,1.3718,3.0217
2024-10-11T13:59:47.057Z,0.0317,-0.9902,0.1921,-0.0754,0.0934,0.0291,0.0029,0.0123,0.0037,2.8465,1.3716,3.0220
2024-10-11T13:59:47.067Z,0.0299,-0.9879,0.1923,-0.0754,0.0934,0.0291,-0.0006,0.0163,0.0012,2.8465,1.3716,3.0220
2024-10-11T13:59:47.077Z,0.0302,-0.9863,0.1914,-0.0754,0.0934,0.0291,0.0032,0.0148,0.0033,2.8465,1.3716,3.0220
2024-10-11T13:59:47.087Z,0.0302,-0.9834,0.1906,-0.0684,0.0437,0.0606,0.0001,0.0156,0.0027,2.8465,1.3717,3.0223
2024-10-11T13:59:47.097Z,0.0273,-0.9830,0.1944,-0.0684,0.0437,0.0606,-0.0023,0.0148,0.0004,2.8465,1.3717,3.0223
2024-10-11T13:59:47.106Z,0.0243,-0.9801,0.1945,-0.0684,0.0437,0.0606,-0.0029,0.0170,0.0003,2.8465,1.3717,3.0223
2024-10-11T13:59:47.117Z,0.0228,-0.9814,0.1935,0.0091,0.0046,0.0238,-0.0025,0.0171,0.0008,2.8468,1.3719,3.0221
2024-10-11T13:59:47.127Z,0.0234,-0.9805,0.1928,0.0091,0.0046,0.0238,-0.0064,0.0171,-0.0016,2.8468,1.3719,3.0221
2024-10-11T13:59:47.137Z,0.0219,-0.9815,0.1923,0.0091,0.0046,0.0238,-0.0043,0.0160,-0.0004,2.8468,1.3719,3.0221
2024-10-11T13:59:47.147Z,0.0233,-0.9806,0.1914,0.0030,0.0134,0.0451,-0.0060,0.0181,-0.0006,2.8470,1.3721,3.0221
2024-10-11T13:59:47.156Z,0.0225,-0.9795,0.1911,0.0030,0.0134,0.0451,-0.0080,0.0161,-0.0041,2.8470,1.3721,3.0221
2024-10-11T13:59:47.167Z,0.0197,-0.9807,0.1893,0.0030,0.0134,0.0451,-0.0072,0.0155,-0.0034,2.8470,1.3721,3.0221
2024-10-11T13:59:47.176Z,0.0204,-0.9801,0.1905,0.0295,-0.0033,0.0604,-0.0067,0.0146,-0.0030,2.8474,1.3723,3.0219
2024-10-11T13:59:47.186Z,0.0204,-0.9804,0.1909,0.0295,-0.0033,0.0604,-0.0099,0.0163,-0.0039,2.8474,1.3723,3.0219
2024-10-11T13:59:47.197Z,0.0217,-0.9796,0.1893,0.0295,-0.0033,0.0604,-0.0092,0.0140,-0.0043,2.8474,1.3723,3.0219
2024-10-11T13:59:47.207Z,0.0242,-0.9789,0.1902,-0.0028,-0.0091,0.0499,-0.0085,0.0138,-0.0029,2.8480,1.3725,3.0215
2024-10-11T13:59:47.217Z,0.0252,-0.9798,0.1904,-0.0028,-0.0091,0.0499,-0.0120,0.0139,-0.0036,2.8480,1.3725,3.0215
2024-10-11T13:59:47.227Z,0.0272,-0.9803,0.1925,-0.0028,-0.0091,0.0499,-0.0098,0.0105,-0.0031,2.8480,1.3725,3.0215
2024-10-11T13:59:47.237Z,0.0262,-0.9824,0.1929,-0.0258,0.0094,0.0193,-0.0094,0.0127,-0.0033,2.8484,1.3729,3.0213
2024-10-11T13:59:47.247Z,0.0253,-0.9809,0.1941,-0.0258,0.0094,0.0193,-0.0111,0.0112,-0.0015,2.8484,1.3729,3.0213
2024-10-11T13:59:47.256Z,0.0288,-0.9823,0.1928,-0.0258,0.0094,0.0193,-0.0145,0.0119,-0.0008,2.8484,1.3729,3.0213
2024-10-11T13:59:47.267Z,0.0280,-0.9839,0.1920,-0.0601,0.0365,0.0281,-0.0107,0.0130,-0.0001,2.8480,1.3734,3.0218
2024-10-11T13:59:47.277Z,0.0256,-0.9846,0.1908,-0.0601,0.0365,0.0281,-0.0136,0.0129,0.0005,2.8480,1.3734,3.0218
2024-10-11T13:59:47.288Z,0.0271,-0.9863,0.1918,-0.0601,0.0365,0.0281,-0.0118,0.0146,0.0032,2.8480,1.3734,3.0218
2024-10-11T13:59:47.297Z,0.0275,-0.9853,0.1912,-0.0321,0.0449,0.0175,-0.0097,0.0123,0.0041,2.8478,1.3738,3.0221
2024-10-11T13:59:47.306Z,0.0293,-0.9869,0.1889,-0.0321,0.0449,0.0175,-0.0102,0.0182,0.0042,2.8478,1.3738,3.0221
2024-10-11T13:59:47.318Z,0.0274,-0.9870,0.1885,-0.0321,0.0449,0.0175,-0.0099,0.0165,0.0039,2.8478,1.3738,3.0221
2024-10-11T13:59:47.327Z,0.0268,-0.9882,0.1873,-0.0331,0.0700,0.0559,-0.0073,0.0159,0.0052,2.8473,1.3742,3.0228
2024-10-11T13:59:47.337Z,0.0280,-0.9870,0.1875,-0.0331,0.0700,0.0559,-0.0063,0.0193,0.0087,2.8473,1.3742,3.0228
2024-10-11T13:59:47.346Z,0.0269,-0.9842,0.1868,-0.0331,0.0700,0.0559,-0.0063,0.0185,0.0109,2.8473,1.3742,3.0228
2024-10-11T13:59:47.356Z,0.0260,-0.9823,0.1864,-0.0349,0.0286,0.0733,-0.0076,0.0230,0.0127,2.8464,1.3745,3.0239
2024-10-11T13:59:47.366Z,0.0222,-0.9799,0.1859,-0.0349,0.0286,0.0733,-0.0045,0.0230,0.0118,2.8464,1.3745,3.0239
2024-10-11T13:59:47.376Z,0.0205,-0.9770,0.1854,-0.0349,0.0286,0.0733,-0.0043,0.0242,0.0103,2.8464,1.3745,3.0239
2024-10-11T13:59:47.387Z,0.0200,-0.9742,0.1874,0.0170,-0.0605,0.0687,-0.0048,0.0291,0.0108,2.8452,1.3747,3.0256
2024-10-11T13:59:47.397Z,0.0180,-0.9710,0.1870,0.0170,-0.0605,0.0687,-0.0044,0.0311,0.0123,2.8452,1.3747,3.0256
2024-10-11T13:59:47.407Z,0.0154,-0.9688,0.1883,0.0170,-0.0605,0.0687,-0.0030,0.0306,0.0095,2.8452,1.3747,3.0256
2024-10-11T13:59:47.417Z,0.0141,-0.9695,0.1868,0.0838,-0.1173,0.0508,0.0013,0.0245,0.0102,2.8434,1.3748,3.0280
2024-10-11T13:59:47.427Z,0.0125,-0.9708,0.1830,0.0838,-0.1173,0.0508,0.0006,0.0295,0.0103,2.8434,1.3748,3.0280
2024-10-11T13:59:47.437Z,0.0154,-0.9729,0.1819,0.0838,-0.1173,0.0508,0.0035,0.0266,0.0119,2.8434,1.3748,3.0280
2024-10-11T13:59:47.447Z,0.0190,-0.9731,0.1776,0.0346,-0.0809,0.1395,0.0067,0.0255,0.0113,2.8415,1.3748,3.0304
2024-10-11T13:59:47.457Z,0.0174,-0.9746,0.1785,0.0346,-0.0809,0.1395,0.0041,0.0259,0.0088,2.8415,1.3748,3.0304
2024-10-11T13:59:47.467Z,0.0196,-0.9735,0.1871,0.0346,-0.0809,0.1395,0.0085,0.0204,0.0104,2.8415,1.3748,3.0304
2024-10-11T13:59:47.477Z,0.0137,-0.9735,0.1931,0.0360,-0.0661,0.0268,0.0077,0.0236,0.0086,2.8395,1.3747,3.0328
2024-10-11T13:59:47.487Z,0.0151,-0.9742,0.1939,0.0360,-0.0661,0.0268,0.0112,0.0176,0.0102,2.8395,1.3747,3.0328
2024-10-11T13:59:47.497Z,0.0162,-0.9769,0.1957,0.0360,-0.0661,0.0268,0.0081,0.0167,0.0087,2.8395,1.3747,3.0328
2024-10-11T13:59:47.507Z,0.0170,-0.9761,0.1974,0.0499,-0.0389,-0.0298,0.0060,0.0163,0.0058,2.8379,1.3745,3.0347
2024-10-11T13:59:47.517Z,0.0180,-0.9780,0.1989,0.0499,-0.0389,-0.0298,0.0062,0.0159,0.0087,2.8379,1.3745,3.0347
2024-10-11T13:59:47.527Z,0.0168,-0.9798,0.2013,0.0499,-0.0389,-0.0298,0.0039,0.0160,0.0061,2.8379,1.3745,3.0347
2024-10-11T13:59:47.538Z,0.0221,-0.9814,0.2024,0.0080,-0.0027,-0.0774,0.0056,0.0152,0.0050,2.8367,1.3744,3.0361
2024-10-11T13:59:47.547Z,0.0191,-0.9817,0.2034,0.0080,-0.0027,-0.0774,0.0045,0.0142,0.0058,2.8367,1.3744,3.0361
2024-10-11T13:59:47.557Z,0.0179,-0.9859,0.2047,0.0080,-0.0027,-0.0774,0.0043,0.0152,0.0058,2.8367,1.3744,3.0361
2024-10-11T13:59:47.567Z,0.0195,-0.9878,0.2059,0.0059,0.0668,-0.1107,0.0052,0.0136,0.0040,2.8355,1.3743,3.0374
2024-10-11T13:59:47.577Z,0.0200,-0.9905,0.2076,0.0059,0.0668,-0.1107,0.0028,0.0140,0.0037,2.8355,1.3743,3.0374
2024-10-11T13:59:47.589Z,0.0197,-0.9908,0.2086,0.0096,0.0894,-0.1384,0.0024,0.0167,0.0022,2.8347,1.3742,3.0385
2024-10-11T13:59:47.597Z,0.0191,-0.9910,0.2095,0.0096,0.0894,-0.1384,0.0021,0.0138,0.0043,2.8347,1.3742,3.0385
2024-10-11T13:59:47.607Z,0.0205,-0.9903,0.2121,0.0096,0.0894,-0.1384,0.0014,0.0155,0.0023,2.8347,1.3742,3.0385
2024-10-11T13:59:47.617Z,0.0211,-0.9886,0.2136,0.0096,0.0894,-0.1384,0.0004,0.0138,0.0028,2.8347,1.3742,3.0385
2024-10-11T13:59:47.627Z,0.0239,-1.0002,0.2178,-0.0228,0.1309,-0.2130,-0.0041,0.0154,0.0025,2.8340,1.3741,3.0392
2024-10-11T13:59:47.637Z,0.0271,-1.0173,0.2118,-0.0228,0.1309,-0.2130,-0.0028,0.0126,0.0045,2.8340,1.3741,3.0392
2024-10-11T13:59:47.647Z,0.0253,-1.0259,0.2137,-0.0228,0.1309,-0.2130,-0.0064,0.0135,0.0047,2.8340,1.3741,3.0392
2024-10-11T13:59:47.657Z,0.0247,-1.0135,0.2170,-0.0453,0.3624,-0.1699,-0.0051,0.0089,0.0027,2.8333,1.3742,3.0400
2024-10-11T13:59:47.667Z,0.0229,-1.0093,0.2231,-0.0453,0.3624,-0.1699,-0.0105,0.0129,0.0042,2.8333,1.3742,3.0400
2024-10-11T13:59:47.677Z,0.0250,-1.0034,0.2197,-0.0453,0.3624,-0.1699,-0.0150,0.0088,0.0048,2.8333,1.3742,3.0400
2024-10-11T13:59:47.688Z,0.0200,-0.9997,0.2168,-0.0383,0.2105,-0.2231,-0.0189,0.0107,0.0048,2.8326,1.3745,3.0408
2024-10-11T13:59:47.697Z,0.0173,-0.9946,0.2195,-0.0383,0.2105,-0.2231,-0.0250,0.0098,0.0056,2.8326,1.3745,3.0408
2024-10-11T13:59:47.708Z,0.0206,-0.9917,0.2254,-0.0325,0.0691,-0.3206,-0.0287,0.0100,0.0058,2.8321,1.3753,3.0413
2024-10-11T13:59:47.717Z,0.0240,-0.9841,0.2251,-0.0325,0.0691,-0.3206,-0.0313,0.0083,0.0066,2.8321,1.3753,3.0413
2024-10-11T13:59:47.727Z,0.0228,-0.9801,0.2159,-0.0325,0.0691,-0.3206,-0.0364,0.0060,0.0057,2.8321,1.3753,3.0413
2024-10-11T13:59:47.740Z,0.0183,-0.9793,0.2057,-0.0035,-0.0190,-0.0927,-0.0368,0.0060,0.0032,2.8317,1.3763,3.0415
2024-10-11T13:59:47.747Z,0.0231,-0.9814,0.2031,-0.0035,-0.0190,-0.0927,-0.0381,0.0012,0.0037,2.8317,1.3763,3.0415
2024-10-11T13:59:47.757Z,0.0265,-0.9961,0.2012,-0.0035,-0.0190,-0.0927,-0.0365,-0.0005,0.0026,2.8317,1.3763,3.0415
2024-10-11T13:59:47.768Z,0.0275,-0.9957,0.1926,-0.0666,0.0574,-0.0675,-0.0395,-0.0048,0.0029,2.8314,1.3774,3.0415
2024-10-11T13:59:47.776Z,0.0241,-0.9788,0.1975,-0.0666,0.0574,-0.0675,-0.0400,-0.0082,0.0049,2.8314,1.3774,3.0415
2024-10-11T13:59:47.787Z,0.0269,-0.9608,0.2133,-0.0666,0.0574,-0.0675,-0.0442,-0.0094,0.0062,2.8314,1.3774,3.0415
2024-10-11T13:59:47.798Z,0.0272,-0.9678,0.2012,-0.0892,-0.1344,-0.0567,-0.0472,-0.0142,0.0064,2.8313,1.3786,3.0411
2024-10-11T13:59:47.807Z,0.0304,-0.9676,0.1917,-0.0892,-0.1344,-0.0567,-0.0447,-0.0113,0.0072,2.8313,1.3786,3.0411
2024-10-11T13:59:47.817Z,0.0312,-0.9642,0.1856,-0.0892,-0.1344,-0.0567,-0.0434,-0.0192,0.0048,2.8313,1.3786,3.0411
2024-10-11T13:59:47.828Z,0.0275,-0.9655,0.1804,-0.1238,-0.1350,0.0894,-0.0430,-0.0228,0.0069,2.8309,1.3799,3.0408
2024-10-11T13:59:47.838Z,0.0353,-0.9685,0.1791,-0.1238,-0.1350,0.0894,-0.0413,-0.0217,0.0094,2.8309,1.3799,3.0408
2024-10-11T13:59:47.847Z,0.0313,-0.9656,0.1799,-0.1238,-0.1350,0.0894,-0.0383,-0.0258,0.0095,2.8309,1.3799,3.0408
2024-10-11T13:59:47.856Z,0.0286,-0.9688,0.1765,-0.1238,-0.1350,0.0894,-0.0386,-0.0235,0.0074,2.8309,1.3799,3.0408
2024-10-11T13:59:47.866Z,0.0225,-0.9754,0.1874,-0.0550,-0.0904,0.0488,-0.0375,-0.0201,0.0068,2.8302,1.3811,3.0406
2024-10-11T13:59:47.877Z,0.0190,-0.9804,0.1986,-0.0550,-0.0904,0.0488,-0.0392,-0.0204,0.0030,2.8302,1.3811,3.0406
2024-10-11T13:59:47.889Z,0.0207,-0.9910,0.1847,-0.0172,0.0371,0.0564,-0.0336,-0.0225,0.0046,2.8299,1.3821,3.0399
2024-10-11T13:59:47.897Z,0.0214,-0.9822,0.1841,-0.0172,0.0371,0.0564,-0.0328,-0.0244,0.0045,2.8299,1.3821,3.0399
2024-10-11T13:59:47.907Z,0.0232,-0.9709,0.1840,-0.0172,0.0371,0.0564,-0.0301,-0.0199,0.0059,2.8299,1.3821,3.0399
2024-10-11T13:59:47.918Z,0.0266,-0.9693,0.1850,-0.0637,-0.1113,0.1439,-0.0264,-0.0206,0.0056,2.8295,1.3830,3.0394
2024-10-11T13:59:47.927Z,0.0244,-0.9693,0.1669,-0.0637,-0.1113,0.1439,-0.0251,-0.0187,0.0072,2.8295,1.3830,3.0394
2024-10-11T13:59:47.938Z,0.0215,-0.9641,0.1799,-0.0637,-0.1113,0.1439,-0.0218,-0.0156,0.0081,2.8295,1.3830,3.0394
2024-10-11T13:59:47.948Z,0.0167,-0.9597,0.1855,0.0547,-0.2043,0.0135,-0.0200,-0.0188,0.0044,2.8290,1.3836,3.0392
2024-10-11T13:59:47.957Z,0.0110,-0.9609,0.1793,0.0547,-0.2043,0.0135,-0.0170,-0.0155,0.0027,2.8290,1.3836,3.0392
2024-10-11T13:59:47.967Z,0.0105,-0.9577,0.1754,0.0547,-0.2043,0.0135,-0.0115,-0.0117,0.0022,2.8290,1.3836,3.0392
2024-10-11T13:59:47.978Z,0.0141,-0.9575,0.1700,0.0766,-0.2334,0.1564,-0.0090,-0.0114,0.0018,2.8287,1.3839,3.0388
2024-10-11T13:59:47.989Z,0.0091,-0.9582,0.1689,0.0766,-0.2334,0.1564,-0.0038,-0.0092,-0.0003,2.8287,1.3839,3.0388
2024-10-11T13:59:47.997Z,0.0103,-0.9569,0.1737,0.0766,-0.2334,0.1564,0.0001,-0.0077,0.0011,2.8287,1.3839,3.0388
2024-10-11T13:59:48.008Z,0.0114,-0.9579,0.1721,0.1244,-0.1972,0.1633,0.0005,-0.0044,-0.0045,2.8288,1.3839,3.0383
2024-10-11T13:59:48.017Z,0.0040,-0.9646,0.1681,0.1244,-0.1972,0.1633,0.0041,-0.0016,-0.0044,2.8288,1.3839,3.0383
2024-10-11T13:59:48.027Z,0.0079,-0.9650,0.1834,0.1244,-0.1972,0.1633,0.0049,0.0027,-0.0049,2.8288,1.3839,3.0383
2024-10-11T13:59:48.038Z,0.0109,-0.9628,0.1809,0.0526,-0.1624,0.0536,0.0042,0.0093,-0.0064,2.8293,1.3837,3.0378
2024-10-11T13:59:48.047Z,0.0159,-0.9715,0.1767,0.0526,-0.1624,0.0536,0.0071,0.0145,-0.0061,2.8293,1.3837,3.0378
2024-10-11T13:59:48.056Z,0.0161,-0.9809,0.1729,0.0526,-0.1624,0.0536,0.0140,0.0146,-0.0055,2.8293,1.3837,3.0378
2024-10-11T13:59:48.067Z,0.0126,-0.9889,0.1810,0.0638,0.0553,0.1127,0.0169,0.0196,-0.0064,2.8296,1.3833,3.0376
2024-10-11T13:59:48.077Z,0.0115,-0.9892,0.1744,0.0638,0.0553,0.1127,0.0183,0.0185,-0.0079,2.8296,1.3833,3.0376
2024-10-11T13:59:48.088Z,0.0073,-0.9878,0.1785,0.0638,0.0553,0.1127,0.0201,0.0237,-0.0068,2.8296,1.3833,3.0376
2024-10-11T13:59:48.097Z,0.0076,-0.9853,0.1883,0.0955,0.0119,-0.0257,0.0183,0.0249,-0.0113,2.8306,1.3827,3.0371
2024-10-11T13:59:48.106Z,0.0096,-0.9830,0.1930,0.0955,0.0119,-0.0257,0.0182,0.0270,-0.0120,2.8306,1.3827,3.0371
2024-10-11T13:59:48.117Z,0.0068,-0.9831,0.1980,0.0955,0.0119,-0.0257,0.0208,0.0259,-0.0133,2.8306,1.3827,3.0371
2024-10-11T13:59:48.127Z,0.0139,-0.9810,0.1954,0.0203,0.0106,-0.0644,0.0207,0.0279,-0.0129,2.8318,1.3821,3.0364
2024-10-11T13:59:48.138Z,0.0189,-0.9872,0.1895,0.0203,0.0106,-0.0644,0.0185,0.0287,-0.0085,2.8318,1.3821,3.0364
2024-10-11T13:59:48.147Z,0.0186,-0.9936,0.1944,0.0203,0.0106,-0.0644,0.0208,0.0280,-0.0107,2.8318,1.3821,3.0364
2024-10-11T13:59:48.158Z,0.0159,-0.9942,0.1939,0.0453,0.1235,-0.0886,0.0210,0.0294,-0.0117,2.8328,1.3815,3.0360
2024-10-11T13:59:48.167Z,0.0162,-0.9957,0.1948,0.0453,0.1235,-0.0886,0.0212,0.0287,-0.0093,2.8328,1.3815,3.0360
2024-10-11T13:59:48.177Z,0.0148,-0.9990,0.1959,0.0453,0.1235,-0.0886,0.0177,0.0275,-0.0119,2.8328,1.3815,3.0360
2024-10-11T13:59:48.190Z,0.0141,-0.9939,0.1945,0.0455,0.0353,-0.0656,0.0190,0.0265,-0.0113,2.8339,1.3809,3.0355
2024-10-11T13:59:48.196Z,0.0153,-0.9813,0.1941,0.0455,0.0353,-0.0656,0.0152,0.0266,-0.0111,2.8339,1.3809,3.0355
2024-10-11T13:59:48.207Z,0.0129,-0.9736,0.1974,0.0455,0.0353,-0.0656,0.0121,0.0262,-0.0124,2.8339,1.3809,3.0355
2024-10-11T13:59:48.217Z,0.0188,-0.9731,0.1985,-0.0085,-0.0575,-0.0841,0.0103,0.0219,-0.0135,2.8352,1.3804,3.0348
2024-10-11T13:59:48.227Z,0.0231,-0.9783,0.1945,-0.0085,-0.0575,-0.0841,0.0097,0.0209,-0.0153,2.8352,1.3804,3.0348
2024-10-11T13:59:48.238Z,0.0266,-0.9808,0.1948,-0.0085,-0.0575,-0.0841,0.0088,0.0215,-0.0078,2.8352,1.3804,3.0348
2024-10-11T13:59:48.247Z,0.0260,-0.9848,0.1905,-0.0528,0.0250,-0.0128,0.0092,0.0176,-0.0055,2.8361,1.3801,3.0342
2024-10-11T13:59:48.257Z,0.0253,-0.9848,0.1922,-0.0528,0.0250,-0.0128,0.0074,0.0165,-0.0068,2.8361,1.3801,3.0342
2024-10-11T13:59:48.266Z,0.0205,-0.9914,0.1881,-0.0528,0.0250,-0.0128,0.0050,0.0131,-0.0053,2.8361,1.3801,3.0342
2024-10-11T13:59:48.277Z,0.0158,-0.9995,0.1965,0.0715,0.1895,-0.0266,0.0079,0.0069,-0.0053,2.8366,1.3799,3.0338
2024-10-11T13:59:48.287Z,0.0133,-0.9997,0.1952,0.0715,0.1895,-0.0266,0.0068,0.0031,-0.0066,2.8366,1.3799,3.0338
2024-10-11T13:59:48.297Z,0.0159,-0.9995,0.1943,0.0715,0.1895,-0.0266,0.0037,-0.0022,-0.0083,2.8366,1.3799,3.0338
2024-10-11T13:59:48.307Z,0.0175,-0.9881,0.1969,-0.0082,0.0139,-0.0592,0.0049,-0.0021,-0.0074,2.8374,1.3797,3.0327
2024-10-11T13:59:48.317Z,0.0232,-0.9793,0.1935,-0.0082,0.0139,-0.0592,0.0013,-0.0049,-0.0049,2.8374,1.3797,3.0327
2024-10-11T13:59:48.327Z,0.0240,-0.9765,0.2007,-0.0082,0.0139,-0.0592,-0.0007,-0.0052,-0.0050,2.8374,1.3797,3.0327
2024-10-11T13:59:48.337Z,0.0168,-0.9811,0.1996,0.0266,0.0117,-0.0827,-0.0014,-0.0047,-0.0069,2.8381,1.3797,3.0316
2024-10-11T13:59:48.347Z,0.0191,-0.9830,0.1969,0.0266,0.0117,-0.0827,-0.0047,-0.0049,-0.0054,2.8381,1.3797,3.0316
2024-10-11T13:59:48.357Z,0.0184,-0.9807,0.2037,0.0266,0.0117,-0.0827,-0.0059,-0.0085,-0.0066,2.8381,1.3797,3.0316
2024-10-11T13:59:48.367Z,0.0162,-0.9791,0.2069,0.0432,-0.0291,-0.1439,-0.0086,-0.0078,-0.0063,2.8390,1.3798,3.0303
2024-10-11T13:59:48.377Z,0.0153,-0.9774,0.1996,0.0432,-0.0291,-0.1439,-0.0121,-0.0080,-0.0065,2.8390,1.3798,3.0303
2024-10-11T13:59:48.387Z,0.0190,-0.9716,0.1969,0.0432,-0.0291,-0.1439,-0.0092,-0.0117,-0.0041,2.8390,1.3798,3.0303
2024-10-11T13:59:48.398Z,0.0268,-0.9781,0.1899,-0.0674,0.0011,-0.0707,-0.0097,-0.0106,-0.0049,2.8397,1.3801,3.0290
2024-10-11T13:59:48.408Z,0.0280,-0.9840,0.1936,-0.0674,0.0011,-0.0707,-0.0109,-0.0088,-0.0047,2.8397,1.3801,3.0290
2024-10-11T13:59:48.418Z,0.0211,-0.9778,0.1899,-0.0674,0.0011,-0.0707,-0.0073,-0.0105,-0.0042,2.8397,1.3801,3.0290
2024-10-11T13:59:48.427Z,0.0240,-0.9747,0.1804,-0.0532,-0.1083,0.0234,-0.0072,-0.0112,-0.0048,2.8401,1.3802,3.0280
2024-10-11T13:59:48.437Z,0.0269,-0.9721,0.1923,-0.0532,-0.1083,0.0234,-0.0069,-0.0169,-0.0028,2.8401,1.3802,3.0280
2024-10-11T13:59:48.447Z,0.0226,-0.9765,0.1876,-0.0532,-0.1083,0.0234,-0.0054,-0.0116,-0.0006,2.8401,1.3802,3.0280
2024-10-11T13:59:48.457Z,0.0271,-0.9827,0.1906,-0.0891,0.0597,0.0223,-0.0024,-0.0112,-0.0013,2.8400,1.3803,3.0274
2024-10-11T13:59:48.466Z,0.0313,-0.9893,0.1869,-0.0891,0.0597,0.0223,-0.0019,-0.0107,0.0016,2.8400,1.3803,3.0274
2024-10-11T13:59:48.477Z,0.0291,-0.9915,0.1944,-0.0891,0.0597,0.0223,-0.0054,-0.0090,0.0034,2.8400,1.3803,3.0274
2024-10-11T13:59:48.487Z,0.0315,-0.9958,0.1951,-0.0994,0.1515,-0.0707,-0.0027,-0.0040,0.0047,2.8393,1.3803,3.0276
2024-10-11T13:59:48.497Z,0.0303,-0.9981,0.1963,-0.0994,0.1515,-0.0707,-0.0039,-0.0089,0.0072,2.8393,1.3803,3.0276
2024-10-11T13:59:48.506Z,0.0253,-0.9953,0.2044,-0.0994,0.1515,-0.0707,-0.0050,-0.0113,0.0090,2.8393,1.3803,3.0276
2024-10-11T13:59:48.517Z,0.0269,-1.0008,0.2090,-0.0655,0.1866,-0.2384,-0.0067,-0.0151,0.0074,2.8382,1.3806,3.0280
2024-10-11T13:59:48.527Z,0.0311,-1.0005,0.2181,-0.0655,0.1866,-0.2384,-0.0105,-0.0137,0.0069,2.8382,1.3806,3.0280
2024-10-11T13:59:48.537Z,0.0330,-0.9985,0.2175,-0.0655,0.1866,-0.2384,-0.0153,-0.0132,0.0098,2.8382,1.3806,3.0280
2024-10-11T13:59:48.547Z,0.0306,-0.9969,0.2141,-0.1021,0.1205,-0.2251,-0.0168,-0.0105,0.0122,2.8368,1.3810,3.0288
2024-10-11T13:59:48.556Z,0.0336,-0.9902,0.2133,-0.1021,0.1205,-0.2251,-0.0203,-0.0124,0.0125,2.8368,1.3810,3.0288
2024-10-11T13:59:48.566Z,0.0351,-0.9910,0.2248,-0.1021,0.1205,-0.2251,-0.0233,-0.0105,0.0124,2.8368,1.3810,3.0288
2024-10-11T13:59:48.577Z,0.0332,-0.9916,0.2228,-0.0846,0.1011,-0.3629,-0.0263,-0.0089,0.0138,2.8349,1.3817,3.0301
2024-10-11T13:59:48.587Z,0.0293,-0.9924,0.2239,-0.0846,0.1011,-0.3629,-0.0298,-0.0121,0.0149,2.8349,1.3817,3.0301
2024-10-11T13:59:48.597Z,0.0303,-0.9878,0.2272,-0.0846,0.1011,-0.3629,-0.0334,-0.0134,0.0147,2.8349,1.3817,3.0301
2024-10-11T13:59:48.607Z,0.0307,-0.9786,0.2202,-0.0886,-0.0945,-0.2452,-0.0378,-0.0062,0.0158,2.8329,1.3827,3.0314
2024-10-11T13:59:48.617Z,0.0282,-0.9691,0.2077,-0.0886,-0.0945,-0.2452,-0.0399,-0.0060,0.0186,2.8329,1.3827,3.0314
2024-10-11T13:59:48.627Z,0.0276,-0.9623,0.2065,-0.0886,-0.0945,-0.2452,-0.0418,-0.0128,0.0168,2.8329,1.3827,3.0314
2024-10-11T13:59:48.638Z,0.0203,-0.9612,0.2066,0.0424,-0.1588,-0.1063,-0.0370,-0.0131,0.0158,2.8309,1.3838,3.0328
2024-10-11T13:59:48.647Z,0.0168,-0.9689,0.1921,0.0424,-0.1588,-0.1063,-0.0364,-0.0124,0.0130,2.8309,1.3838,3.0328
2024-10-11T13:59:48.656Z,0.0243,-0.9721,0.1978,0.0424,-0.1588,-0.1063,-0.0315,-0.0153,0.0133,2.8309,1.3838,3.0328
2024-10-11T13:59:48.667Z,0.0259,-0.9762,0.1876,-0.0347,-0.0074,-0.0027,-0.0260,-0.0122,0.0112,2.8292,1.3847,3.0339
2024-10-11T13:59:48.677Z,0.0234,-0.9843,0.1803,-0.0347,-0.0074,-0.0027,-0.0266,-0.0079,0.0118,2.8292,1.3847,3.0339
2024-10-11T13:59:48.687Z,0.0221,-0.9789,0.1815,-0.0347,-0.0074,-0.0027,-0.0219,-0.0079,0.0079,2.8292,1.3847,3.0339
2024-10-11T13:59:48.697Z,0.0250,-0.9829,0.1723,-0.0534,0.0038,0.1199,-0.0194,-0.0111,0.0036,2.8284,1.3852,3.0340
2024-10-11T13:59:48.706Z,0.0260,-0.9846,0.1685,-0.0534,0.0038,0.1199,-0.0153,-0.0150,0.0018,2.8284,1.3852,3.0340
2024-10-11T13:59:48.717Z,0.0258,-0.9816,0.1666,-0.0534,0.0038,0.1199,-0.0101,-0.0258,0.0001,2.8284,1.3852,3.0340
2024-10-11T13:59:48.727Z,0.0304,-0.9724,0.1711,-0.1385,-0.1613,0.1458,-0.0095,-0.0399,-0.0027,2.8283,1.3853,3.0330
2024-10-11T13:59:48.737Z,0.0340,-0.9661,0.1687,-0.1385,-0.1613,0.1458,-0.0061,-0.0521,-0.0011,2.8283,1.3853,3.0330
2024-10-11T13:59:48.747Z,0.0363,-0.9682,0.1688,-0.1385,-0.1613,0.1458,-0.0077,-0.0583,-0.0001,2.8283,1.3853,3.0330
2024-10-11T13:59:48.757Z,0.0405,-0.9722,0.1708,-0.1854,-0.0475,0.1169,-0.0032,-0.0717,0.0018,2.8281,1.3854,3.0310
2024-10-11T13:59:48.767Z,0.0383,-0.9812,0.1697,-0.1854,-0.0475,0.1169,-0.0015,-0.0791,0.0014,2.8281,1.3854,3.0310
2024-10-11T13:59:48.777Z,0.0402,-0.9848,0.1666,-0.1854,-0.0475,0.1169,0.0006,-0.0848,0.0018,2.8281,1.3854,3.0310
2024-10-11T13:59:48.787Z,0.0410,-0.9847,0.1677,-0.1877,0.0202,0.2179,0.0078,-0.0918,0.0041,2.8265,1.3852,3.0298
2024-10-11T13:59:48.797Z,0.0383,-0.9865,0.1599,-0.1877,0.0202,0.2179,0.0119,-0.0955,0.0027,2.8265,1.3852,3.0298
2024-10-11T13:59:48.807Z,0.0352,-0.9897,0.1572,-0.1877,0.0202,0.2179,0.0157,-0.0981,0.0046,2.8265,1.3852,3.0298
2024-10-11T13:59:48.817Z,0.0367,-0.9869,0.1582,-0.1643,0.0436,0.2972,0.0182,-0.0957,0.0059,2.8241,1.3846,3.0292
2024-10-11T13:59:48.827Z,0.0354,-0.9854,0.1554,-0.1643,0.0436,0.2972,0.0227,-0.0927,0.0040,2.8241,1.3846,3.0292
2024-10-11T13:59:48.837Z,0.0308,-0.9885,0.1531,-0.1643,0.0436,0.2972,0.0219,-0.0924,0.0020,2.8241,1.3846,3.0292
2024-10-11T13:59:48.847Z,0.0238,-0.9875,0.1570,-0.0264,0.0493,0.2723,0.0272,-0.0910,0.0036,2.8220,1.3837,3.0282
2024-10-11T13:59:48.856Z,0.0252,-0.9900,0.1513,-0.0264,0.0493,0.2723,0.0286,-0.0919,0.0000,2.8220,1.3837,3.0282
2024-10-11T13:59:48.867Z,0.0265,-1.0003,0.1480,-0.0264,0.0493,0.2723,0.0335,-0.0968,0.0007,2.8220,1.3837,3.0282
2024-10-11T13:59:48.877Z,0.0317,-1.0057,0.1468,-0.1056,0.2532,0.3394,0.0321,-0.0953,-0.0009,2.8202,1.3827,3.0269
2024-10-11T13:59:48.887Z,0.0305,-1.0086,0.1539,-0.1056,0.2532,0.3394,0.0364,-0.0937,0.0007,2.8202,1.3827,3.0269
2024-10-11T13:59:48.897Z,0.0299,-1.0089,0.1532,-0.1056,0.2532,0.3394,0.0338,-0.0907,0.0016,2.8202,1.3827,3.0269
2024-10-11T13:59:48.907Z,0.0328,-1.0062,0.1633,-0.0887,0.2652,0.1790,0.0330,-0.0884,0.0012,2.8184,1.3816,3.0257
2024-10-11T13:59:48.917Z,0.0305,-1.0107,0.1704,-0.0887,0.2652,0.1790,0.0308,-0.0865,0.0037,2.8184,1.3816,3.0257
2024-10-11T13:59:48.927Z,0.0271,-1.0165,0.1734,-0.0887,0.2652,0.1790,0.0308,-0.0901,0.0025,2.8184,1.3816,3.0257
2024-10-11T13:59:48.937Z,0.0176,-1.0161,0.1752,0.0319,0.3026,0.0694,0.0309,-0.0929,-0.0013,2.8170,1.3806,3.0241
2024-10-11T13:59:48.947Z,0.0206,-1.0112,0.1833,0.0319,0.3026,0.0694,0.0270,-0.0958,0.0014,2.8170,1.3806,3.0241
2024-10-11T13:59:48.957Z,0.0199,-1.0044,0.1971,0.0319,0.3026,0.0694,0.0233,-0.0937,-0.0017,2.8170,1.3806,3.0241
2024-10-11T13:59:48.967Z,0.0153,-1.0041,0.1914,0.0363,0.1794,-0.0709,0.0229,-0.0940,-0.0023,2.8161,1.3798,3.0218
2024-10-11T13:59:48.977Z,0.0202,-0.9998,0.2005,0.0363,0.1794,-0.0709,0.0166,-0.0942,-0.0011,2.8161,1.3798,3.0218
2024-10-11T13:59:48.987Z,0.0213,-1.0025,0.1933,0.0363,0.1794,-0.0709,0.0129,-0.0946,-0.0025,2.8161,1.3798,3.0218
2024-10-11T13:59:48.996Z,0.0266,-1.0012,0.2012,-0.0313,0.1498,-0.1331,0.0111,-0.0959,-0.0023,2.8157,1.3794,3.0191
2024-10-11T13:59:49.007Z,0.0239,-0.9949,0.2028,-0.0313,0.1498,-0.1331,0.0073,-0.1000,-0.0019,2.8157,1.3794,3.0191
2024-10-11T13:59:49.017Z,0.0223,-0.9915,0.2007,-0.0313,0.1498,-0.1331,0.0024,-0.0992,-0.0032,2.8157,1.3794,3.0191
2024-10-11T13:59:49.027Z,0.0237,-0.9858,0.1953,-0.0108,0.0207,-0.1078,0.0003,-0.1026,-0.0021,2.8159,1.3793,3.0157
2024-10-11T13:59:49.037Z,0.0256,-0.9837,0.2040,-0.0108,0.0207,-0.1078,-0.0041,-0.1060,-0.0028,2.8159,1.3793,3.0157
2024-10-11T13:59:49.047Z,0.0295,-0.9841,0.2028,-0.0108,0.0207,-0.1078,-0.0093,-0.1062,-0.0035,2.8159,1.3793,3.0157
2024-10-11T13:59:49.058Z,0.0263,-0.9910,0.1957,0.0002,0.1290,-0.0505,-0.0131,-0.1055,-0.0017,2.8159,1.3795,3.0122
2024-10-11T13:59:49.067Z,0.0271,-0.9952,0.1959,0.0002,0.1290,-0.0505,-0.0140,-0.1087,0.0000,2.8159,1.3795,3.0122
2024-10-11T13:59:49.078Z,0.0348,-0.9941,0.2008,0.0002,0.1290,-0.0505,-0.0180,-0.1081,-0.0024,2.8159,1.3795,3.0122
2024-10-11T13:59:49.087Z,0.0377,-0.9999,0.1921,-0.1055,0.2050,0.0690,-0.0187,-0.1084,0.0010,2.8158,1.3800,3.0088
2024-10-11T13:59:49.097Z,0.0353,-1.0035,0.1800,-0.1055,0.2050,0.0690,-0.0211,-0.1059,0.0015,2.8158,1.3800,3.0088
2024-10-11T13:59:49.107Z,0.0345,-1.0088,0.1860,-0.1055,0.2050,0.0690,-0.0220,-0.1024,0.0035,2.8158,1.3800,3.0088
2024-10-11T13:59:49.117Z,0.0339,-1.0105,0.1853,-0.0456,0.2766,-0.0184,-0.0254,-0.1026,0.0038,2.8154,1.3807,3.0059
2024-10-11T13:59:49.127Z,0.0276,-1.0094,0.1874,-0.0456,0.2766,-0.0184,-0.0273,-0.1016,0.0036,2.8154,1.3807,3.0059
2024-10-11T13:59:49.137Z,0.0232,-1.0068,0.1854,-0.0456,0.2766,-0.0184,-0.0304,-0.1017,0.0006,2.8154,1.3807,3.0059
2024-10-11T13:59:49.147Z,0.0249,-1.0079,0.1918,0.0259,0.2464,-0.0789,-0.0320,-0.0962,0.0041,2.8150,1.3815,3.0030
2024-10-11T13:59:49.157Z,0.0232,-1.0070,0.1968,0.0259,0.2464,-0.0789,-0.0341,-0.1001,0.0059,2.8150,1.3815,3.0030
2024-10-11T13:59:49.167Z,0.0226,-1.0072,0.2014,0.0259,0.2464,-0.0789,-0.0378,-0.0977,0.0046,2.8150,1.3815,3.0030
2024-10-11T13:59:49.177Z,0.0207,-1.0143,0.1938,0.0608,0.3712,-0.0287,-0.0373,-0.0914,0.0082,2.8145,1.3826,3.0004
2024-10-11T13:59:49.187Z,0.0218,-1.0215,0.1887,0.0608,0.3712,-0.0287,-0.0432,-0.0867,0.0083,2.8145,1.3826,3.0004
2024-10-11T13:59:49.197Z,0.0276,-1.0111,0.1961,0.0608,0.3712,-0.0287,-0.0476,-0.0827,0.0058,2.8145,1.3826,3.0004
2024-10-11T13:59:49.207Z,0.0242,-0.9989,0.1954,0.0387,0.1525,-0.0060,-0.0478,-0.0798,0.0095,2.8141,1.3840,2.9982
2024-10-11T13:59:49.217Z,0.0227,-0.9972,0.1815,0.0387,0.1525,-0.0060,-0.0532,-0.0706,0.0071,2.8141,1.3840,2.9982
2024-10-11T13:59:49.227Z,0.0201,-0.9890,0.1900,0.0387,0.1525,-0.0060,-0.0545,-0.0692,0.0065,2.8141,1.3840,2.9982
2024-10-11T13:59:49.237Z,0.0176,-0.9796,0.1855,0.0738,-0.0781,0.0341,-0.0575,-0.0668,0.0059,2.8140,1.3857,2.9960
2024-10-11T13:59:49.247Z,0.0210,-0.9720,0.1759,0.0738,-0.0781,0.0341,-0.0570,-0.0617,0.0067,2.8140,1.3857,2.9960
2024-10-11T13:59:49.257Z,0.0176,-0.9658,0.1727,0.0738,-0.0781,0.0341,-0.0615,-0.0531,0.0070,2.8140,1.3857,2.9960
2024-10-11T13:59:49.267Z,0.0151,-0.9622,0.1759,0.0869,-0.1987,0.0246,-0.0646,-0.0472,0.0044,2.8141,1.3875,2.9940
2024-10-11T13:59:49.277Z,0.0197,-0.9641,0.1779,0.0869,-0.1987,0.0246,-0.0654,-0.0430,0.0086,2.8141,1.3875,2.9940
2024-10-11T13:59:49.287Z,0.0213,-0.9692,0.1733,0.0869,-0.1987,0.0246,-0.0632,-0.0409,0.0034,2.8141,1.3875,2.9940
2024-10-11T13:59:49.297Z,0.0259,-0.9712,0.1694,-0.0470,-0.1426,0.1515,-0.0618,-0.0350,0.0063,2.8142,1.3893,2.9925
2024-10-11T13:59:49.307Z,0.0328,-0.9683,0.1593,-0.0470,-0.1426,0.1515,-0.0619,-0.0319,0.0095,2.8142,1.3893,2.9925
2024-10-11T13:59:49.317Z,0.0311,-0.9632,0.1581,-0.0470,-0.1426,0.1515,-0.0629,-0.0275,0.0107,2.8142,1.3893,2.9925
2024-10-11T13:59:49.327Z,0.0339,-0.9544,0.1530,-0.0460,-0.2791,0.2555,-0.0568,-0.0280,0.0142,2.8133,1.3912,2.9922
2024-10-11T13:59:49.337Z,0.0296,-0.9572,0.1457,-0.0460,-0.2791,0.2555,-0.0579,-0.0268,0.0133,2.8133,1.3912,2.9922
2024-10-11T13:59:49.347Z,0.0218,-0.9550,0.1469,-0.0460,-0.2791,0.2555,-0.0553,-0.0235,0.0134,2.8133,1.3912,2.9922
2024-10-11T13:59:49.356Z,0.0179,-0.9502,0.1435,0.0753,-0.3550,0.3690,-0.0562,-0.0195,0.0137,2.8123,1.3929,2.9923
2024-10-11T13:59:49.367Z,0.0189,-0.9465,0.1397,0.0753,-0.3550,0.3690,-0.0537,-0.0161,0.0108,2.8123,1.3929,2.9923
2024-10-11T13:59:49.377Z,0.0215,-0.9410,0.1415,0.0753,-0.3550,0.3690,-0.0535,-0.0127,0.0118,2.8123,1.3929,2.9923
2024-10-11T13:59:49.387Z,0.0237,-0.9402,0.1481,0.0042,-0.4111,0.2487,-0.0558,-0.0102,0.0119,2.8113,1.3945,2.9927
2024-10-11T13:59:49.397Z,0.0262,-0.9447,0.1489,0.0042,-0.4111,0.2487,-0.0535,-0.0076,0.0109,2.8113,1.3945,2.9927
2024-10-11T13:59:49.407Z,0.0268,-0.9506,0.1491,0.0042,-0.4111,0.2487,-0.0553,-0.0050,0.0134,2.8113,1.3945,2.9927
2024-10-11T13:59:49.417Z,0.0242,-0.9532,0.1516,0.0368,-0.3454,0.1881,-0.0535,0.0001,0.0111,2.8099,1.3961,2.9937
2024-10-11T13:59:49.426Z,0.0200,-0.9471,0.1517,0.0368,-0.3454,0.1881,-0.0538,0.0020,0.0130,2.8099,1.3961,2.9937
2024-10-11T13:59:49.437Z,0.0181,-0.9488,0.1482,0.0368,-0.3454,0.1881,-0.0526,0.0015,0.0137,2.8099,1.3961,2.9937
2024-10-11T13:59:49.447Z,0.0263,-0.9478,0.1515,-0.0333,-0.3640,0.1712,-0.0509,0.0010,0.0128,2.8083,1.3977,2.9951
2024-10-11T13:59:49.457Z,0.0287,-0.9486,0.1537,-0.0333,-0.3640,0.1712,-0.0524,-0.0015,0.0122,2.8083,1.3977,2.9951
2024-10-11T13:59:49.467Z,0.0241,-0.9500,0.1461,-0.0333,-0.3640,0.1712,-0.0554,0.0011,0.0131,2.8083,1.3977,2.9951
2024-10-11T13:59:49.476Z,0.0202,-0.9491,0.1520,0.0675,-0.3769,0.2403,-0.0516,0.0047,0.0097,2.8068,1.3993,2.9965
2024-10-11T13:59:49.487Z,0.0167,-0.9479,0.1392,0.0675,-0.3769,0.2403,-0.0544,0.0038,0.0081,2.8068,1.3993,2.9965
2024-10-11T13:59:49.497Z,0.0110,-0.9518,0.1426,0.0675,-0.3769,0.2403,-0.0543,0.0051,0.0075,2.8068,1.3993,2.9965
2024-10-11T13:59:49.508Z,0.0073,-0.9554,0.1308,0.1643,-0.2086,0.3963,-0.0485,0.0083,0.0018,2.8063,1.4007,2.9969
2024-10-11T13:59:49.517Z,0.0098,-0.9688,0.1235,0.1643,-0.2086,0.3963,-0.0473,0.0147,-0.0019,2.8063,1.4007,2.9969
2024-10-11T13:59:49.527Z,0.0108,-0.9725,0.1220,0.1643,-0.2086,0.3963,-0.0393,0.0134,-0.0031,2.8063,1.4007,2.9969
2024-10-11T13:59:49.537Z,0.0050,-0.9754,0.1231,0.2379,-0.1041,0.4058,-0.0373,0.0106,-0.0068,2.8075,1.4019,2.9957
2024-10-11T13:59:49.547Z,-0.0010,-0.9730,0.1240,0.2379,-0.1041,0.4058,-0.0342,0.0097,-0.0138,2.8075,1.4019,2.9957
2024-10-11T13:59:49.557Z,-0.0023,-0.9761,0.1182,0.2379,-0.1041,0.4058,-0.0287,0.0128,-0.0174,2.8075,1.4019,2.9957
2024-10-11T13:59:49.567Z,-0.0047,-0.9784,0.1185,0.2722,-0.0633,0.4374,-0.0256,0.0141,-0.0207,2.8108,1.4027,2.9927
2024-10-11T13:59:49.577Z,-0.0019,-0.9810,0.1186,0.2722,-0.0633,0.4374,-0.0211,0.0172,-0.0239,2.8108,1.4027,2.9927
2024-10-11T13:59:49.587Z,0.0001,-0.9780,0.1175,0.2722,-0.0633,0.4374,-0.0145,0.0186,-0.0248,2.8108,1.4027,2.9927
2024-10-11T13:59:49.597Z,0.0046,-0.9753,0.1146,0.1769,-0.1146,0.4083,-0.0073,0.0194,-0.0303,2.8155,1.4030,2.9883
2024-10-11T13:59:49.607Z,0.0094,-0.9748,0.1265,0.1769,-0.1146,0.4083,-0.0069,0.0179,-0.0287,2.8155,1.4030,2.9883
2024-10-11T13:59:49.617Z,0.0168,-0.9718,0.1251,0.1769,-0.1146,0.4083,0.0013,0.0214,-0.0295,2.8155,1.4030,2.9883
2024-10-11T13:59:49.626Z,0.0193,-0.9734,0.1288,0.0447,-0.1429,0.3440,0.0039,0.0217,-0.0338,2.8204,1.4029,2.9837
2024-10-11T13:59:49.637Z,0.0226,-0.9720,0.1337,0.0447,-0.1429,0.3440,0.0085,0.0234,-0.0327,2.8204,1.4029,2.9837
2024-10-11T13:59:49.647Z,0.0299,-0.9704,0.1328,0.0447,-0.1429,0.3440,0.0121,0.0211,-0.0307,2.8204,1.4029,2.9837
2024-10-11T13:59:49.657Z,0.0324,-0.9709,0.1347,-0.0823,-0.1431,0.3325,0.0136,0.0264,-0.0317,2.8251,1.4025,2.9795
2024-10-11T13:59:49.667Z,0.0381,-0.9722,0.1314,-0.0823,-0.1431,0.3325,0.0219,0.0298,-0.0304,2.8251,1.4025,2.9795
2024-10-11T13:59:49.676Z,0.0428,-0.9811,0.1324,-0.0823,-0.1431,0.3325,0.0248,0.0316,-0.0302,2.8251,1.4025,2.9795
2024-10-11T13:59:49.687Z,0.0423,-0.9920,0.1328,-0.1381,0.1128,0.2760,0.0307,0.0339,-0.0284,2.8292,1.4017,2.9762
2024-10-11T13:59:49.697Z,0.0421,-1.0002,0.1413,-0.1381,0.1128,0.2760,0.0344,0.0337,-0.0268,2.8292,1.4017,2.9762
2024-10-11T13:59:49.708Z,0.0416,-1.0147,0.1388,-0.1381,0.1128,0.2760,0.0391,0.0382,-0.0279,2.8292,1.4017,2.9762
2024-10-11T13:59:49.717Z,0.0443,-1.0216,0.1357,-0.1953,0.3512,0.3313,0.0438,0.0383,-0.0256,2.8322,1.4004,2.9741
2024-10-11T13:59:49.727Z,0.0493,-1.0186,0.1360,-0.1953,0.3512,0.3313,0.0490,0.0416,-0.0217,2.8322,1.4004,2.9741
2024-10-11T13:59:49.737Z,0.0528,-1.0145,0.1435,-0.1953,0.3512,0.3313,0.0510,0.0399,-0.0179,2.8322,1.4004,2.9741
2024-10-11T13:59:49.747Z,0.0554,-1.0170,0.1496,-0.2761,0.3543,0.1380,0.0558,0.0404,-0.0179,2.8338,1.3988,2.9734
2024-10-11T13:59:49.757Z,0.0577,-1.0225,0.1560,-0.2761,0.3543,0.1380,0.0580,0.0351,-0.0116,2.8338,1.3988,2.9734
2024-10-11T13:59:49.766Z,0.0545,-1.0203,0.1716,-0.2761,0.3543,0.1380,0.0579,0.0323,-0.0095,2.8338,1.3988,2.9734
2024-10-11T13:59:49.777Z,0.0508,-1.0183,0.1760,-0.2036,0.3199,-0.1032,0.0537,0.0305,-0.0035,2.8330,1.3971,2.9749
2024-10-11T13:59:49.788Z,0.0487,-1.0156,0.1806,-0.2036,0.3199,-0.1032,0.0488,0.0204,0.0004,2.8330,1.3971,2.9749
2024-10-11T13:59:49.798Z,0.0425,-1.0108,0.1895,-0.2036,0.3199,-0.1032,0.0427,0.0156,0.0024,2.8330,1.3971,2.9749
2024-10-11T13:59:49.807Z,0.0390,-1.0087,0.1960,-0.1730,0.2243,-0.3030,0.0427,0.0156,0.0024,2.8312,1.3958,2.9771
2024-10-11T13:59:49.817Z,0.0497,-1.0064,0.2088,-0.1730,0.2243,-0.3030,0.0363,0.0116,0.0033,2.8312,1.3958,2.9771
2024-10-11T13:59:49.826Z,0.0479,-1.0032,0.2173,-0.1730,0.2243,-0.3030,0.0314,0.0096,0.0108,2.8312,1.3958,2.9771
2024-10-11T13:59:49.837Z,0.0396,-1.0045,0.2131,-0.0789,0.1397,-0.4214,0.0238,0.0083,0.0106,2.8283,1.3949,2.9799
2024-10-11T13:59:49.848Z,0.0368,-0.9957,0.2206,-0.0789,0.1397,-0.4214,0.0075,0.0001,0.0139,2.8283,1.3949,2.9799
2024-10-11T13:59:49.857Z,0.0437,-0.9867,0.2306,-0.0789,0.1397,-0.4214,0.0075,0.0001,0.0139,2.8283,1.3949,2.9799
2024-10-11T13:59:49.868Z,0.0406,-0.9892,0.2300,-0.0601,0.1011,-0.4766,-0.0027,-0.0037,0.0145,2.8255,1.3947,2.9824
2024-10-11T13:59:49.877Z,0.0296,-0.9959,0.2152,-0.0601,0.1011,-0.4766,-0.0027,-0.0037,0.0145,2.8255,1.3947,2.9824
2024-10-11T13:59:49.887Z,0.0279,-0.9923,0.2110,-0.0601,0.1011,-0.4766,-0.0110,-0.0119,0.0167,2.8255,1.3947,2.9824
2024-10-11T13:59:49.897Z,0.0344,-0.9892,0.2078,-0.0724,0.0495,-0.2733,-0.0144,-0.0142,0.0175,2.8228,1.3949,2.9846
2024-10-11T13:59:49.907Z,0.0327,-0.9914,0.1985,-0.0724,0.0495,-0.2733,-0.0144,-0.0142,0.0175,2.8228,1.3949,2.9846
2024-10-11T13:59:49.917Z,0.0316,-0.9972,0.1867,-0.0724,0.0495,-0.2733,-0.0206,-0.0076,0.0245,2.8228,1.3949,2.9846
2024-10-11T13:59:49.928Z,0.0394,-1.0016,0.1854,-0.1668,0.2067,-0.0425,-0.0279,-0.0020,0.0262,2.8195,1.3955,2.9874
2024-10-11T13:59:49.938Z,0.0439,-1.0072,0.1718,-0.1668,0.2067,-0.0425,-0.0314,0.0021,0.0290,2.8195,1.3955,2.9874
2024-10-11T13:59:49.948Z,0.0424,-1.0039,0.1727,-0.1668,0.2067,-0.0425,-0.0335,-0.0025,0.0301,2.8195,1.3955,2.9874
2024-10-11T13:59:49.958Z,0.0395,-0.9998,0.1702,-0.1307,0.1123,0.0395,-0.0335,-0.0025,0.0301,2.8153,1.3965,2.9912
2024-10-11T13:59:49.968Z,0.0403,-0.9947,0.1665,-0.1307,0.1123,0.0395,-0.0402,-0.0062,0.0322,2.8153,1.3965,2.9912
2024-10-11T13:59:49.978Z,0.0363,-0.9866,0.1733,-0.1307,0.1123,0.0395,-0.0501,-0.0018,0.0292,2.8153,1.3965,2.9912
2024-10-11T13:59:49.987Z,0.0297,-0.9787,0.1748,-0.0137,-0.0948,-0.0386,-0.0520,-0.0048,0.0282,2.8109,1.3978,2.9951
2024-10-11T13:59:49.998Z,0.0259,-0.9745,0.1725,-0.0137,-0.0948,-0.0386,-0.0550,-0.0077,0.0287,2.8109,1.3978,2.9951
2024-10-11T13:59:50.007Z,0.0268,-0.9662,0.1677,-0.0137,-0.0948,-0.0386,-0.0550,-0.0077,0.0287,2.8109,1.3978,2.9951
2024-10-11T13:59:50.017Z,0.0285,-0.9524,0.1781,-0.0560,-0.3536,-0.0450,-0.0644,-0.0142,0.0280,2.8074,1.3996,2.9980
2024-10-11T13:59:50.028Z,0.0296,-0.9488,0.1698,-0.0560,-0.3536,-0.0450,-0.0690,-0.0178,0.0274,2.8074,1.3996,2.9980
2024-10-11T13:59:50.037Z,0.0309,-0.9472,0.1664,-0.0560,-0.3536,-0.0450,-0.0691,-0.0189,0.0288,2.8074,1.3996,2.9980
2024-10-11T13:59:50.047Z,0.0375,-0.9424,0.1729,-0.1583,-0.4312,-0.1128,-0.0694,-0.0302,0.0290,2.8041,1.4016,3.0004
2024-10-11T13:59:50.058Z,0.0393,-0.9410,0.1767,-0.1583,-0.4312,-0.1128,-0.0694,-0.0302,0.0290,2.8041,1.4016,3.0004
2024-10-11T13:59:50.067Z,0.0317,-0.9321,0.1749,-0.1583,-0.4312,-0.1128,-0.0653,-0.0348,0.0302,2.8041,1.4016,3.0004
2024-10-11T13:59:50.076Z,0.0262,-0.9260,0.1770,-0.0394,-0.5785,-0.0631,-0.0653,-0.0348,0.0302,2.7998,1.4037,3.0034
2024-10-11T13:59:50.087Z,0.0265,-0.9335,0.1651,-0.0394,-0.5785,-0.0631,-0.0568,-0.0334,0.0302,2.7998,1.4037,3.0034
2024-10-11T13:59:50.097Z,0.0265,-0.9335,0.1651,-0.0394,-0.5785,-0.0631,-0.0516,-0.0343,0.0284,2.7998,1.4037,3.0034
2024-10-11T13:59:50.108Z,0.0219,-0.9371,0.1659,0.0039,-0.4676,-0.0200,-0.0495,-0.0305,0.0263,2.7955,1.4054,3.0064
2024-10-11T13:59:50.117Z,0.0212,-0.9404,0.1633,0.0039,-0.4676,-0.0200,-0.0404,-0.0260,0.0252,2.7955,1.4054,3.0064
2024-10-11T13:59:50.127Z,0.0199,-0.9494,0.1552,0.0039,-0.4676,-0.0200,-0.0312,-0.0252,0.0244,2.7955,1.4054,3.0064
2024-10-11T13:59:50.137Z,0.0184,-0.9548,0.1506,0.0252,-0.2706,0.1111,-0.0285,-0.0200,0.0251,2.7915,1.4066,3.0092
2024-10-11T13:59:50.146Z,0.0202,-0.9610,0.1472,0.0252,-0.2706,0.1111,-0.0285,-0.0200,0.0251,2.7915,1.4066,3.0092
2024-10-11T13:59:50.158Z,0.0246,-0.9628,0.1437,0.0252,-0.2706,0.1111,-0.0213,-0.0207,0.0249,2.7915,1.4066,3.0092
2024-10-11T13:59:50.167Z,0.0278,-0.9655,0.1449,-0.0800,-0.2054,0.1436,-0.0148,-0.0229,0.0318,2.7868,1.4074,3.0130
2024-10-11T13:59:50.177Z,0.0287,-0.9656,0.1478,-0.0800,-0.2054,0.1436,-0.0130,-0.0216,0.0302,2.7868,1.4074,3.0130
2024-10-11T13:59:50.187Z,0.0162,-0.9624,0.1433,-0.0800,-0.2054,0.1436,-0.0091,-0.0217,0.0321,2.7868,1.4074,3.0130
2024-10-11T13:59:50.197Z,0.0162,-0.9624,0.1433,0.0683,-0.2448,0.1843,-0.0070,-0.0223,0.0292,2.7812,1.4078,3.0177
2024-10-11T13:59:50.208Z,0.0119,-0.9636,0.1446,0.0683,-0.2448,0.1843,-0.0020,-0.0187,0.0287,2.7812,1.4078,3.0177
2024-10-11T13:59:50.217Z,0.0115,-0.9693,0.1416,0.0683,-0.2448,0.1843,0.0039,-0.0149,0.0302,2.7812,1.4078,3.0177
2024-10-11T13:59:50.227Z,0.0111,-0.9705,0.1443,0.0718,-0.1356,0.1490,0.0053,-0.0073,0.0267,2.7757,1.4079,3.0224
2024-10-11T13:59:50.237Z,0.0130,-0.9742,0.1458,0.0718,-0.1356,0.1490,0.0142,0.0053,0.0264,2.7757,1.4079,3.0224
2024-10-11T13:59:50.248Z,0.0109,-0.9790,0.1387,0.0718,-0.1356,0.1490,0.0189,0.0073,0.0251,2.7757,1.4079,3.0224
2024-10-11T13:59:50.259Z,0.0043,-0.9806,0.1345,0.1400,-0.0413,0.1479,0.0278,0.0083,0.0239,2.7708,1.4076,3.0271
2024-10-11T13:59:50.267Z,0.0053,-0.9826,0.1532,0.1400,-0.0413,0.1479,0.0351,0.0135,0.0210,2.7708,1.4076,3.0271
2024-10-11T13:59:50.278Z,0.0052,-0.9835,0.1489,0.1400,-0.0413,0.1479,0.0457,0.0195,0.0173,2.7708,1.4076,3.0271
2024-10-11T13:59:50.287Z,-0.0053,-0.9914,0.1535,0.1788,0.1131,0.0540,0.0559,0.0110,0.0177,2.7659,1.4065,3.0321
2024-10-11T13:59:50.297Z,0.0055,-0.9996,0.1599,0.1788,0.1131,0.0540,0.0650,0.0177,0.0114,2.7659,1.4065,3.0321
2024-10-11T13:59:50.308Z,0.0095,-1.0055,0.1601,0.1788,0.1131,0.0540,0.0772,0.0166,0.0103,2.7659,1.4065,3.0321
2024-10-11T13:59:50.317Z,-0.0047,-1.0083,0.1699,0.1806,0.2551,-0.1227,0.0833,0.0085,0.0073,2.7619,1.4045,3.0361
2024-10-11T13:59:50.327Z,0.0059,-1.0132,0.1774,0.1806,0.2551,-0.1227,0.0896,0.0041,0.0011,2.7619,1.4045,3.0361
2024-10-11T13:59:50.337Z,0.0039,-1.0263,0.1735,0.1806,0.2551,-0.1227,0.0933,0.0089,-0.0015,2.7619,1.4045,3.0361
2024-10-11T13:59:50.347Z,0.0035,-1.0259,0.1779,0.1557,0.3951,-0.0787,0.0931,0.0050,-0.0081,2.7598,1.4018,3.0381
2024-10-11T13:59:50.358Z,0.0035,-1.0259,0.1779,0.1557,0.3951,-0.0787,0.0955,0.0048,-0.0084,2.7598,1.4018,3.0381
2024-10-11T13:59:50.367Z,0.0071,-1.0254,0.1802,0.1557,0.3951,-0.0787,0.0893,0.0067,-0.0135,2.7598,1.4018,3.0381
2024-10-11T13:59:50.377Z,0.0081,-1.0221,0.1850,0.1225,0.3315,-0.2092,0.0823,0.0062,-0.0163,2.7598,1.3990,3.0379
2024-10-11T13:59:50.388Z,0.0036,-1.0161,0.2075,0.1225,0.3315,-0.2092,0.0759,0.0048,-0.0196,2.7598,1.3990,3.0379
2024-10-11T13:59:50.397Z,0.0036,-1.0161,0.2075,0.1225,0.3315,-0.2092,0.0705,0.0019,-0.0232,2.7598,1.3990,3.0379
2024-10-11T13:59:50.408Z,0.0068,-1.0203,0.1971,0.1067,0.3570,-0.2114,0.0642,0.0017,-0.0220,2.7615,1.3967,3.0362
2024-10-11T13:59:50.417Z,0.0054,-1.0141,0.1994,0.1067,0.3570,-0.2114,0.0576,0.0030,-0.0221,2.7615,1.3967,3.0362
2024-10-11T13:59:50.427Z,0.0054,-1.0141,0.1994,0.1067,0.3570,-0.2114,0.0537,0.0032,-0.0246,2.7615,1.3967,3.0362
2024-10-11T13:59:50.438Z,0.0042,-1.0116,0.2067,0.1365,0.2573,-0.3078,0.0479,0.0078,-0.0237,2.7637,1.3948,3.0339
2024-10-11T13:59:50.447Z,0.0042,-1.0116,0.2067,0.1365,0.2573,-0.3078,0.0426,0.0080,-0.0249,2.7637,1.3948,3.0339
2024-10-11T13:59:50.458Z,0.0016,-1.0109,0.2001,0.1365,0.2573,-0.3078,0.0414,0.0140,-0.0266,2.7637,1.3948,3.0339
2024-10-11T13:59:50.467Z,0.0103,-1.0023,0.2046,0.1271,0.2143,-0.2729,0.0345,0.0172,-0.0257,2.7665,1.3934,3.0311
2024-10-11T13:59:50.478Z,0.0173,-0.9917,0.2048,0.1271,0.2143,-0.2729,0.0344,0.0194,-0.0239,2.7665,1.3934,3.0311
2024-10-11T13:59:50.487Z,0.0215,-0.9808,0.2034,0.1271,0.2143,-0.2729,0.0269,0.0215,-0.0267,2.7665,1.3934,3.0311
2024-10-11T13:59:50.497Z,0.0234,-0.9791,0.2055,-0.0198,-0.0453,-0.2767,0.0232,0.0270,-0.0208,2.7696,1.3923,3.0285
2024-10-11T13:59:50.508Z,0.0278,-0.9762,0.2171,-0.0198,-0.0453,-0.2767,0.0196,0.0336,-0.0200,2.7696,1.3923,3.0285
2024-10-11T13:59:50.517Z,0.0308,-0.9799,0.2089,-0.0198,-0.0453,-0.2767,0.0177,0.0400,-0.0171,2.7696,1.3923,3.0285
2024-10-11T13:59:50.527Z,0.0300,-0.9811,0.2100,-0.1081,-0.0246,-0.3164,0.0131,0.0418,-0.0160,2.7720,1.3917,3.0268
2024-10-11T13:59:50.538Z,0.0257,-0.9769,0.2140,-0.1081,-0.0246,-0.3164,0.0084,0.0439,-0.0120,2.7720,1.3917,3.0268
2024-10-11T13:59:50.548Z,0.0275,-0.9830,0.2123,-0.1081,-0.0246,-0.3164,0.0018,0.0486,-0.0085,2.7720,1.3917,3.0268
2024-10-11T13:59:50.559Z,0.0297,-0.9854,0.2088,-0.0867,0.0082,-0.2969,0.0002,0.0500,-0.0048,2.7736,1.3914,3.0263
2024-10-11T13:59:50.567Z,0.0297,-0.9854,0.2088,-0.0867,0.0082,-0.2969,-0.0047,0.0517,-0.0063,2.7736,1.3914,3.0263
2024-10-11T13:59:50.577Z,0.0316,-0.9887,0.2031,-0.0867,0.0082,-0.2969,-0.0060,0.0571,-0.0020,2.7736,1.3914,3.0263
2024-10-11T13:59:50.587Z,0.0331,-0.9920,0.2015,-0.1126,0.0793,-0.2427,-0.0129,0.0603,0.0034,2.7742,1.3915,3.0271
2024-10-11T13:59:50.597Z,0.0324,-0.9906,0.2027,-0.1126,0.0793,-0.2427,-0.0210,0.0602,0.0024,2.7742,1.3915,3.0271
2024-10-11T13:59:50.607Z,0.0237,-0.9943,0.2048,-0.1126,0.0793,-0.2427,-0.0247,0.0704,0.0011,2.7742,1.3915,3.0271
2024-10-11T13:59:50.617Z,0.0225,-1.0004,0.2076,-0.0047,0.1297,-0.2922,-0.0288,0.0650,0.0028,2.7741,1.3920,3.0289
2024-10-11T13:59:50.628Z,0.0268,-1.0057,0.2110,-0.0047,0.1297,-0.2922,-0.0327,0.0623,0.0040,2.7741,1.3920,3.0289
2024-10-11T13:59:50.637Z,0.0234,-1.0051,0.2122,-0.0047,0.1297,-0.2922,-0.0364,0.0568,0.0042,2.7741,1.3920,3.0289
2024-10-11T13:59:50.647Z,0.0235,-1.0073,0.2073,-0.0419,0.2253,-0.2986,-0.0414,0.0578,0.0050,2.7738,1.3930,3.0308
2024-10-11T13:59:50.657Z,0.0249,-1.0073,0.2123,-0.0419,0.2253,-0.2986,-0.0468,0.0611,0.0052,2.7738,1.3930,3.0308
2024-10-11T13:59:50.667Z,0.0268,-1.0068,0.2220,-0.0419,0.2253,-0.2986,-0.0485,0.0560,0.0057,2.7738,1.3930,3.0308
2024-10-11T13:59:50.677Z,0.0205,-1.0108,0.2227,-0.0426,0.2521,-0.4855,-0.0597,0.0574,0.0024,2.7734,1.3944,3.0327
2024-10-11T13:59:50.687Z,0.0153,-1.0056,0.2327,-0.0426,0.2521,-0.4855,-0.0635,0.0486,-0.0000,2.7734,1.3944,3.0327
2024-10-11T13:59:50.697Z,0.0131,-1.0040,0.2268,-0.0426,0.2521,-0.4855,-0.0647,0.0409,-0.0013,2.7734,1.3944,3.0327
2024-10-11T13:59:50.707Z,0.0111,-1.0028,0.2282,0.0705,0.1728,-0.5520,-0.0728,0.0404,-0.0012,2.7739,1.3963,3.0334
2024-10-11T13:59:50.717Z,0.0165,-0.9992,0.2213,0.0705,0.1728,-0.5520,-0.0773,0.0367,-0.0001,2.7739,1.3963,3.0334
2024-10-11T13:59:50.727Z,0.0187,-0.9963,0.2186,0.0705,0.1728,-0.5520,-0.0807,0.0352,-0.0013,2.7739,1.3963,3.0334
2024-10-11T13:59:50.737Z,0.0202,-0.9975,0.2108,-0.0226,0.1110,-0.4217,-0.0838,0.0312,-0.0053,2.7755,1.3986,3.0328
2024-10-11T13:59:50.747Z,0.0217,-1.0005,0.2012,-0.0226,0.1110,-0.4217,-0.0860,0.0281,-0.0032,2.7755,1.3986,3.0328
2024-10-11T13:59:50.757Z,0.0229,-0.9975,0.1966,-0.0226,0.1110,-0.4217,-0.0897,0.0251,-0.0033,2.7755,1.3986,3.0328
2024-10-11T13:59:50.767Z,0.0240,-0.9977,0.1878,-0.0411,0.1165,-0.2360,-0.0908,0.0166,-0.0053,2.7777,1.4011,3.0311
2024-10-11T13:59:50.777Z,0.0240,-0.9977,0.1878,-0.0411,0.1165,-0.2360,-0.0908,0.0166,-0.0053,2.7777,1.4011,3.0311
2024-10-11T13:59:50.787Z,0.0223,-0.9979,0.1792,-0.0411,0.1165,-0.2360,-0.0902,-0.0008,-0.0097,2.7777,1.4011,3.0311
2024-10-11T13:59:50.797Z,0.0195,-0.9964,0.1759,-0.0173,0.0990,-0.1292,-0.0893,-0.0020,-0.0113,2.7807,1.4037,3.0281
2024-10-11T13:59:50.807Z,0.0186,-0.9964,0.1687,-0.0173,0.0990,-0.1292,-0.0902,-0.0064,-0.0158,2.7807,1.4037,3.0281
2024-10-11T13:59:50.817Z,0.0155,-0.9946,0.1623,-0.0173,0.0990,-0.1292,-0.0925,-0.0085,-0.0179,2.7807,1.4037,3.0281
2024-10-11T13:59:50.827Z,0.0155,-0.9946,0.1623,0.0228,0.0597,0.0735,-0.0909,-0.0107,-0.0231,2.7851,1.4063,3.0233
2024-10-11T13:59:50.837Z,0.0198,-0.9834,0.1532,0.0228,0.0597,0.0735,-0.0894,-0.0171,-0.0227,2.7851,1.4063,3.0233
2024-10-11T13:59:50.847Z,0.0223,-0.9802,0.1514,0.0228,0.0597,0.0735,-0.0863,-0.0249,-0.0226,2.7851,1.4063,3.0233
2024-10-11T13:59:50.857Z,0.0230,-0.9828,0.1440,-0.0149,-0.0487,0.1169,-0.0831,-0.0268,-0.0256,2.7908,1.4088,3.0168
2024-10-11T13:59:50.867Z,0.0264,-0.9813,0.1361,-0.0149,-0.0487,0.1169,-0.0782,-0.0309,-0.0255,2.7908,1.4088,3.0168
2024-10-11T13:59:50.877Z,0.0264,-0.9813,0.1361,-0.0149,-0.0487,0.1169,-0.0767,-0.0278,-0.0242,2.7908,1.4088,3.0168
2024-10-11T13:59:50.887Z,0.0374,-0.9685,0.1303,-0.1436,-0.1512,0.2534,-0.0716,-0.0310,-0.0236,2.7967,1.4109,3.0098
2024-10-11T13:59:50.897Z,0.0345,-0.9625,0.1278,-0.1436,-0.1512,0.2534,-0.0673,-0.0332,-0.0247,2.7967,1.4109,3.0098
2024-10-11T13:59:50.906Z,0.0313,-0.9565,0.1297,-0.1436,-0.1512,0.2534,-0.0612,-0.0367,-0.0237,2.7967,1.4109,3.0098
2024-10-11T13:59:50.916Z,0.0321,-0.9530,0.1326,-0.0837,-0.3313,0.2412,-0.0561,-0.0406,-0.0217,2.8023,1.4127,3.0029
2024-10-11T13:59:50.927Z,0.0321,-0.9530,0.1326,-0.0837,-0.3313,0.2412,-0.0480,-0.0419,-0.0215,2.8023,1.4127,3.0029
2024-10-11T13:59:50.937Z,0.0294,-0.9639,0.1276,-0.0837,-0.3313,0.2412,-0.0443,-0.0430,-0.0216,2.8023,1.4127,3.0029
2024-10-11T13:59:50.947Z,0.0235,-0.9642,0.1142,-0.0248,-0.2288,0.3418,-0.0379,-0.0397,-0.0220,2.8073,1.4141,2.9966
2024-10-11T13:59:50.957Z,0.0238,-0.9603,0.1140,-0.0248,-0.2288,0.3418,-0.0309,-0.0396,-0.0226,2.8073,1.4141,2.9966
2024-10-11T13:59:50.967Z,0.0291,-0.9625,0.1141,-0.0248,-0.2288,0.3418,-0.0245,-0.0384,-0.0252,2.8073,1.4141,2.9966
2024-10-11T13:59:50.978Z,0.0321,-0.9678,0.1114,-0.0816,-0.2098,0.4083,-0.0128,-0.0428,-0.0224,2.8119,1.4147,2.9905
2024-10-11T13:59:50.987Z,0.0327,-0.9743,0.1057,-0.0816,-0.2098,0.4083,-0.0025,-0.0406,-0.0233,2.8119,1.4147,2.9905
2024-10-11T13:59:50.997Z,0.0358,-0.9755,0.1063,-0.0816,-0.2098,0.4083,-0.0014,-0.0406,-0.0208,2.8119,1.4147,2.9905
2024-10-11T13:59:51.007Z,0.0335,-0.9743,0.1156,-0.1138,-0.1176,0.3984,0.0080,-0.0441,-0.0223,2.8160,1.4147,2.9850
2024-10-11T13:59:51.017Z,0.0341,-0.9736,0.1176,-0.1138,-0.1176,0.3984,0.0109,-0.0420,-0.0225,2.8160,1.4147,2.9850
2024-10-11T13:59:51.027Z,0.0417,-0.9748,0.1182,-0.1138,-0.1176,0.3984,0.0139,-0.0417,-0.0177,2.8160,1.4147,2.9850
2024-10-11T13:59:51.037Z,0.0435,-0.9804,0.1182,-0.1746,-0.0973,0.3500,0.0217,-0.0411,-0.0183,2.8192,1.4142,2.9804
2024-10-11T13:59:51.047Z,0.0452,-0.9842,0.1191,-0.1746,-0.0973,0.3500,0.0296,-0.0426,-0.0149,2.8192,1.4142,2.9804
2024-10-11T13:59:51.058Z,0.0459,-0.9895,0.1159,-0.1746,-0.0973,0.3500,0.0356,-0.0415,-0.0182,2.8192,1.4142,2.9804
2024-10-11T13:59:51.067Z,0.0394,-0.9871,0.1212,-0.1658,-0.0002,0.3454,0.0383,-0.0421,-0.0145,2.8209,1.4132,2.9773
2024-10-11T13:59:51.077Z,0.0394,-0.9871,0.1212,-0.1658,-0.0002,0.3454,0.0441,-0.0460,-0.0115,2.8209,1.4132,2.9773
2024-10-11T13:59:51.087Z,0.0342,-0.9840,0.1381,-0.1658,-0.0002,0.3454,0.0457,-0.0462,-0.0127,2.8209,1.4132,2.9773
2024-10-11T13:59:51.097Z,0.0299,-0.9858,0.1407,-0.0455,-0.0262,0.1534,0.0454,-0.0472,-0.0171,2.8218,1.4119,2.9747
2024-10-11T13:59:51.107Z,0.0261,-0.9882,0.1389,-0.0455,-0.0262,0.1534,0.0507,-0.0464,-0.0177,2.8218,1.4119,2.9747
2024-10-11T13:59:51.117Z,0.0228,-0.9880,0.1419,-0.0455,-0.0262,0.1534,0.0520,-0.0528,-0.0177,2.8218,1.4119,2.9747
2024-10-11T13:59:51.127Z,0.0228,-0.9880,0.1419,0.0269,0.0004,0.1203,0.0548,-0.0540,-0.0212,2.8229,1.4103,2.9718
2024-10-11T13:59:51.137Z,0.0221,-0.9880,0.1527,0.0269,0.0004,0.1203,0.0558,-0.0575,-0.0213,2.8229,1.4103,2.9718
2024-10-11T13:59:51.147Z,0.0180,-0.9939,0.1499,0.0269,0.0004,0.1203,0.0577,-0.0580,-0.0220,2.8229,1.4103,2.9718
2024-10-11T13:59:51.157Z,0.0239,-0.9963,0.1513,0.0659,0.0780,0.0969,0.0578,-0.0584,-0.0236,2.8247,1.4085,2.9681
2024-10-11T13:59:51.167Z,0.0346,-0.9969,0.1598,0.0659,0.0780,0.0969,0.0575,-0.0568,-0.0245,2.8247,1.4085,2.9681
2024-10-11T13:59:51.177Z,0.0300,-0.9959,0.1621,0.0659,0.0780,0.0969,0.0575,-0.0541,-0.0217,2.8247,1.4085,2.9681
2024-10-11T13:59:51.187Z,0.0239,-1.0000,0.1735,0.0428,0.1026,-0.0643,0.0549,-0.0529,-0.0210,2.8266,1.4066,2.9642
2024-10-11T13:59:51.197Z,0.0280,-1.0040,0.1827,0.0428,0.1026,-0.0643,0.0504,-0.0492,-0.0218,2.8266,1.4066,2.9642
2024-10-11T13:59:51.207Z,0.0311,-1.0098,0.1933,0.0428,0.1026,-0.0643,0.0487,-0.0487,-0.0214,2.8266,1.4066,2.9642
2024-10-11T13:59:51.217Z,0.0342,-1.0125,0.1965,-0.0425,0.2483,-0.3257,0.0467,-0.0403,-0.0204,2.8283,1.4050,2.9609
2024-10-11T13:59:51.227Z,0.0323,-1.0199,0.1994,-0.0425,0.2483,-0.3257,0.0376,-0.0295,-0.0183,2.8283,1.4050,2.9609
2024-10-11T13:59:51.237Z,0.0398,-1.0256,0.2088,-0.0425,0.2483,-0.3257,0.0299,-0.0210,-0.0190,2.8283,1.4050,2.9609
2024-10-11T13:59:51.247Z,0.0487,-1.0295,0.2155,-0.1557,0.4125,-0.4852,0.0251,-0.0206,-0.0160,2.8302,1.4038,2.9579
2024-10-11T13:59:51.257Z,0.0455,-1.0311,0.2201,-0.1557,0.4125,-0.4852,0.0173,-0.0171,-0.0138,2.8302,1.4038,2.9579
2024-10-11T13:59:51.267Z,0.0387,-1.0333,0.2150,-0.1557,0.4125,-0.4852,0.0096,-0.0170,-0.0122,2.8302,1.4038,2.9579
2024-10-11T13:59:51.278Z,0.0390,-1.0376,0.2099,-0.0553,0.5090,-0.4700,0.0028,-0.0141,-0.0124,2.8318,1.4033,2.9555
2024-10-11T13:59:51.287Z,0.0482,-1.0357,0.2070,-0.0553,0.5090,-0.4700,-0.0035,-0.0142,-0.0085,2.8318,1.4033,2.9555
2024-10-11T13:59:51.297Z,0.0503,-1.0354,0.2085,-0.0553,0.5090,-0.4700,-0.0137,-0.0063,-0.0055,2.8318,1.4033,2.9555
2024-10-11T13:59:51.307Z,0.0493,-1.0330,0.2016,-0.1765,0.4756,-0.3917,-0.0219,0.0026,-0.0023,2.8330,1.4034,2.9539
2024-10-11T13:59:51.317Z,0.0539,-1.0324,0.2017,-0.1765,0.4756,-0.3917,-0.0275,0.0102,-0.0001,2.8330,1.4034,2.9539
2024-10-11T13:59:51.328Z,0.0559,-1.0271,0.1907,-0.1765,0.4756,-0.3917,-0.0355,0.0160,0.0066,2.8330,1.4034,2.9539
2024-10-11T13:59:51.337Z,0.0537,-1.0251,0.1789,-0.2436,0.3884,-0.2099,-0.0398,0.0198,0.0073,2.8334,1.4042,2.9535
2024-10-11T13:59:51.347Z,0.0505,-1.0221,0.1719,-0.2436,0.3884,-0.2099,-0.0448,0.0200,0.0075,2.8334,1.4042,2.9535
2024-10-11T13:59:51.357Z,0.0492,-1.0211,0.1651,-0.2436,0.3884,-0.2099,-0.0484,0.0258,0.0118,2.8334,1.4042,2.9535
2024-10-11T13:59:51.367Z,0.0507,-1.0168,0.1562,-0.1833,0.3220,0.0135,-0.0473,0.0246,0.0131,2.8331,1.4055,2.9543
2024-10-11T13:59:51.378Z,0.0480,-1.0083,0.1480,-0.1833,0.3220,0.0135,-0.0507,0.0300,0.0138,2.8331,1.4055,2.9543
2024-10-11T13:59:51.387Z,0.0450,-1.0006,0.1397,-0.1833,0.3220,0.0135,-0.0481,0.0336,0.0157,2.8331,1.4055,2.9543
2024-10-11T13:59:51.397Z,0.0442,-0.9953,0.1286,-0.1439,0.0881,0.2713,-0.0468,0.0304,0.0174,2.8317,1.4070,2.9562
2024-10-11T13:59:51.407Z,0.0366,-0.9893,0.1276,-0.1439,0.0881,0.2713,-0.0470,0.0326,0.0164,2.8317,1.4070,2.9562
2024-10-11T13:59:51.417Z,0.0318,-0.9846,0.1274,-0.1439,0.0881,0.2713,-0.0458,0.0377,0.0161,2.8317,1.4070,2.9562
2024-10-11T13:59:51.428Z,0.0311,-0.9846,0.1270,-0.0115,-0.0262,0.2961,-0.0450,0.0388,0.0192,2.8301,1.4084,2.9586
2024-10-11T13:59:51.437Z,0.0309,-0.9831,0.1183,-0.0115,-0.0262,0.2961,-0.0434,0.0479,0.0143,2.8301,1.4084,2.9586
2024-10-11T13:59:51.447Z,0.0305,-0.9882,0.1108,-0.0115,-0.0262,0.2961,-0.0410,0.0566,0.0145,2.8301,1.4084,2.9586
2024-10-11T13:59:51.457Z,0.0281,-0.9949,0.1076,-0.0113,0.0459,0.4794,-0.0408,0.0634,0.0123,2.8287,1.4098,2.9611
2024-10-11T13:59:51.467Z,0.0243,-1.0022,0.1062,-0.0113,0.0459,0.4794,-0.0382,0.0724,0.0096,2.8287,1.4098,2.9611
2024-10-11T13:59:51.478Z,0.0204,-1.0019,0.1144,-0.0113,0.0459,0.4794,-0.0389,0.0632,0.0062,2.8287,1.4098,2.9611
2024-10-11T13:59:51.487Z,0.0145,-1.0000,0.1150,0.1318,0.1308,0.4045,-0.0352,0.0616,0.0060,2.8281,1.4109,2.9632
2024-10-11T13:59:51.497Z,0.0231,-1.0014,0.1096,0.1318,0.1308,0.4045,-0.0351,0.0569,0.0022,2.8281,1.4109,2.9632
2024-10-11T13:59:51.507Z,0.0225,-1.0023,0.1096,0.1318,0.1308,0.4045,-0.0288,0.0493,0.0032,2.8281,1.4109,2.9632
2024-10-11T13:59:51.517Z,0.0243,-1.0019,0.1084,0.0418,0.1427,0.4580,-0.0278,0.0440,0.0008,2.8281,1.4119,2.9646
2024-10-11T13:59:51.527Z,0.0259,-1.0017,0.1028,0.0418,0.1427,0.4580,-0.0247,0.0407,0.0027,2.8281,1.4119,2.9646
2024-10-11T13:59:51.537Z,0.0231,-0.9980,0.1101,0.0418,0.1427,0.4580,-0.0226,0.0408,0.0009,2.8281,1.4119,2.9646
2024-10-11T13:59:51.547Z,0.0204,-0.9930,0.1103,0.0696,0.0643,0.4560,-0.0217,0.0381,0.0001,2.8285,1.4126,2.9652
2024-10-11T13:59:51.557Z,0.0206,-0.9908,0.1073,0.0696,0.0643,0.4560,-0.0181,0.0328,-0.0014,2.8285,1.4126,2.9652
2024-10-11T13:59:51.567Z,0.0251,-0.9887,0.1072,0.0696,0.0643,0.4560,-0.0145,0.0319,-0.0069,2.8285,1.4126,2.9652
2024-10-11T13:59:51.577Z,0.0292,-0.9850,0.1086,0.0015,0.0031,0.4769,-0.0106,0.0305,-0.0067,2.8293,1.4130,2.9651
2024-10-11T13:59:51.587Z,0.0282,-0.9773,0.1177,0.0015,0.0031,0.4769,-0.0121,0.0241,-0.0053,2.8293,1.4130,2.9651
2024-10-11T13:59:51.596Z,0.0214,-0.9655,0.1226,0.0015,0.0031,0.4769,-0.0105,0.0246,-0.0065,2.8293,1.4130,2.9651
2024-10-11T13:59:51.607Z,0.0211,-0.9510,0.1263,0.0748,-0.3165,0.2797,-0.0127,0.0159,-0.0134,2.8309,1.4134,2.9640
2024-10-11T13:59:51.617Z,0.0214,-0.9478,0.1305,0.0748,-0.3165,0.2797,-0.0172,0.0125,-0.0151,2.8309,1.4134,2.9640
2024-10-11T13:59:51.627Z,0.0198,-0.9449,0.1275,0.0748,-0.3165,0.2797,-0.0147,0.0085,-0.0119,2.8309,1.4134,2.9640
2024-10-11T13:59:51.637Z,0.0207,-0.9366,0.1278,0.0776,-0.4662,0.2261,-0.0170,0.0011,-0.0160,2.8334,1.4139,2.9616
2024-10-11T13:59:51.646Z,0.0252,-0.9303,0.1271,0.0776,-0.4662,0.2261,-0.0168,-0.0070,-0.0133,2.8334,1.4139,2.9616
2024-10-11T13:59:51.657Z,0.0272,-0.9284,0.1221,0.0776,-0.4662,0.2261,-0.0165,-0.0093,-0.0128,2.8334,1.4139,2.9616
2024-10-11T13:59:51.666Z,0.0265,-0.9283,0.1249,0.0229,-0.5938,0.2738,-0.0182,-0.0116,-0.0082,2.8362,1.4144,2.9584
2024-10-11T13:59:51.677Z,0.0330,-0.9266,0.1235,0.0229,-0.5938,0.2738,-0.0182,-0.0167,-0.0081,2.8362,1.4144,2.9584
2024-10-11T13:59:51.687Z,0.0374,-0.9376,0.1070,0.0229,-0.5938,0.2738,-0.0151,-0.0122,-0.0075,2.8362,1.4144,2.9584
2024-10-11T13:59:51.697Z,0.0420,-0.9428,0.0971,-0.1115,-0.4560,0.5201,-0.0122,-0.0098,-0.0034,2.8380,1.4148,2.9560
2024-10-11T13:59:51.707Z,0.0435,-0.9471,0.0924,-0.1115,-0.4560,0.5201,-0.0069,-0.0057,-0.0046,2.8380,1.4148,2.9560
2024-10-11T13:59:51.718Z,0.0466,-0.9504,0.0796,-0.1115,-0.4560,0.5201,0.0023,-0.0078,-0.0020,2.8380,1.4148,2.9560
2024-10-11T13:59:51.727Z,0.0497,-0.9527,0.0760,-0.2001,-0.3468,0.7513,0.0096,-0.0062,0.0023,2.8383,1.4149,2.9553
2024-10-11T13:59:51.737Z,0.0509,-0.9535,0.0725,-0.2001,-0.3468,0.7513,0.0127,-0.0030,0.0046,2.8383,1.4149,2.9553
2024-10-11T13:59:51.746Z,0.0512,-0.9539,0.0759,-0.2001,-0.3468,0.7513,0.0183,-0.0002,0.0059,2.8383,1.4149,2.9553
2024-10-11T13:59:51.757Z,0.0469,-0.9487,0.0734,-0.1970,-0.3550,0.7975,0.0255,0.0015,0.0084,2.8367,1.4145,2.9566
2024-10-11T13:59:51.767Z,0.0462,-0.9440,0.0788,-0.1970,-0.3550,0.7975,0.0286,-0.0047,0.0103,2.8367,1.4145,2.9566
2024-10-11T13:59:51.777Z,0.0419,-0.9381,0.0960,-0.1970,-0.3550,0.7975,0.0305,-0.0087,0.0122,2.8367,1.4145,2.9566
2024-10-11T13:59:51.787Z,0.0437,-0.9377,0.1058,-0.1311,-0.4814,0.5196,0.0324,-0.0131,0.0146,2.8336,1.4138,2.9593
2024-10-11T13:59:51.796Z,0.0490,-0.9350,0.1154,-0.1311,-0.4814,0.5196,0.0287,-0.0144,0.0145,2.8336,1.4138,2.9593
2024-10-11T13:59:51.807Z,0.0502,-0.9325,0.1229,-0.1311,-0.4814,0.5196,0.0296,-0.0204,0.0188,2.8336,1.4138,2.9593
2024-10-11T13:59:51.817Z,0.0456,-0.9359,0.1277,-0.1873,-0.5185,0.2930,0.0299,-0.0285,0.0186,2.8296,1.4131,2.9624
2024-10-11T13:59:51.827Z,0.0432,-0.9338,0.1357,-0.1873,-0.5185,0.2930,0.0268,-0.0397,0.0180,2.8296,1.4131,2.9624
2024-10-11T13:59:51.837Z,0.0432,-0.9344,0.1400,-0.1873,-0.5185,0.2930,0.0272,-0.0443,0.0183,2.8296,1.4131,2.9624
2024-10-11T13:59:51.847Z,0.0475,-0.9376,0.1396,-0.1726,-0.5044,0.1808,0.0215,-0.0487,0.0246,2.8252,1.4125,2.9653
2024-10-11T13:59:51.857Z,0.0600,-0.9402,0.1474,-0.1726,-0.5044,0.1808,0.0216,-0.0580,0.0271,2.8252,1.4125,2.9653
2024-10-11T13:59:51.867Z,0.0691,-0.9451,0.1491,-0.1726,-0.5044,0.1808,0.0163,-0.0661,0.0335,2.8252,1.4125,2.9653
2024-10-11T13:59:51.877Z,0.0635,-0.9504,0.1546,-0.3797,-0.3861,0.0221,0.0130,-0.0715,0.0376,2.8192,1.4122,2.9692
2024-10-11T13:59:51.887Z,0.0598,-0.9582,0.1595,-0.3797,-0.3861,0.0221,0.0063,-0.0810,0.0428,2.8192,1.4122,2.9692
2024-10-11T13:59:51.897Z,0.0581,-0.9598,0.1596,-0.3797,-0.3861,0.0221,0.0003,-0.0870,0.0422,2.8192,1.4122,2.9692
2024-10-11T13:59:51.906Z,0.0525,-0.9607,0.1647,-0.2754,-0.2689,-0.0911,-0.0031,-0.0887,0.0422,2.8113,1.4122,2.9743
2024-10-11T13:59:51.917Z,0.0452,-0.9654,0.1592,-0.2754,-0.2689,-0.0911,-0.0103,-0.0899,0.0428,2.8113,1.4122,2.9743
2024-10-11T13:59:51.928Z,0.0379,-0.9658,0.1562,-0.2754,-0.2689,-0.0911,-0.0138,-0.0960,0.0389,2.8113,1.4122,2.9743
2024-10-11T13:59:51.937Z,0.0350,-0.9703,0.1590,-0.1039,-0.1839,-0.0335,-0.0202,-0.0971,0.0365,2.8036,1.4127,2.9788
2024-10-11T13:59:51.946Z,0.0354,-0.9674,0.1633,-0.1039,-0.1839,-0.0335,-0.0247,-0.1019,0.0356,2.8036,1.4127,2.9788
2024-10-11T13:59:51.957Z,0.0381,-0.9607,0.1692,-0.1039,-0.1839,-0.0335,-0.0315,-0.1090,0.0359,2.8036,1.4127,2.9788
2024-10-11T13:59:51.967Z,0.0430,-0.9594,0.1706,-0.1582,-0.2715,-0.1856,-0.0390,-0.1093,0.0342,2.7977,1.4137,2.9814
2024-10-11T13:59:51.977Z,0.0485,-0.9545,0.1791,-0.1582,-0.2715,-0.1856,-0.0490,-0.1099,0.0365,2.7977,1.4137,2.9814
2024-10-11T13:59:51.987Z,0.0517,-0.9549,0.1824,-0.1582,-0.2715,-0.1856,-0.0516,-0.1166,0.0396,2.7977,1.4137,2.9814
2024-10-11T13:59:51.996Z,0.0450,-0.9574,0.1902,-0.2346,-0.3101,-0.3217,-0.0631,-0.1197,0.0406,2.7919,1.4152,2.9834
2024-10-11T13:59:52.006Z,0.0375,-0.9540,0.1983,-0.2346,-0.3101,-0.3217,-0.0675,-0.1225,0.0435,2.7919,1.4152,2.9834
2024-10-11T13:59:52.017Z,0.0347,-0.9571,0.1998,-0.2346,-0.3101,-0.3217,-0.0736,-0.1184,0.0427,2.7919,1.4152,2.9834
2024-10-11T13:59:52.027Z,0.0379,-0.9569,0.1936,-0.1202,-0.3174,-0.4248,-0.0749,-0.1209,0.0420,2.7852,1.4174,2.9861
2024-10-11T13:59:52.037Z,0.0365,-0.9742,0.1851,-0.1202,-0.3174,-0.4248,-0.0734,-0.1172,0.0447,2.7852,1.4174,2.9861
2024-10-11T13:59:52.047Z,0.0324,-0.9935,0.1797,-0.1202,-0.3174,-0.4248,-0.0768,-0.1145,0.0406,2.7852,1.4174,2.9861
2024-10-11T13:59:52.057Z,0.0294,-1.0127,0.1720,-0.0747,0.1710,-0.2563,-0.0779,-0.1103,0.0386,2.7789,1.4198,2.9885
2024-10-11T13:59:52.067Z,0.0268,-1.0306,0.1580,-0.0747,0.1710,-0.2563,-0.0758,-0.1118,0.0361,2.7789,1.4198,2.9885
2024-10-11T13:59:52.077Z,0.0276,-1.0448,0.1534,-0.0747,0.1710,-0.2563,-0.0728,-0.1106,0.0362,2.7789,1.4198,2.9885
2024-10-11T13:59:52.087Z,0.0195,-1.0625,0.1510,-0.0082,0.6569,-0.0367,-0.0679,-0.1098,0.0286,2.7740,1.4222,2.9898
2024-10-11T13:59:52.097Z,0.0184,-1.0767,0.1508,-0.0082,0.6569,-0.0367,-0.0668,-0.1107,0.0267,2.7740,1.4222,2.9898
2024-10-11T13:59:52.106Z,0.0324,-1.0853,0.1535,-0.0082,0.6569,-0.0367,-0.0629,-0.1089,0.0244,2.7740,1.4222,2.9898
2024-10-11T13:59:52.117Z,0.0309,-1.0913,0.1578,-0.1099,0.9906,-0.1095,-0.0641,-0.0982,0.0209,2.7707,1.4242,2.9895
2024-10-11T13:59:52.127Z,0.0264,-1.0873,0.1654,-0.1099,0.9906,-0.1095,-0.0632,-0.0993,0.0196,2.7707,1.4242,2.9895
2024-10-11T13:59:52.138Z,0.0336,-1.0789,0.1645,-0.1083,0.8732,-0.2531,-0.0632,-0.1043,0.0155,2.7686,1.4262,2.9882
2024-10-11T13:59:52.147Z,0.0305,-1.0783,0.1698,-0.1083,0.8732,-0.2531,-0.0650,-0.1043,0.0164,2.7686,1.4262,2.9882
2024-10-11T13:59:52.157Z,0.0316,-1.0747,0.1802,-0.1083,0.8732,-0.2531,-0.0619,-0.1078,0.0178,2.7686,1.4262,2.9882
2024-10-11T13:59:52.167Z,0.0322,-1.0694,0.1871,-0.1083,0.8732,-0.2531,-0.0660,-0.1078,0.0210,2.7686,1.4262,2.9882
2024-10-11T13:59:52.177Z,0.0400,-1.0644,0.1946,-0.1363,0.7379,-0.5236,-0.0679,-0.1070,0.0203,2.7666,1.4282,2.9868
2024-10-11T13:59:52.187Z,0.0414,-1.0571,0.1864,-0.1363,0.7379,-0.5236,-0.0680,-0.1004,0.0199,2.7666,1.4282,2.9868
2024-10-11T13:59:52.197Z,0.0247,-1.0542,0.1769,-0.1363,0.7379,-0.5236,-0.0626,-0.0961,0.0227,2.7666,1.4282,2.9868
2024-10-11T13:59:52.206Z,0.0215,-1.0496,0.1708,0.0173,0.5953,-0.3494,-0.0619,-0.0929,0.0183,2.7640,1.4302,2.9861
2024-10-11T13:59:52.217Z,0.0196,-1.0468,0.1623,0.0173,0.5953,-0.3494,-0.0564,-0.0846,0.0178,2.7640,1.4302,2.9861
2024-10-11T13:59:52.229Z,0.0119,-1.0335,0.1601,0.1328,0.3728,-0.1989,-0.0501,-0.0801,0.0157,2.7621,1.4319,2.9853
2024-10-11T13:59:52.237Z,0.0055,-1.0258,0.1555,0.1328,0.3728,-0.1989,-0.0427,-0.0761,0.0117,2.7621,1.4319,2.9853
2024-10-11T13:59:52.247Z,-0.0038,-1.0178,0.1488,0.1328,0.3728,-0.1989,-0.0352,-0.0697,0.0073,2.7621,1.4319,2.9853
2024-10-11T13:59:52.258Z,-0.0076,-1.0122,0.1353,0.2639,0.2111,0.1036,-0.0306,-0.0640,0.0032,2.7615,1.4329,2.9835
2024-10-11T13:59:52.267Z,-0.0033,-1.0125,0.1203,0.2639,0.2111,0.1036,-0.0222,-0.0604,0.0036,2.7615,1.4329,2.9835
2024-10-11T13:59:52.277Z,-0.0015,-1.0124,0.1117,0.2639,0.2111,0.1036,-0.0169,-0.0582,-0.0010,2.7615,1.4329,2.9835
2024-10-11T13:59:52.288Z,-0.0093,-1.0109,0.1064,0.3309,0.1746,0.2974,-0.0085,-0.0568,-0.0020,2.7622,1.4333,2.9809
2024-10-11T13:59:52.297Z,-0.0117,-1.0063,0.1052,0.3309,0.1746,0.2974,-0.0031,-0.0560,-0.0064,2.7622,1.4333,2.9809
2024-10-11T13:59:52.306Z,-0.0151,-1.0075,0.1051,0.3309,0.1746,0.2974,0.0023,-0.0495,-0.0103,2.7622,1.4333,2.9809
2024-10-11T13:59:52.318Z,-0.0196,-1.0046,0.1137,0.3987,0.1047,0.1136,0.0014,-0.0462,-0.0114,2.7643,1.4332,2.9772
2024-10-11T13:59:52.328Z,-0.0163,-0.9985,0.1278,0.3987,0.1047,0.1136,0.0014,-0.0411,-0.0147,2.7643,1.4332,2.9772
2024-10-11T13:59:52.337Z,-0.0161,-0.9911,0.1319,0.3987,0.1047,0.1136,-0.0031,-0.0332,-0.0188,2.7643,1.4332,2.9772
2024-10-11T13:59:52.348Z,-0.0098,-0.9842,0.1323,0.3132,-0.1616,-0.0422,-0.0036,-0.0344,-0.0215,2.7682,1.4331,2.9719
2024-10-11T13:59:52.357Z,-0.0103,-0.9685,0.1420,0.3132,-0.1616,-0.0422,-0.0038,-0.0279,-0.0246,2.7682,1.4331,2.9719
2024-10-11T13:59:52.367Z,-0.0116,-0.9581,0.1496,0.3132,-0.1616,-0.0422,-0.0088,-0.0251,-0.0264,2.7682,1.4331,2.9719
2024-10-11T13:59:52.379Z,-0.0025,-0.9518,0.1629,0.2612,-0.4146,-0.3513,-0.0125,-0.0207,-0.0276,2.7736,1.4332,2.9656
2024-10-11T13:59:52.387Z,-0.0032,-0.9462,0.1757,0.2612,-0.4146,-0.3513,-0.0159,-0.0160,-0.0284,2.7736,1.4332,2.9656
2024-10-11T13:59:52.397Z,0.0019,-0.9421,0.1836,0.2612,-0.4146,-0.3513,-0.0250,-0.0057,-0.0295,2.7736,1.4332,2.9656
2024-10-11T13:59:52.406Z,0.0068,-0.9438,0.1810,0.2612,-0.4146,-0.3513,-0.0266,-0.0014,-0.0327,2.7736,1.4332,2.9656
2024-10-11T13:59:52.417Z,0.0012,-0.9427,0.1765,0.2115,-0.4605,-0.4395,-0.0260,-0.0006,-0.0349,2.7810,1.4337,2.9577
2024-10-11T13:59:52.427Z,0.0076,-0.9418,0.1709,0.2115,-0.4605,-0.4395,-0.0255,-0.0043,-0.0338,2.7810,1.4337,2.9577
2024-10-11T13:59:52.438Z,0.0206,-0.9434,0.1671,0.0632,-0.4670,-0.3519,-0.0269,-0.0051,-0.0342,2.7888,1.4343,2.9497
2024-10-11T13:59:52.446Z,0.0172,-0.9461,0.1710,0.0632,-0.4670,-0.3519,-0.0272,-0.0050,-0.0329,2.7888,1.4343,2.9497
2024-10-11T13:59:52.457Z,0.0180,-0.9548,0.1604,0.0632,-0.4670,-0.3519,-0.0263,0.0023,-0.0306,2.7888,1.4343,2.9497
2024-10-11T13:59:52.468Z,0.0207,-0.9655,0.1480,0.0391,-0.2165,-0.0877,-0.0275,0.0104,-0.0304,2.7957,1.4348,2.9427
2024-10-11T13:59:52.478Z,0.0240,-0.9709,0.1400,0.0391,-0.2165,-0.0877,-0.0227,0.0174,-0.0289,2.7957,1.4348,2.9427
2024-10-11T13:59:52.487Z,0.0243,-0.9764,0.1254,0.0391,-0.2165,-0.0877,-0.0214,0.0215,-0.0264,2.7957,1.4348,2.9427
2024-10-11T13:59:52.498Z,0.0248,-0.9799,0.1152,0.0109,-0.0485,0.2803,-0.0145,0.0218,-0.0281,2.8018,1.4351,2.9370
2024-10-11T13:59:52.506Z,0.0281,-0.9892,0.0980,0.0109,-0.0485,0.2803,-0.0098,0.0263,-0.0258,2.8018,1.4351,2.9370
2024-10-11T13:59:52.517Z,0.0317,-0.9925,0.1047,0.0109,-0.0485,0.2803,-0.0083,0.0363,-0.0222,2.8018,1.4351,2.9370
2024-10-11T13:59:52.529Z,0.0371,-0.9950,0.1077,-0.1014,0.0672,0.2177,-0.0075,0.0469,-0.0226,2.8066,1.4351,2.9332
2024-10-11T13:59:52.537Z,0.0391,-0.9978,0.1114,-0.1014,0.0672,0.2177,-0.0108,0.0586,-0.0166,2.8066,1.4351,2.9332
2024-10-11T13:59:52.547Z,0.0359,-0.9922,0.1185,-0.1014,0.0672,0.2177,-0.0130,0.0659,-0.0169,2.8066,1.4351,2.9332
2024-10-11T13:59:52.557Z,0.0289,-0.9860,0.1164,0.0505,-0.0386,0.1921,-0.0119,0.0665,-0.0149,2.8104,1.4352,2.9311
2024-10-11T13:59:52.567Z,0.0210,-0.9872,0.1107,0.0505,-0.0386,0.1921,-0.0109,0.0783,-0.0151,2.8104,1.4352,2.9311
2024-10-11T13:59:52.578Z,0.0251,-0.9859,0.1117,0.0505,-0.0386,0.1921,-0.0111,0.0819,-0.0143,2.8104,1.4352,2.9311
2024-10-11T13:59:52.587Z,0.0313,-0.9796,0.1120,-0.0343,-0.1510,0.1621,-0.0094,0.0789,-0.0143,2.8136,1.4355,2.9301
2024-10-11T13:59:52.598Z,0.0292,-0.9724,0.1168,-0.0343,-0.1510,0.1621,-0.0100,0.0801,-0.0113,2.8136,1.4355,2.9301
2024-10-11T13:59:52.606Z,0.0232,-0.9628,0.1191,-0.0343,-0.1510,0.1621,-0.0106,0.0870,-0.0107,2.8136,1.4355,2.9301
2024-10-11T13:59:52.617Z,0.0198,-0.9623,0.1137,0.0819,-0.2916,0.1427,-0.0127,0.0866,-0.0157,2.8168,1.4357,2.9292
2024-10-11T13:59:52.628Z,0.0221,-0.9630,0.1194,0.0819,-0.2916,0.1427,-0.0097,0.0844,-0.0161,2.8168,1.4357,2.9292
2024-10-11T13:59:52.636Z,0.0296,-0.9627,0.1207,0.0819,-0.2916,0.1427,-0.0100,0.0811,-0.0171,2.8168,1.4357,2.9292
2024-10-11T13:59:52.647Z,0.0380,-0.9632,0.1273,-0.1283,-0.2854,0.0609,-0.0058,0.0755,-0.0156,2.8202,1.4358,2.9280
2024-10-11T13:59:52.656Z,0.0412,-0.9623,0.1232,-0.1283,-0.2854,0.0609,-0.0066,0.0726,-0.0155,2.8202,1.4358,2.9280
2024-10-11T13:59:52.667Z,0.0433,-0.9664,0.1235,-0.1283,-0.2854,0.0609,-0.0060,0.0707,-0.0141,2.8202,1.4358,2.9280
2024-10-11T13:59:52.678Z,0.0515,-0.9681,0.1305,-0.2277,-0.1641,-0.0047,-0.0098,0.0703,-0.0110,2.8231,1.4359,2.9271
2024-10-11T13:59:52.687Z,0.0508,-0.9783,0.1319,-0.2277,-0.1641,-0.0047,-0.0073,0.0708,-0.0112,2.8231,1.4359,2.9271
2024-10-11T13:59:52.697Z,0.0471,-0.9900,0.1337,-0.2277,-0.1641,-0.0047,-0.0094,0.0680,-0.0076,2.8231,1.4359,2.9271
2024-10-11T13:59:52.707Z,0.0516,-0.9921,0.1322,-0.2354,0.0073,0.0138,-0.0077,0.0601,-0.0097,2.8252,1.4361,2.9267
2024-10-11T13:59:52.717Z,0.0514,-0.9909,0.1275,-0.2354,0.0073,0.0138,-0.0006,0.0521,-0.0087,2.8252,1.4361,2.9267
2024-10-11T13:59:52.728Z,0.0481,-0.9954,0.1312,-0.2354,0.0073,0.0138,-0.0056,0.0460,-0.0080,2.8252,1.4361,2.9267
2024-10-11T13:59:52.737Z,0.0462,-0.9983,0.1390,-0.1586,0.0689,-0.1416,-0.0062,0.0430,-0.0057,2.8267,1.4361,2.9264
2024-10-11T13:59:52.747Z,0.0453,-0.9981,0.1500,-0.1586,0.0689,-0.1416,-0.0075,0.0437,-0.0058,2.8267,1.4361,2.9264
2024-10-11T13:59:52.756Z,0.0526,-0.9972,0.1539,-0.1586,0.0689,-0.1416,-0.0093,0.0372,-0.0018,2.8267,1.4361,2.9264
2024-10-11T13:59:52.767Z,0.0531,-0.9957,0.1643,-0.2262,0.0291,-0.3310,-0.0126,0.0350,0.0008,2.8275,1.4364,2.9264
2024-10-11T13:59:52.778Z,0.0519,-0.9926,0.1640,-0.2262,0.0291,-0.3310,-0.0160,0.0346,0.0005,2.8275,1.4364,2.9264
2024-10-11T13:59:52.787Z,0.0570,-0.9948,0.1602,-0.2262,0.0291,-0.3310,-0.0169,0.0230,0.0023,2.8275,1.4364,2.9264
2024-10-11T13:59:52.797Z,0.0599,-0.9962,0.1581,-0.2262,0.0291,-0.3310,-0.0166,0.0183,0.0042,2.8275,1.4364,2.9264
2024-10-11T13:59:52.806Z,0.0594,-0.9987,0.1499,-0.3114,0.0608,-0.2245,-0.0147,0.0119,0.0082,2.8273,1.4368,2.9270
2024-10-11T13:59:52.817Z,0.0573,-1.0021,0.1428,-0.3114,0.0608,-0.2245,-0.0130,0.0127,0.0082,2.8273,1.4368,2.9270
2024-10-11T13:59:52.829Z,0.0583,-1.0009,0.1366,-0.3102,0.0979,-0.0563,-0.0166,0.0149,0.0148,2.8256,1.4373,2.9289
2024-10-11T13:59:52.837Z,0.0580,-1.0019,0.1375,-0.3102,0.0979,-0.0563,-0.0137,0.0125,0.0145,2.8256,1.4373,2.9289
2024-10-11T13:59:52.847Z,0.0470,-1.0065,0.1280,-0.3102,0.0979,-0.0563,-0.0126,0.0060,0.0127,2.8256,1.4373,2.9289
2024-10-11T13:59:52.857Z,0.0350,-1.0069,0.1236,-0.0453,0.1442,0.1425,-0.0090,-0.0028,0.0136,2.8228,1.4376,2.9315
2024-10-11T13:59:52.867Z,0.0345,-1.0030,0.1108,-0.0453,0.1442,0.1425,-0.0003,-0.0101,0.0110,2.8228,1.4376,2.9315
2024-10-11T13:59:52.877Z,0.0404,-1.0058,0.1055,-0.0453,0.1442,0.1425,0.0041,-0.0140,0.0129,2.8228,1.4376,2.9315
2024-10-11T13:59:52.887Z,0.0369,-1.0119,0.1023,-0.0518,0.2163,0.2588,0.0081,-0.0171,0.0143,2.8197,1.4375,2.9340
2024-10-11T13:59:52.897Z,0.0305,-1.0152,0.1025,-0.0518,0.2163,0.2588,0.0136,-0.0177,0.0105,2.8197,1.4375,2.9340
2024-10-11T13:59:52.906Z,0.0244,-1.0151,0.1006,-0.0518,0.2163,0.2588,0.0202,-0.0174,0.0093,2.8197,1.4375,2.9340
2024-10-11T13:59:52.917Z,0.0182,-1.0180,0.0945,0.0989,0.2274,0.3156,0.0225,-0.0220,0.0093,2.8166,1.4369,2.9361
2024-10-11T13:59:52.927Z,0.0172,-1.0128,0.1012,0.0989,0.2274,0.3156,0.0301,-0.0313,0.0082,2.8166,1.4369,2.9361
2024-10-11T13:59:52.937Z,0.0242,-1.0081,0.1034,0.0989,0.2274,0.3156,0.0333,-0.0347,0.0055,2.8166,1.4369,2.9361
2024-10-11T13:59:52.947Z,0.0292,-1.0032,0.1190,-0.0455,0.0882,0.0326,0.0352,-0.0409,0.0074,2.8136,1.4360,2.9378
2024-10-11T13:59:52.956Z,0.0336,-0.9960,0.1312,-0.0455,0.0882,0.0326,0.0318,-0.0388,0.0062,2.8136,1.4360,2.9378
2024-10-11T13:59:52.967Z,0.0337,-0.9906,0.1473,-0.0455,0.0882,0.0326,0.0291,-0.0340,0.0096,2.8136,1.4360,2.9378
2024-10-11T13:59:52.976Z,0.0355,-0.9864,0.1530,-0.1336,-0.0619,-0.2471,0.0273,-0.0297,0.0147,2.8096,1.4353,2.9404
2024-10-11T13:59:52.987Z,0.0447,-0.9842,0.1589,-0.1336,-0.0619,-0.2471,0.0224,-0.0252,0.0173,2.8096,1.4353,2.9404
2024-10-11T13:59:52.997Z,0.0468,-0.9822,0.1569,-0.1336,-0.0619,-0.2471,0.0234,-0.0306,0.0184,2.8096,1.4353,2.9404
2024-10-11T13:59:53.007Z,0.0397,-0.9860,0.1578,-0.0296,-0.0227,-0.2072,0.0225,-0.0327,0.0180,2.8043,1.4348,2.9445
2024-10-11T13:59:53.017Z,0.0258,-0.9879,0.1535,-0.0296,-0.0227,-0.2072,0.0213,-0.0288,0.0178,2.8043,1.4348,2.9445
2024-10-11T13:59:53.027Z,0.0296,-0.9941,0.1461,-0.0296,-0.0227,-0.2072,0.0179,-0.0248,0.0175,2.8043,1.4348,2.9445
2024-10-11T13:59:53.037Z,0.0380,-1.0034,0.1403,-0.0850,0.1993,0.0107,0.0205,-0.0144,0.0182,2.7989,1.4343,2.9490
2024-10-11T13:59:53.046Z,0.0340,-1.0145,0.1291,-0.0850,0.1993,0.0107,0.0198,-0.0112,0.0210,2.7989,1.4343,2.9490
2024-10-11T13:59:53.056Z,0.0354,-1.0205,0.1267,-0.0850,0.1993,0.0107,0.0183,-0.0087,0.0193,2.7989,1.4343,2.9490
2024-10-11T13:59:53.067Z,0.0289,-1.0242,0.1189,0.0229,0.3281,0.1386,0.0235,-0.0044,0.0186,2.7936,1.4337,2.9537
2024-10-11T13:59:53.077Z,0.0213,-1.0276,0.1194,0.0229,0.3281,0.1386,0.0272,-0.0082,0.0142,2.7936,1.4337,2.9537
2024-10-11T13:59:53.087Z,0.0185,-1.0325,0.1102,0.0229,0.3281,0.1386,0.0289,-0.0110,0.0128,2.7936,1.4337,2.9537
2024-10-11T13:59:53.097Z,0.0137,-1.0362,0.1094,0.0887,0.4415,0.2507,0.0319,-0.0098,0.0114,2.7894,1.4329,2.9575
2024-10-11T13:59:53.106Z,0.0190,-1.0351,0.1104,0.0887,0.4415,0.2507,0.0317,-0.0090,0.0104,2.7894,1.4329,2.9575
2024-10-11T13:59:53.117Z,0.0255,-1.0313,0.1140,0.0887,0.4415,0.2507,0.0303,-0.0065,0.0101,2.7894,1.4329,2.9575
2024-10-11T13:59:53.127Z,0.0225,-1.0204,0.1206,0.0213,0.2413,0.1040,0.0300,-0.0021,0.0077,2.7862,1.4320,2.9602
2024-10-11T13:59:53.137Z,0.0258,-1.0120,0.1270,0.0213,0.2413,0.1040,0.0296,-0.0056,0.0074,2.7862,1.4320,2.9602
2024-10-11T13:59:53.146Z,0.0299,-1.0055,0.1338,0.0213,0.2413,0.1040,0.0268,-0.0089,0.0086,2.7862,1.4320,2.9602
2024-10-11T13:59:53.157Z,0.0311,-1.0033,0.1367,-0.0545,0.0933,-0.0686,0.0272,-0.0069,0.0107,2.7828,1.4313,2.9631
2024-10-11T13:59:53.167Z,0.0279,-0.9970,0.1477,-0.0545,0.0933,-0.0686,0.0229,-0.0108,0.0098,2.7828,1.4313,2.9631
2024-10-11T13:59:53.177Z,0.0220,-0.9893,0.1658,-0.0545,0.0933,-0.0686,0.0166,-0.0021,0.0122,2.7828,1.4313,2.9631
2024-10-11T13:59:53.187Z,0.0244,-0.9814,0.1784,-0.0487,-0.1084,-0.4118,0.0056,0.0035,0.0081,2.7803,1.4310,2.9653
2024-10-11T13:59:53.196Z,0.0316,-0.9772,0.1775,-0.0487,-0.1084,-0.4118,-0.0022,0.0093,0.0076,2.7803,1.4310,2.9653
2024-10-11T13:59:53.206Z,0.0322,-0.9789,0.1743,-0.0487,-0.1084,-0.4118,-0.0073,0.0160,0.0064,2.7803,1.4310,2.9653
2024-10-11T13:59:53.217Z,0.0302,-0.9819,0.1633,-0.0446,-0.0097,-0.2280,-0.0077,0.0155,0.0077,2.7787,1.4311,2.9670
2024-10-11T13:59:53.227Z,0.0284,-0.9914,0.1580,-0.0446,-0.0097,-0.2280,-0.0100,0.0170,0.0061,2.7787,1.4311,2.9670
2024-10-11T13:59:53.237Z,0.0349,-0.9912,0.1555,-0.0446,-0.0097,-0.2280,-0.0143,0.0253,0.0080,2.7787,1.4311,2.9670
2024-10-11T13:59:53.247Z,0.0413,-0.9966,0.1545,-0.1968,0.0871,-0.1349,-0.0228,0.0279,0.0076,2.7772,1.4316,2.9691
2024-10-11T13:59:53.257Z,0.0425,-1.0018,0.1460,-0.1968,0.0871,-0.1349,-0.0235,0.0377,0.0110,2.7772,1.4316,2.9691
2024-10-11T13:59:53.267Z,0.0381,-1.0111,0.1324,-0.1968,0.0871,-0.1349,-0.0218,0.0353,0.0102,2.7772,1.4316,2.9691
2024-10-11T13:59:53.277Z,0.0377,-1.0181,0.1215,-0.1634,0.2763,0.1959,-0.0191,0.0337,0.0103,2.7753,1.4322,2.9717
2024-10-11T13:59:53.287Z,0.0406,-1.0205,0.1150,-0.1634,0.2763,0.1959,-0.0186,0.0344,0.0114,2.7753,1.4322,2.9717
2024-10-11T13:59:53.296Z,0.0434,-1.0228,0.1155,-0.1634,0.2763,0.1959,-0.0192,0.0354,0.0159,2.7753,1.4322,2.9717
2024-10-11T13:59:53.306Z,0.0417,-1.0268,0.1156,-0.1640,0.4036,0.2119,-0.0191,0.0438,0.0168,2.7726,1.4328,2.9753
2024-10-11T13:59:53.316Z,0.0382,-1.0327,0.1142,-0.1640,0.4036,0.2119,-0.0206,0.0513,0.0179,2.7726,1.4328,2.9753
2024-10-11T13:59:53.327Z,0.0286,-1.0371,0.1115,-0.1640,0.4036,0.2119,-0.0209,0.0560,0.0190,2.7726,1.4328,2.9753
2024-10-11T13:59:53.337Z,0.0217,-1.0374,0.1067,-0.0112,0.4437,0.2991,-0.0181,0.0600,0.0153,2.7692,1.4333,2.9801
2024-10-11T13:59:53.346Z,0.0239,-1.0350,0.1080,-0.0112,0.4437,0.2991,-0.0177,0.0576,0.0180,2.7692,1.4333,2.9801
2024-10-11T13:59:53.357Z,0.0209,-1.0252,0.1150,-0.0112,0.4437,0.2991,-0.0173,0.0609,0.0168,2.7692,1.4333,2.9801
2024-10-11T13:59:53.367Z,0.0160,-1.0113,0.1207,0.0771,0.1159,0.0725,-0.0163,0.0601,0.0154,2.7663,1.4339,2.9845
2024-10-11T13:59:53.377Z,0.0118,-0.9993,0.1295,0.0771,0.1159,0.0725,-0.0202,0.0570,0.0131,2.7663,1.4339,2.9845
2024-10-11T13:59:53.387Z,0.0051,-0.9879,0.1311,0.0771,0.1159,0.0725,-0.0233,0.0576,0.0116,2.7663,1.4339,2.9845
2024-10-11T13:59:53.398Z,0.0018,-0.9776,0.1345,0.1574,-0.1897,0.0120,-0.0277,0.0595,0.0079,2.7647,1.4347,2.9875
2024-10-11T13:59:53.406Z,0.0065,-0.9689,0.1313,0.1574,-0.1897,0.0120,-0.0314,0.0570,0.0063,2.7647,1.4347,2.9875
2024-10-11T13:59:53.417Z,0.0044,-0.9629,0.1339,0.1574,-0.1897,0.0120,-0.0318,0.0555,0.0060,2.7647,1.4347,2.9875
2024-10-11T13:59:53.427Z,-0.0038,-0.9556,0.1323,0.2210,-0.3838,0.0348,-0.0312,0.0509,-0.0003,2.7651,1.4357,2.9885
2024-10-11T13:59:53.437Z,0.0007,-0.9498,0.1262,0.2210,-0.3838,0.0348,-0.0337,0.0524,-0.0008,2.7651,1.4357,2.9885
2024-10-11T13:59:53.446Z,0.0094,-0.9449,0.1236,0.2210,-0.3838,0.0348,-0.0340,0.0462,-0.0025,2.7651,1.4357,2.9885
2024-10-11T13:59:53.457Z,0.0154,-0.9416,0.1199,0.0386,-0.4899,0.1483,-0.0342,0.0522,-0.0002,2.7665,1.4367,2.9884
2024-10-11T13:59:53.467Z,0.0166,-0.9398,0.1167,0.0386,-0.4899,0.1483,-0.0407,0.0524,-0.0058,2.7665,1.4367,2.9884
2024-10-11T13:59:53.478Z,0.0149,-0.9424,0.1198,0.0386,-0.4899,0.1483,-0.0421,0.0553,-0.0028,2.7665,1.4367,2.9884
2024-10-11T13:59:53.487Z,0.0109,-0.9442,0.1165,0.0913,-0.4471,0.1897,-0.0459,0.0569,-0.0074,2.7685,1.4379,2.9877
2024-10-11T13:59:53.497Z,0.0113,-0.9460,0.1086,0.0913,-0.4471,0.1897,-0.0395,0.0531,-0.0059,2.7685,1.4379,2.9877
2024-10-11T13:59:53.506Z,0.0124,-0.9521,0.0985,0.0913,-0.4471,0.1897,-0.0389,0.0519,-0.0073,2.7685,1.4379,2.9877
2024-10-11T13:59:53.516Z,0.0090,-0.9581,0.0986,0.1283,-0.2929,0.2712,-0.0372,0.0494,-0.0081,2.7712,1.4390,2.9864
2024-10-11T13:59:53.526Z,0.0065,-0.9630,0.1039,0.1283,-0.2929,0.2712,-0.0373,0.0524,-0.0085,2.7712,1.4390,2.9864
2024-10-11T13:59:53.537Z,0.0074,-0.9657,0.1073,0.1283,-0.2929,0.2712,-0.0406,0.0527,-0.0105,2.7712,1.4390,2.9864
2024-10-11T13:59:53.547Z,0.0108,-0.9654,0.1131,0.0504,-0.2599,0.1368,-0.0411,0.0567,-0.0118,2.7747,1.4401,2.9844
2024-10-11T13:59:53.557Z,0.0168,-0.9668,0.1158,0.0504,-0.2599,0.1368,-0.0433,0.0611,-0.0118,2.7747,1.4401,2.9844
2024-10-11T13:59:53.567Z,0.0184,-0.9721,0.1098,0.0504,-0.2599,0.1368,-0.0408,0.0638,-0.0089,2.7747,1.4401,2.9844
2024-10-11T13:59:53.577Z,0.0208,-0.9798,0.1087,-0.0228,-0.0906,0.1789,-0.0401,0.0650,-0.0062,2.7779,1.4413,2.9829
2024-10-11T13:59:53.587Z,0.0230,-0.9832,0.1126,-0.0228,-0.0906,0.1789,-0.0398,0.0671,-0.0055,2.7779,1.4413,2.9829
2024-10-11T13:59:53.597Z,0.0253,-0.9801,0.1179,-0.0228,-0.0906,0.1789,-0.0358,0.0699,-0.0050,2.7779,1.4413,2.9829
2024-10-11T13:59:53.606Z,0.0238,-0.9822,0.1226,0.0122,-0.1112,0.0117,-0.0423,0.0776,0.0001,2.7799,1.4425,2.9828
2024-10-11T13:59:53.617Z,0.0169,-0.9778,0.1289,0.0122,-0.1112,0.0117,-0.0415,0.0837,-0.0011,2.7799,1.4425,2.9828
2024-10-11T13:59:53.627Z,0.0128,-0.9755,0.1315,0.0122,-0.1112,0.0117,-0.0409,0.0857,-0.0006,2.7799,1.4425,2.9828
2024-10-11T13:59:53.636Z,0.0140,-0.9731,0.1252,0.0593,-0.2073,0.0089,-0.0400,0.0903,0.0009,2.7815,1.4437,2.9835
2024-10-11T13:59:53.647Z,0.0164,-0.9697,0.1216,0.0593,-0.2073,0.0089,-0.0389,0.0917,-0.0006,2.7815,1.4437,2.9835
2024-10-11T13:59:53.657Z,0.0186,-0.9659,0.1151,0.0593,-0.2073,0.0089,-0.0392,0.0869,0.0014,2.7815,1.4437,2.9835
2024-10-11T13:59:53.667Z,0.0160,-0.9600,0.1114,0.0608,-0.3052,0.0845,-0.0374,0.0854,-0.0005,2.7825,1.4448,2.9850
2024-10-11T13:59:53.677Z,0.0112,-0.9612,0.1156,0.0608,-0.3052,0.0845,-0.0356,0.0813,0.0003,2.7825,1.4448,2.9850
2024-10-11T13:59:53.687Z,0.0040,-0.9698,0.1103,0.0608,-0.3052,0.0845,-0.0380,0.0814,-0.0022,2.7825,1.4448,2.9850
2024-10-11T13:59:53.698Z,-0.0020,-0.9756,0.0983,0.1941,-0.1638,0.3264,-0.0354,0.0782,-0.0054,2.7843,1.4458,2.9852
2024-10-11T13:59:53.706Z,0.0015,-0.9768,0.0861,0.1941,-0.1638,0.3264,-0.0295,0.0722,-0.0061,2.7843,1.4458,2.9852
2024-10-11T13:59:53.717Z,0.0089,-0.9763,0.0900,0.1941,-0.1638,0.3264,-0.0276,0.0623,-0.0104,2.7843,1.4458,2.9852
2024-10-11T13:59:53.727Z,0.0086,-0.9815,0.0898,0.1183,-0.0389,0.3129,-0.0250,0.0563,-0.0141,2.7877,1.4465,2.9835
2024-10-11T13:59:53.737Z,0.0062,-0.9918,0.0912,0.1183,-0.0389,0.3129,-0.0207,0.0520,-0.0149,2.7877,1.4465,2.9835
2024-10-11T13:59:53.747Z,0.0081,-0.9939,0.0944,0.1183,-0.0389,0.3129,-0.0219,0.0505,-0.0142,2.7877,1.4465,2.9835
2024-10-11T13:59:53.757Z,0.0201,-0.9979,0.0962,-0.0671,0.0375,0.2283,-0.0217,0.0563,-0.0137,2.7918,1.4471,2.9809
2024-10-11T13:59:53.767Z,0.0281,-0.9944,0.1007,-0.0671,0.0375,0.2283,-0.0233,0.0593,-0.0155,2.7918,1.4471,2.9809
2024-10-11T13:59:53.777Z,0.0284,-0.9936,0.1047,-0.0671,0.0375,0.2283,-0.0273,0.0578,-0.0155,2.7918,1.4471,2.9809
2024-10-11T13:59:53.786Z,0.0257,-0.9884,0.1131,-0.0614,-0.0484,0.0807,-0.0244,0.0595,-0.0156,2.7961,1.4478,2.9780
2024-10-11T13:59:53.797Z,0.0275,-0.9870,0.1128,-0.0614,-0.0484,0.0807,-0.0260,0.0578,-0.0133,2.7961,1.4478,2.9780
2024-10-11T13:59:53.806Z,0.0296,-0.9857,0.1144,-0.0614,-0.0484,0.0807,-0.0252,0.0569,-0.0145,2.7961,1.4478,2.9780
2024-10-11T13:59:53.817Z,0.0279,-0.9790,0.1217,-0.0571,-0.1689,-0.0588,-0.0284,0.0601,-0.0112,2.7997,1.4485,2.9760
2024-10-11T13:59:53.827Z,0.0264,-0.9742,0.1289,-0.0571,-0.1689,-0.0588,-0.0291,0.0665,-0.0131,2.7997,1.4485,2.9760
2024-10-11T13:59:53.837Z,0.0330,-0.9661,0.1288,-0.0571,-0.1689,-0.0588,-0.0340,0.0769,-0.0136,2.7997,1.4485,2.9760
2024-10-11T13:59:53.847Z,0.0380,-0.9657,0.1220,-0.1386,-0.2770,0.0172,-0.0304,0.0764,-0.0117,2.8038,1.4494,2.9739
2024-10-11T13:59:53.857Z,0.0317,-0.9654,0.1173,-0.1386,-0.2770,0.0172,-0.0313,0.0761,-0.0165,2.8038,1.4494,2.9739
2024-10-11T13:59:53.866Z,0.0253,-0.9627,0.1093,-0.1386,-0.2770,0.0172,-0.0285,0.0714,-0.0167,2.8038,1.4494,2.9739
2024-10-11T13:59:53.877Z,0.0236,-0.9601,0.1066,0.0056,-0.3293,0.1474,-0.0282,0.0685,-0.0160,2.8090,1.4502,2.9706
2024-10-11T13:59:53.887Z,0.0198,-0.9588,0.1007,0.0056,-0.3293,0.1474,-0.0236,0.0689,-0.0190,2.8090,1.4502,2.9706
2024-10-11T13:59:53.897Z,0.0237,-0.9557,0.0995,0.0056,-0.3293,0.1474,-0.0265,0.0731,-0.0216,2.8090,1.4502,2.9706
2024-10-11T13:59:53.906Z,0.0273,-0.9594,0.0918,-0.0689,-0.2993,0.2462,-0.0220,0.0749,-0.0230,2.8149,1.4507,2.9666
2024-10-11T13:59:53.918Z,0.0287,-0.9650,0.0908,-0.0689,-0.2993,0.2462,-0.0194,0.0757,-0.0215,2.8149,1.4507,2.9666
2024-10-11T13:59:53.927Z,0.0279,-0.9722,0.0890,-0.0689,-0.2993,0.2462,-0.0172,0.0729,-0.0224,2.8149,1.4507,2.9666
2024-10-11T13:59:53.937Z,0.0269,-0.9756,0.0941,-0.0892,-0.1328,0.1546,-0.0160,0.0703,-0.0235,2.8208,1.4511,2.9627
2024-10-11T13:59:53.947Z,0.0317,-0.9814,0.1060,-0.0892,-0.1328,0.1546,-0.0124,0.0680,-0.0223,2.8208,1.4511,2.9627
2024-10-11T13:59:53.956Z,0.0287,-0.9876,0.1059,-0.0892,-0.1328,0.1546,-0.0129,0.0678,-0.0213,2.8208,1.4511,2.9627
2024-10-11T13:59:53.966Z,0.0301,-0.9909,0.1188,-0.1209,0.0043,-0.0739,-0.0138,0.0674,-0.0239,2.8268,1.4514,2.9586
2024-10-11T13:59:53.977Z,0.0360,-0.9926,0.1262,-0.1209,0.0043,-0.0739,-0.0186,0.0714,-0.0231,2.8268,1.4514,2.9586
2024-10-11T13:59:53.987Z,0.0414,-0.9924,0.1338,-0.1209,0.0043,-0.0739,-0.0202,0.0705,-0.0237,2.8268,1.4514,2.9586
2024-10-11T13:59:53.997Z,0.0526,-0.9936,0.1339,-0.3360,-0.0195,-0.1397,-0.0222,0.0707,-0.0249,2.8330,1.4519,2.9543
2024-10-11T13:59:54.006Z,0.0558,-0.9889,0.1287,-0.3360,-0.0195,-0.1397,-0.0241,0.0694,-0.0230,2.8330,1.4519,2.9543
2024-10-11T13:59:54.017Z,0.0522,-0.9818,0.1285,-0.3360,-0.0195,-0.1397,-0.0252,0.0705,-0.0203,2.8330,1.4519,2.9543
2024-10-11T13:59:54.027Z,0.0465,-0.9775,0.1333,-0.2437,-0.1610,-0.1737,-0.0271,0.0756,-0.0216,2.8393,1.4525,2.9500
2024-10-11T13:59:54.037Z,0.0458,-0.9773,0.1367,-0.2437,-0.1610,-0.1737,-0.0291,0.0858,-0.0231,2.8393,1.4525,2.9500
2024-10-11T13:59:54.047Z,0.0491,-0.9795,0.1264,-0.2437,-0.1610,-0.1737,-0.0287,0.0867,-0.0183,2.8393,1.4525,2.9500
2024-10-11T13:59:54.057Z,0.0491,-0.9817,0.1211,-0.2604,-0.1080,0.0026,-0.0288,0.0948,-0.0163,2.8451,1.4532,2.9466
2024-10-11T13:59:54.066Z,0.0502,-0.9824,0.1127,-0.2604,-0.1080,0.0026,-0.0257,0.0926,-0.0163,2.8451,1.4532,2.9466
2024-10-11T13:59:54.077Z,0.0518,-0.9852,0.1038,-0.2604,-0.1080,0.0026,-0.0226,0.0863,-0.0122,2.8451,1.4532,2.9466
2024-10-11T13:59:54.087Z,0.0488,-0.9902,0.0941,-0.2708,-0.0210,0.1510,-0.0160,0.0774,-0.0068,2.8483,1.4537,2.9457
2024-10-11T13:59:54.097Z,0.0524,-0.9917,0.1005,-0.2708,-0.0210,0.1510,-0.0090,0.0725,0.0000,2.8483,1.4537,2.9457
2024-10-11T13:59:54.106Z,0.0486,-1.0010,0.1015,-0.2708,-0.0210,0.1510,-0.0144,0.0757,0.0019,2.8483,1.4537,2.9457
2024-10-11T13:59:54.116Z,0.0402,-1.0070,0.1005,-0.1571,0.1631,0.1054,-0.0126,0.0787,0.0009,2.8486,1.4541,2.9474
2024-10-11T13:59:54.127Z,0.0369,-1.0114,0.1044,-0.1571,0.1631,0.1054,-0.0060,0.0714,0.0030,2.8486,1.4541,2.9474
2024-10-11T13:59:54.138Z,0.0248,-1.0158,0.1070,-0.1571,0.1631,0.1054,-0.0071,0.0655,0.0021,2.8486,1.4541,2.9474
2024-10-11T13:59:54.147Z,0.0252,-1.0220,0.1102,-0.0773,0.3484,0.0008,-0.0022,0.0577,-0.0004,2.8486,1.4542,2.9490
2024-10-11T13:59:54.157Z,0.0327,-1.0315,0.1130,-0.0773,0.3484,0.0008,0.0007,0.0463,-0.0055,2.8486,1.4542,2.9490
2024-10-11T13:59:54.167Z,0.0307,-1.0296,0.1229,-0.0773,0.3484,0.0008,0.0010,0.0360,-0.0054,2.8486,1.4542,2.9490
2024-10-11T13:59:54.176Z,0.0267,-1.0234,0.1321,-0.0019,0.2112,-0.2964,0.0012,0.0270,-0.0095,2.8496,1.4542,2.9489
2024-10-11T13:59:54.187Z,0.0213,-1.0101,0.1478,-0.0019,0.2112,-0.2964,0.0015,0.0173,-0.0076,2.8496,1.4542,2.9489
2024-10-11T13:59:54.197Z,0.0170,-0.9949,0.1556,-0.0019,0.2112,-0.2964,-0.0017,0.0109,-0.0120,2.8496,1.4542,2.9489
2024-10-11T13:59:54.206Z,0.0210,-0.9937,0.1466,-0.0453,0.0072,-0.2841,-0.0000,-0.0003,-0.0107,2.8519,1.4540,2.9465
2024-10-11T13:59:54.217Z,0.0284,-0.9955,0.1450,-0.0453,0.0072,-0.2841,0.0049,-0.0099,-0.0129,2.8519,1.4540,2.9465
2024-10-11T13:59:54.228Z,0.0277,-1.0050,0.1331,-0.0453,0.0072,-0.2841,0.0173,-0.0162,-0.0133,2.8519,1.4540,2.9465
2024-10-11T13:59:54.237Z,0.0287,-1.0171,0.1250,-0.0831,0.2920,-0.0340,0.0173,-0.0162,-0.0133,2.8544,1.4535,2.9434
2024-10-11T13:59:54.247Z,0.0321,-1.0262,0.1171,-0.0831,0.2920,-0.0340,0.0224,-0.0199,-0.0119,2.8544,1.4535,2.9434
2024-10-11T13:59:54.257Z,0.0319,-1.0353,0.1105,-0.0831,0.2920,-0.0340,0.0281,-0.0178,-0.0114,2.8544,1.4535,2.9434
2024-10-11T13:59:54.268Z,0.0325,-1.0404,0.0990,-0.0805,0.5107,0.2499,0.0385,-0.0164,-0.0103,2.8552,1.4525,2.9418
2024-10-11T13:59:54.277Z,0.0302,-1.0440,0.0871,-0.0805,0.5107,0.2499,0.0385,-0.0164,-0.0103,2.8552,1.4525,2.9418
2024-10-11T13:59:54.288Z,0.0239,-1.0379,0.0915,-0.0805,0.5107,0.2499,0.0484,-0.0162,-0.0100,2.8552,1.4525,2.9418
2024-10-11T13:59:54.297Z,0.0166,-1.0284,0.0990,0.0991,0.2736,0.1739,0.0484,-0.0162,-0.0100,2.8553,1.4511,2.9411
2024-10-11T13:59:54.306Z,0.0145,-1.0169,0.1019,0.0991,0.2736,0.1739,0.0466,-0.0117,-0.0111,2.8553,1.4511,2.9411
2024-10-11T13:59:54.317Z,0.0193,-1.0093,0.1077,0.0991,0.2736,0.1739,0.0466,-0.0022,-0.0067,2.8553,1.4511,2.9411
2024-10-11T13:59:54.328Z,0.0249,-1.0063,0.1101,-0.0277,0.1442,0.0947,0.0386,0.0171,-0.0036,2.8545,1.4496,2.9415
2024-10-11T13:59:54.337Z,0.0273,-1.0067,0.1077,-0.0277,0.1442,0.0947,0.0386,0.0171,-0.0036,2.8545,1.4496,2.9415
2024-10-11T13:59:54.348Z,0.0267,-1.0019,0.1207,-0.0277,0.1442,0.0947,0.0396,0.0158,-0.0012,2.8545,1.4496,2.9415
2024-10-11T13:59:54.357Z,0.0356,-0.9949,0.1269,-0.1173,0.0013,-0.2017,0.0389,0.0114,0.0034,2.8521,1.4485,2.9440
2024-10-11T13:59:54.368Z,0.0365,-0.9917,0.1421,-0.1173,0.0013,-0.2017,0.0328,0.0078,0.0085,2.8521,1.4485,2.9440
2024-10-11T13:59:54.376Z,0.0348,-0.9874,0.1501,-0.1173,0.0013,-0.2017,0.0328,0.0078,0.0085,2.8521,1.4485,2.9440
2024-10-11T13:59:54.388Z,0.0372,-0.9870,0.1487,-0.1872,-0.0825,-0.3045,0.0242,0.0092,0.0175,2.8480,1.4476,2.9482
2024-10-11T13:59:54.397Z,0.0450,-0.9843,0.1538,-0.1872,-0.0825,-0.3045,0.0242,0.0092,0.0175,2.8480,1.4476,2.9482
2024-10-11T13:59:54.406Z,0.0411,-0.9839,0.1551,-0.1872,-0.0825,-0.3045,0.0229,0.0057,0.0209,2.8480,1.4476,2.9482
2024-10-11T13:59:54.416Z,0.0421,-0.9865,0.1568,-0.2270,-0.0299,-0.2496,0.0210,-0.0016,0.0235,2.8418,1.4470,2.9540
2024-10-11T13:59:54.427Z,0.0468,-0.9892,0.1406,-0.2270,-0.0299,-0.2496,0.0268,-0.0212,0.0268,2.8418,1.4470,2.9540
2024-10-11T13:59:54.438Z,0.0422,-0.9955,0.1332,-0.2270,-0.0299,-0.2496,0.0281,-0.0362,0.0282,2.8418,1.4470,2.9540
2024-10-11T13:59:54.447Z,0.0367,-1.0022,0.1318,-0.0866,0.1228,-0.1022,0.0281,-0.0362,0.0282,2.8339,1.4464,2.9609
2024-10-11T13:59:54.458Z,0.0301,-1.0057,0.1329,-0.0866,0.1228,-0.1022,0.0246,-0.0497,0.0267,2.8339,1.4464,2.9609
2024-10-11T13:59:54.468Z,0.0296,-1.0058,0.1304,-0.0866,0.1228,-0.1022,0.0257,-0.0637,0.0280,2.8339,1.4464,2.9609
2024-10-11T13:59:54.478Z,0.0332,-1.0040,0.1303,-0.1229,0.0956,-0.0897,0.0273,-0.0743,0.0252,2.8261,1.4457,2.9667
2024-10-11T13:59:54.488Z,0.0312,-1.0011,0.1366,-0.1229,0.0956,-0.0897,0.0249,-0.0814,0.0254,2.8261,1.4457,2.9667
2024-10-11T13:59:54.497Z,0.0265,-1.0003,0.1286,-0.1229,0.0956,-0.0897,0.0249,-0.0814,0.0254,2.8261,1.4457,2.9667
2024-10-11T13:59:54.506Z,0.0314,-1.0005,0.1236,-0.1177,0.0642,0.0212,0.0264,-0.0890,0.0222,2.8191,1.4451,2.9710
2024-10-11T13:59:54.517Z,0.0323,-0.9975,0.1247,-0.1177,0.0642,0.0212,0.0168,-0.0907,0.0258,2.8191,1.4451,2.9710
2024-10-11T13:59:54.528Z,0.0268,-0.9951,0.1372,-0.1177,0.0642,0.0212,0.0103,-0.0909,0.0238,2.8191,1.4451,2.9710
2024-10-11T13:59:54.537Z,0.0230,-0.9937,0.1427,-0.0010,0.0019,-0.1936,0.0063,-0.0897,0.0248,2.8129,1.4448,2.9741
2024-10-11T13:59:54.548Z,0.0221,-0.9915,0.1392,-0.0010,0.0019,-0.1936,0.0063,-0.0897,0.0248,2.8129,1.4448,2.9741
2024-10-11T13:59:54.558Z,0.0261,-0.9869,0.1388,-0.0010,0.0019,-0.1936,-0.0001,-0.0831,0.0260,2.8129,1.4448,2.9741
2024-10-11T13:59:54.568Z,0.0310,-0.9853,0.1417,-0.0636,-0.0792,-0.1906,-0.0048,-0.0793,0.0230,2.8070,1.4448,2.9771
2024-10-11T13:59:54.577Z,0.0259,-0.9841,0.1426,-0.0636,-0.0792,-0.1906,-0.0085,-0.0736,0.0258,2.8070,1.4448,2.9771
2024-10-11T13:59:54.587Z,0.0182,-0.9845,0.1466,-0.0636,-0.0792,-0.1906,-0.0149,-0.0655,0.0231,2.8070,1.4448,2.9771
2024-10-11T13:59:54.597Z,0.0181,-0.9813,0.1470,-0.0560,-0.0970,-0.1828,-0.0149,-0.0655,0.0231,2.8014,1.4452,2.9804
2024-10-11T13:59:54.606Z,0.0266,-0.9827,0.1401,-0.0560,-0.0970,-0.1828,-0.0180,-0.0586,0.0268,2.8014,1.4452,2.9804
2024-10-11T13:59:54.618Z,0.0108,-0.9851,0.1246,-0.0560,-0.0970,-0.1828,-0.0215,-0.0536,0.0208,2.8014,1.4452,2.9804
2024-10-11T13:59:54.627Z,0.0108,-0.9851,0.1246,0.1177,-0.0484,0.0117,-0.0210,-0.0498,0.0188,2.7965,1.4459,2.9833
2024-10-11T13:59:54.637Z,0.0060,-0.9889,0.1189,0.1177,-0.0484,0.0117,-0.0169,-0.0481,0.0169,2.7965,1.4459,2.9833
2024-10-11T13:59:54.648Z,0.0075,-0.9861,0.1104,0.1177,-0.0484,0.0117,-0.0170,-0.0456,0.0180,2.7965,1.4459,2.9833
2024-10-11T13:59:54.657Z,0.0081,-0.9851,0.1057,0.1071,-0.1223,0.1643,-0.0157,-0.0415,0.0150,2.7928,1.4465,2.9853
2024-10-11T13:59:54.667Z,0.0114,-0.9785,0.1074,0.1071,-0.1223,0.1643,-0.0157,-0.0421,0.0145,2.7928,1.4465,2.9853
2024-10-11T13:59:54.677Z,0.0194,-0.9829,0.1052,0.1071,-0.1223,0.1643,-0.0149,-0.0404,0.0144,2.7928,1.4465,2.9853
2024-10-11T13:59:54.688Z,0.0162,-0.9940,0.1044,0.0081,-0.0098,0.1607,-0.0140,-0.0421,0.0139,2.7896,1.4470,2.9870
2024-10-11T13:59:54.698Z,0.0162,-0.9940,0.1044,0.0081,-0.0098,0.1607,-0.0117,-0.0434,0.0099,2.7896,1.4470,2.9870
2024-10-11T13:59:54.707Z,0.0086,-0.9973,0.1052,0.0081,-0.0098,0.1607,-0.0111,-0.0408,0.0105,2.7896,1.4470,2.9870
2024-10-11T13:59:54.718Z,0.0099,-0.9972,0.1095,0.0449,0.0432,0.1125,-0.0074,-0.0452,0.0096,2.7871,1.4474,2.9879
2024-10-11T13:59:54.727Z,0.0177,-0.9978,0.1108,0.0449,0.0432,0.1125,-0.0089,-0.0442,0.0083,2.7871,1.4474,2.9879
2024-10-11T13:59:54.737Z,0.0224,-0.9983,0.1198,0.0449,0.0432,0.1125,-0.0097,-0.0436,0.0085,2.7871,1.4474,2.9879
2024-10-11T13:59:54.749Z,0.0224,-0.9983,0.1198,-0.0593,0.0447,-0.0074,-0.0095,-0.0462,0.0082,2.7852,1.4476,2.9882
2024-10-11T13:59:54.757Z,0.0260,-0.9956,0.1271,-0.0593,0.0447,-0.0074,-0.0117,-0.0423,0.0078,2.7852,1.4476,2.9882
2024-10-11T13:59:54.768Z,0.0279,-0.9944,0.1317,-0.0593,0.0447,-0.0074,-0.0177,-0.0428,0.0072,2.7852,1.4476,2.9882
2024-10-11T13:59:54.778Z,0.0308,-0.9837,0.1480,-0.0926,-0.0522,-0.2430,-0.0185,-0.0377,0.0097,2.7838,1.4481,2.9882
2024-10-11T13:59:54.787Z,0.0308,-0.9837,0.1480,-0.0926,-0.0522,-0.2430,-0.0224,-0.0369,0.0079,2.7838,1.4481,2.9882
2024-10-11T13:59:54.798Z,0.0380,-0.9839,0.1488,-0.0926,-0.0522,-0.2430,-0.0284,-0.0280,0.0080,2.7838,1.4481,2.9882
2024-10-11T13:59:54.807Z,0.0285,-0.9884,0.1500,-0.0113,-0.0515,-0.2570,-0.0325,-0.0166,0.0070,2.7826,1.4489,2.9881
2024-10-11T13:59:54.817Z,0.0259,-0.9849,0.1350,-0.0113,-0.0515,-0.2570,-0.0325,-0.0166,0.0070,2.7826,1.4489,2.9881
2024-10-11T13:59:54.828Z,0.0295,-0.9820,0.1304,-0.0113,-0.0515,-0.2570,-0.0355,-0.0121,0.0047,2.7826,1.4489,2.9881
2024-10-11T13:59:54.838Z,0.0329,-0.9815,0.1244,-0.1255,-0.1108,-0.0772,-0.0342,-0.0083,0.0063,2.7819,1.4498,2.9881
2024-10-11T13:59:54.848Z,0.0382,-0.9845,0.1119,-0.1255,-0.1108,-0.0772,-0.0307,-0.0077,0.0102,2.7819,1.4498,2.9881
2024-10-11T13:59:54.857Z,0.0383,-0.9881,0.1079,-0.1255,-0.1108,-0.0772,-0.0292,-0.0090,0.0106,2.7819,1.4498,2.9881
2024-10-11T13:59:54.868Z,0.0265,-0.9849,0.1038,-0.1241,-0.0593,0.1304,-0.0321,-0.0058,0.0095,2.7808,1.4507,2.9888
2024-10-11T13:59:54.878Z,0.0200,-0.9822,0.1093,-0.1241,-0.0593,0.1304,-0.0310,-0.0020,0.0086,2.7808,1.4507,2.9888
2024-10-11T13:59:54.888Z,0.0134,-0.9818,0.1118,-0.1241,-0.0593,0.1304,-0.0319,-0.0062,0.0074,2.7808,1.4507,2.9888
2024-10-11T13:59:54.898Z,0.0134,-0.9818,0.1118,0.0620,-0.1233,-0.0045,-0.0277,-0.0104,0.0042,2.7799,1.4515,2.9892
2024-10-11T13:59:54.907Z,0.0107,-0.9816,0.1205,0.0620,-0.1233,-0.0045,-0.0281,-0.0188,0.0064,2.7799,1.4515,2.9892
2024-10-11T13:59:54.917Z,0.0089,-0.9874,0.1194,0.0620,-0.1233,-0.0045,-0.0266,-0.0245,-0.0046,2.7799,1.4515,2.9892
2024-10-11T13:59:54.927Z,-0.0026,-0.9989,0.1068,0.1857,0.0442,0.1043,-0.0232,-0.0273,-0.0066,2.7805,1.4523,2.9878
2024-10-11T13:59:54.938Z,0.0001,-1.0011,0.1025,0.1857,0.0442,0.1043,-0.0244,-0.0334,-0.0101,2.7805,1.4523,2.9878
2024-10-11T13:59:54.948Z,0.0001,-1.0011,0.1025,0.1857,0.0442,0.1043,-0.0226,-0.0399,-0.0139,2.7805,1.4523,2.9878
2024-10-11T13:59:54.957Z,-0.0068,-1.0069,0.1125,0.2223,0.1207,0.0553,-0.0214,-0.0424,-0.0189,2.7840,1.4529,2.9830
2024-10-11T13:59:54.967Z,-0.0068,-1.0069,0.1125,0.2223,0.1207,0.0553,-0.0181,-0.0400,-0.0236,2.7840,1.4529,2.9830
2024-10-11T13:59:54.978Z,0.0056,-1.0051,0.1167,0.2223,0.1207,0.0553,-0.0202,-0.0447,-0.0229,2.7840,1.4529,2.9830
2024-10-11T13:59:54.987Z,0.0174,-1.0027,0.1166,0.0491,0.1074,-0.0140,-0.0192,-0.0469,-0.0231,2.7897,1.4534,2.9757
2024-10-11T13:59:55.000Z,0.0197,-0.9993,0.1198,0.0491,0.1074,-0.0140,-0.0207,-0.0421,-0.0223,2.7897,1.4534,2.9757
2024-10-11T13:59:55.006Z,0.0197,-0.9993,0.1198,0.0491,0.1074,-0.0140,-0.0191,-0.0420,-0.0217,2.7897,1.4534,2.9757
2024-10-11T13:59:55.017Z,0.0236,-0.9991,0.1192,-0.0431,0.0487,-0.0519,-0.0227,-0.0426,-0.0232,2.7958,1.4539,2.9681
2024-10-11T13:59:55.027Z,0.0240,-0.9998,0.1147,-0.0431,0.0487,-0.0519,-0.0193,-0.0378,-0.0227,2.7958,1.4539,2.9681
2024-10-11T13:59:55.038Z,0.0256,-0.9990,0.1076,-0.0431,0.0487,-0.0519,-0.0192,-0.0362,-0.0220,2.7958,1.4539,2.9681
2024-10-11T13:59:55.050Z,0.0221,-0.9965,0.1038,-0.0339,0.0449,0.1125,-0.0200,-0.0341,-0.0229,2.8018,1.4543,2.9607
2024-10-11T13:59:55.057Z,0.0203,-0.9912,0.1132,-0.0339,0.0449,0.1125,-0.0135,-0.0321,-0.0238,2.8018,1.4543,2.9607
2024-10-11T13:59:55.067Z,0.0217,-0.9852,0.1135,-0.0339,0.0449,0.1125,-0.0181,-0.0291,-0.0243,2.8018,1.4543,2.9607
2024-10-11T13:59:55.077Z,0.0280,-0.9802,0.1183,-0.0335,-0.1147,-0.0362,-0.0157,-0.0241,-0.0224,2.8081,1.4547,2.9533
2024-10-11T13:59:55.087Z,0.0325,-0.9794,0.1226,-0.0335,-0.1147,-0.0362,-0.0214,-0.0195,-0.0217,2.8081,1.4547,2.9533
2024-10-11T13:59:55.097Z,0.0315,-0.9798,0.1207,-0.0335,-0.1147,-0.0362,-0.0199,-0.0166,-0.0202,2.8081,1.4547,2.9533
2024-10-11T13:59:55.107Z,0.0279,-0.9837,0.1200,-0.0767,-0.1142,-0.0761,-0.0180,-0.0169,-0.0202,2.8142,1.4551,2.9464
2024-10-11T13:59:55.117Z,0.0268,-0.9879,0.1130,-0.0767,-0.1142,-0.0761,-0.0177,-0.0187,-0.0215,2.8142,1.4551,2.9464
2024-10-11T13:59:55.127Z,0.0334,-0.9862,0.1143,-0.0767,-0.1142,-0.0761,-0.0186,-0.0152,-0.0184,2.8142,1.4551,2.9464
2024-10-11T13:59:55.137Z,0.0352,-0.9862,0.1127,-0.1217,-0.0821,-0.0126,-0.0188,-0.0086,-0.0153,2.8195,1.4555,2.9404
2024-10-11T13:59:55.147Z,0.0372,-0.9863,0.1119,-0.1217,-0.0821,-0.0126,-0.0212,-0.0050,-0.0141,2.8195,1.4555,2.9404
2024-10-11T13:59:55.157Z,0.0371,-0.9846,0.1181,-0.1217,-0.0821,-0.0126,-0.0167,-0.0016,-0.0116,2.8195,1.4555,2.9404
2024-10-11T13:59:55.167Z,0.0371,-0.9846,0.1181,-0.1448,-0.0974,-0.0261,-0.0184,-0.0017,-0.0112,2.8236,1.4559,2.9359
2024-10-11T13:59:55.177Z,0.0327,-0.9834,0.1152,-0.1448,-0.0974,-0.0261,-0.0203,0.0049,-0.0103,2.8236,1.4559,2.9359
2024-10-11T13:59:55.188Z,0.0204,-0.9846,0.1168,-0.1448,-0.0974,-0.0261,-0.0214,0.0054,-0.0120,2.8236,1.4559,2.9359
2024-10-11T13:59:55.197Z,0.0155,-0.9893,0.1190,0.0814,-0.0618,-0.0534,-0.0244,0.0071,-0.0119,2.8272,1.4564,2.9322
2024-10-11T13:59:55.206Z,0.0155,-0.9893,0.1190,0.0814,-0.0618,-0.0534,-0.0226,0.0077,-0.0151,2.8272,1.4564,2.9322
2024-10-11T13:59:55.217Z,0.0143,-1.0021,0.1069,0.0814,-0.0618,-0.0534,-0.0236,0.0120,-0.0186,2.8272,1.4564,2.9322
2024-10-11T13:59:55.227Z,0.0162,-1.0018,0.1056,0.0960,0.0919,0.0669,-0.0178,0.0120,-0.0176,2.8319,1.4569,2.9275
2024-10-11T13:59:55.237Z,0.0192,-1.0008,0.1000,0.0960,0.0919,0.0669,-0.0162,0.0094,-0.0179,2.8319,1.4569,2.9275
2024-10-11T13:59:55.247Z,0.0140,-0.9977,0.0965,0.0960,0.0919,0.0669,-0.0165,0.0152,-0.0210,2.8319,1.4569,2.9275
2024-10-11T13:59:55.257Z,0.0172,-0.9968,0.0970,0.0905,0.0228,0.1277,-0.0097,0.0146,-0.0191,2.8375,1.4572,2.9221
2024-10-11T13:59:55.268Z,0.0252,-0.9970,0.0934,0.0905,0.0228,0.1277,-0.0100,0.0144,-0.0198,2.8375,1.4572,2.9221
2024-10-11T13:59:55.277Z,0.0314,-0.9959,0.0938,0.0905,0.0228,0.1277,-0.0066,0.0173,-0.0160,2.8375,1.4572,2.9221
2024-10-11T13:59:55.287Z,0.0332,-0.9987,0.0922,-0.0806,0.0375,0.1444,-0.0057,0.0218,-0.0176,2.8421,1.4573,2.9177
2024-10-11T13:59:55.297Z,0.0341,-1.0002,0.0897,-0.0806,0.0375,0.1444,-0.0021,0.0233,-0.0138,2.8421,1.4573,2.9177
2024-10-11T13:59:55.306Z,0.0341,-1.0002,0.0897,-0.0806,0.0375,0.1444,0.0012,0.0255,-0.0130,2.8421,1.4573,2.9177
2024-10-11T13:59:55.316Z,0.0392,-1.0007,0.0952,-0.1340,0.1048,0.1331,0.0018,0.0325,-0.0094,2.8451,1.4573,2.9153
2024-10-11T13:59:55.327Z,0.0397,-1.0112,0.0989,-0.1340,0.1048,0.1331,-0.0002,0.0412,-0.0092,2.8451,1.4573,2.9153
2024-10-11T13:59:55.337Z,0.0414,-1.0115,0.1013,-0.1340,0.1048,0.1331,0.0036,0.0450,-0.0055,2.8451,1.4573,2.9153
2024-10-11T13:59:55.347Z,0.0390,-1.0086,0.1018,-0.1539,0.1634,0.0844,0.0031,0.0454,-0.0034,2.8464,1.4571,2.9149
2024-10-11T13:59:55.357Z,0.0312,-1.0062,0.1113,-0.1539,0.1634,0.0844,0.0041,0.0434,-0.0029,2.8464,1.4571,2.9149
2024-10-11T13:59:55.367Z,0.0312,-1.0062,0.1113,-0.1539,0.1634,0.0844,0.0037,0.0459,-0.0019,2.8464,1.4571,2.9149
2024-10-11T13:59:55.377Z,0.0331,-1.0102,0.1111,-0.1003,0.1836,-0.0009,0.0056,0.0458,-0.0026,2.8466,1.4570,2.9158
2024-10-11T13:59:55.387Z,0.0319,-1.0106,0.1112,-0.1003,0.1836,-0.0009,0.0027,0.0466,0.0008,2.8466,1.4570,2.9158
2024-10-11T13:59:55.397Z,0.0308,-1.0109,0.1048,-0.1003,0.1836,-0.0009,0.0036,0.0442,-0.0011,2.8466,1.4570,2.9158
2024-10-11T13:59:55.406Z,0.0269,-1.0052,0.1011,-0.0278,0.1441,0.0853,0.0080,0.0451,-0.0008,2.8464,1.4569,2.9171
2024-10-11T13:59:55.417Z,0.0269,-1.0052,0.1011,-0.0278,0.1441,0.0853,0.0066,0.0459,-0.0025,2.8464,1.4569,2.9171
2024-10-11T13:59:55.428Z,0.0290,-0.9936,0.0910,-0.0278,0.1441,0.0853,0.0116,0.0470,-0.0017,2.8464,1.4569,2.9171
2024-10-11T13:59:55.437Z,0.0302,-0.9907,0.0889,-0.0535,-0.0276,0.2078,0.0127,0.0463,-0.0021,2.8461,1.4566,2.9186
2024-10-11T13:59:55.447Z,0.0230,-0.9891,0.0812,-0.0535,-0.0276,0.2078,0.0162,0.0459,-0.0053,2.8461,1.4566,2.9186
2024-10-11T13:59:55.457Z,0.0175,-0.9863,0.0791,-0.0535,-0.0276,0.2078,0.0227,0.0432,-0.0062,2.8461,1.4566,2.9186
2024-10-11T13:59:55.467Z,0.0175,-0.9863,0.0791,0.0749,-0.0886,0.3811,0.0241,0.0468,-0.0061,2.8462,1.4561,2.9196
2024-10-11T13:59:55.477Z,0.0186,-0.9862,0.0669,0.0749,-0.0886,0.3811,0.0274,0.0436,-0.0119,2.8462,1.4561,2.9196
2024-10-11T13:59:55.486Z,0.0194,-0.9932,0.0650,0.0749,-0.0886,0.3811,0.0319,0.0411,-0.0117,2.8462,1.4561,2.9196
2024-10-11T13:59:55.497Z,0.0257,-0.9985,0.0747,0.0129,0.0451,0.4406,0.0361,0.0400,-0.0117,2.8462,1.4551,2.9206
2024-10-11T13:59:55.506Z,0.0256,-0.9998,0.0867,0.0129,0.0451,0.4406,0.0383,0.0415,-0.0140,2.8462,1.4551,2.9206
2024-10-11T13:59:55.516Z,0.0256,-0.9998,0.0867,0.0129,0.0451,0.4406,0.0382,0.0429,-0.0140,2.8462,1.4551,2.9206
2024-10-11T13:59:55.526Z,0.0289,-1.0139,0.1120,0.0363,0.1816,0.0307,0.0387,0.0453,-0.0100,2.8468,1.4539,2.9210
2024-10-11T13:59:55.537Z,0.0406,-1.0170,0.1142,0.0363,0.1816,0.0307,0.0365,0.0432,-0.0099,2.8468,1.4539,2.9210
2024-10-11T13:59:55.547Z,0.0425,-1.0149,0.1134,0.0363,0.1816,0.0307,0.0381,0.0420,-0.0106,2.8468,1.4539,2.9210
2024-10-11T13:59:55.557Z,0.0445,-1.0179,0.1262,-0.1734,0.2342,-0.0776,0.0341,0.0405,-0.0093,2.8468,1.4528,2.9219
2024-10-11T13:59:55.566Z,0.0445,-1.0179,0.1262,-0.1734,0.2342,-0.0776,0.0328,0.0431,-0.0075,2.8468,1.4528,2.9219
2024-10-11T13:59:55.577Z,0.0516,-1.0111,0.1320,-0.1734,0.2342,-0.0776,0.0289,0.0494,-0.0036,2.8468,1.4528,2.9219
2024-10-11T13:59:55.587Z,0.0573,-1.0076,0.1329,-0.3002,0.1657,-0.1890,0.0315,0.0524,-0.0030,2.8462,1.4518,2.9236
2024-10-11T13:59:55.597Z,0.0553,-1.0059,0.1253,-0.3002,0.1657,-0.1890,0.0297,0.0530,0.0027,2.8462,1.4518,2.9236
2024-10-11T13:59:55.607Z,0.0476,-1.0059,0.1272,-0.3002,0.1657,-0.1890,0.0314,0.0552,0.0026,2.8462,1.4518,2.9236
2024-10-11T13:59:55.618Z,0.0519,-1.0066,0.1200,-0.2532,0.1416,-0.0590,0.0316,0.0520,0.0068,2.8437,1.4510,2.9274
2024-10-11T13:59:55.627Z,0.0476,-1.0015,0.1229,-0.2532,0.1416,-0.0590,0.0339,0.0547,0.0070,2.8437,1.4510,2.9274
2024-10-11T13:59:55.637Z,0.0397,-1.0014,0.1205,-0.2532,0.1416,-0.0590,0.0340,0.0501,0.0026,2.8437,1.4510,2.9274
2024-10-11T13:59:55.647Z,0.0400,-0.9955,0.1122,-0.1411,0.0619,0.0209,0.0328,0.0505,0.0023,2.8405,1.4500,2.9318
2024-10-11T13:59:55.657Z,0.0360,-0.9866,0.1176,-0.1411,0.0619,0.0209,0.0340,0.0472,0.0010,2.8405,1.4500,2.9318
2024-10-11T13:59:55.667Z,0.0326,-0.9832,0.1099,-0.1411,0.0619,0.0209,0.0311,0.0514,0.0004,2.8405,1.4500,2.9318
2024-10-11T13:59:55.677Z,0.0283,-0.9807,0.1053,-0.0195,-0.1124,0.1392,0.0338,0.0439,-0.0014,2.8381,1.4490,2.9354
2024-10-11T13:59:55.687Z,0.0333,-0.9794,0.1108,-0.0195,-0.1124,0.1392,0.0336,0.0443,-0.0052,2.8381,1.4490,2.9354
2024-10-11T13:59:55.697Z,0.0232,-0.9824,0.1164,-0.0195,-0.1124,0.1392,0.0319,0.0421,-0.0058,2.8381,1.4490,2.9354
2024-10-11T13:59:55.706Z,0.0245,-0.9845,0.1166,0.0358,-0.0917,0.0507,0.0313,0.0398,-0.0056,2.8373,1.4480,2.9373
2024-10-11T13:59:55.717Z,0.0245,-0.9845,0.1166,0.0358,-0.0917,0.0507,0.0279,0.0445,-0.0048,2.8373,1.4480,2.9373
2024-10-11T13:59:55.727Z,0.0405,-0.9899,0.1302,0.0358,-0.0917,0.0507,0.0271,0.0447,-0.0043,2.8373,1.4480,2.9373
2024-10-11T13:59:55.737Z,0.0482,-0.9957,0.1319,-0.1864,0.0047,-0.1211,0.0236,0.0408,-0.0019,2.8369,1.4472,2.9386
2024-10-11T13:59:55.747Z,0.0514,-0.9957,0.1271,-0.1864,0.0047,-0.1211,0.0243,0.0390,0.0005,2.8369,1.4472,2.9386
2024-10-11T13:59:55.757Z,0.0517,-0.9940,0.1250,-0.1864,0.0047,-0.1211,0.0224,0.0395,0.0021,2.8369,1.4472,2.9386
2024-10-11T13:59:55.767Z,0.0517,-0.9940,0.1250,-0.2628,-0.0073,-0.0658,0.0172,0.0396,0.0066,2.8355,1.4466,2.9410
2024-10-11T13:59:55.777Z,0.0459,-0.9847,0.1287,-0.2628,-0.0073,-0.0658,0.0147,0.0414,0.0067,2.8355,1.4466,2.9410
2024-10-11T13:59:55.787Z,0.0488,-0.9849,0.1243,-0.2628,-0.0073,-0.0658,0.0155,0.0399,0.0140,2.8355,1.4466,2.9410
2024-10-11T13:59:55.797Z,0.0462,-0.9926,0.1205,-0.2330,-0.0248,0.0184,0.0124,0.0413,0.0134,2.8323,1.4461,2.9452
2024-10-11T13:59:55.806Z,0.0413,-0.9922,0.1292,-0.2330,-0.0248,0.0184,0.0132,0.0350,0.0161,2.8323,1.4461,2.9452
2024-10-11T13:59:55.817Z,0.0413,-0.9922,0.1292,-0.2330,-0.0248,0.0184,0.0124,0.0383,0.0184,2.8323,1.4461,2.9452
2024-10-11T13:59:55.827Z,0.0393,-0.9911,0.1175,-0.1381,-0.0100,-0.0061,0.0151,0.0351,0.0194,2.8282,1.4458,2.9502
2024-10-11T13:59:55.837Z,0.0386,-0.9900,0.1183,-0.1381,-0.0100,-0.0061,0.0089,0.0267,0.0209,2.8282,1.4458,2.9502
2024-10-11T13:59:55.847Z,0.0365,-0.9866,0.1179,-0.1381,-0.0100,-0.0061,0.0087,0.0249,0.0188,2.8282,1.4458,2.9502
2024-10-11T13:59:55.857Z,0.0287,-0.9875,0.1235,-0.0844,-0.0548,0.0084,0.0094,0.0204,0.0192,2.8232,1.4455,2.9556
2024-10-11T13:59:55.868Z,0.0268,-0.9865,0.1214,-0.0844,-0.0548,0.0084,0.0052,0.0178,0.0212,2.8232,1.4455,2.9556
2024-10-11T13:59:55.877Z,0.0285,-0.9845,0.1306,-0.0844,-0.0548,0.0084,0.0037,0.0146,0.0261,2.8232,1.4455,2.9556
2024-10-11T13:59:55.887Z,0.0343,-0.9788,0.1301,-0.0856,-0.1026,-0.0548,0.0023,0.0100,0.0240,2.8179,1.4454,2.9612
2024-10-11T13:59:55.897Z,0.0364,-0.9758,0.1379,-0.0856,-0.1026,-0.0548,0.0009,0.0139,0.0242,2.8179,1.4454,2.9612
2024-10-11T13:59:55.906Z,0.0242,-0.9710,0.1411,-0.0856,-0.1026,-0.0548,-0.0010,0.0106,0.0235,2.8179,1.4454,2.9612
2024-10-11T13:59:55.916Z,0.0249,-0.9707,0.1434,-0.0293,-0.2100,-0.1988,-0.0039,0.0099,0.0260,2.8124,1.4455,2.9667
2024-10-11T13:59:55.927Z,0.0268,-0.9666,0.1431,-0.0293,-0.2100,-0.1988,-0.0077,0.0052,0.0239,2.8124,1.4455,2.9667
2024-10-11T13:59:55.937Z,0.0220,-0.9621,0.1480,-0.0293,-0.2100,-0.1988,-0.0127,0.0029,0.0232,2.8124,1.4455,2.9667
2024-10-11T13:59:55.947Z,0.0145,-0.9585,0.1458,0.0419,-0.3164,-0.2353,-0.0123,-0.0003,0.0236,2.8069,1.4458,2.9720
2024-10-11T13:59:55.957Z,0.0175,-0.9589,0.1374,0.0419,-0.3164,-0.2353,-0.0082,-0.0107,0.0241,2.8069,1.4458,2.9720
2024-10-11T13:59:55.967Z,0.0199,-0.9619,0.1330,0.0419,-0.3164,-0.2353,-0.0140,-0.0126,0.0229,2.8069,1.4458,2.9720
2024-10-11T13:59:55.977Z,0.0090,-0.9657,0.1243,0.0708,-0.2683,-0.0278,-0.0137,-0.0153,0.0208,2.8016,1.4462,2.9768
2024-10-11T13:59:55.987Z,-0.0011,-0.9673,0.1258,0.0708,-0.2683,-0.0278,-0.0128,-0.0210,0.0209,2.8016,1.4462,2.9768
2024-10-11T13:59:55.997Z,0.0016,-0.9700,0.1200,0.0708,-0.2683,-0.0278,-0.0119,-0.0237,0.0155,2.8016,1.4462,2.9768
2024-10-11T13:59:56.006Z,0.0129,-0.9726,0.1166,0.1187,-0.2133,0.0119,-0.0125,-0.0280,0.0191,2.7973,1.4466,2.9801
2024-10-11T13:59:56.016Z,0.0175,-0.9780,0.1121,0.1187,-0.2133,0.0119,-0.0106,-0.0310,0.0159,2.7973,1.4466,2.9801
2024-10-11T13:59:56.027Z,0.0075,-0.9857,0.1036,0.1187,-0.2133,0.0119,-0.0108,-0.0317,0.0174,2.7973,1.4466,2.9801
2024-10-11T13:59:56.037Z,0.0091,-0.9921,0.0957,0.1306,-0.0289,0.2264,-0.0125,-0.0268,0.0157,2.7935,1.4469,2.9828
2024-10-11T13:59:56.047Z,0.0223,-0.9926,0.0984,0.1306,-0.0289,0.2264,-0.0126,-0.0220,0.0166,2.7935,1.4469,2.9828
2024-10-11T13:59:56.057Z,0.0185,-0.9960,0.1099,0.1306,-0.0289,0.2264,-0.0132,-0.0175,0.0147,2.7935,1.4469,2.9828
2024-10-11T13:59:56.068Z,0.0139,-0.9996,0.1118,0.0565,0.0565,0.1021,-0.0146,-0.0142,0.0150,2.7897,1.4473,2.9856
2024-10-11T13:59:56.077Z,0.0231,-0.9996,0.1095,0.0565,0.0565,0.1021,-0.0171,-0.0127,0.0137,2.7897,1.4473,2.9856
2024-10-11T13:59:56.087Z,0.0243,-1.0016,0.1145,0.0565,0.0565,0.1021,-0.0187,-0.0138,0.0137,2.7897,1.4473,2.9856
2024-10-11T13:59:56.096Z,0.0222,-1.0022,0.1171,-0.0569,0.1034,0.0465,-0.0182,-0.0083,0.0151,2.7864,1.4478,2.9882
2024-10-11T13:59:56.106Z,0.0166,-0.9992,0.1261,-0.0569,0.1034,0.0465,-0.0182,-0.0102,0.0129,2.7864,1.4478,2.9882
2024-10-11T13:59:56.117Z,0.0155,-0.9978,0.1320,-0.0569,0.1034,0.0465,-0.0218,-0.0128,0.0121,2.7864,1.4478,2.9882
2024-10-11T13:59:56.127Z,0.0173,-0.9983,0.1326,0.0219,0.0561,-0.1028,-0.0198,-0.0143,0.0107,2.7836,1.4485,2.9904
2024-10-11T13:59:56.136Z,0.0217,-1.0012,0.1287,0.0219,0.0561,-0.1028,-0.0213,-0.0150,0.0106,2.7836,1.4485,2.9904
2024-10-11T13:59:56.147Z,0.0217,-1.0017,0.1294,0.0219,0.0561,-0.1028,-0.0203,-0.0107,0.0084,2.7836,1.4485,2.9904
2024-10-11T13:59:56.157Z,0.0133,-0.9971,0.1297,0.0133,0.0723,-0.0927,-0.0218,-0.0071,0.0096,2.7814,1.4492,2.9920
2024-10-11T13:59:56.167Z,0.0119,-0.9915,0.1292,0.0133,0.0723,-0.0927,-0.0211,-0.0076,0.0054,2.7814,1.4492,2.9920
2024-10-11T13:59:56.177Z,0.0127,-0.9883,0.1273,0.0133,0.0723,-0.0927,-0.0245,-0.0068,0.0052,2.7814,1.4492,2.9920
2024-10-11T13:59:56.186Z,0.0070,-0.9845,0.1207,0.0889,-0.0673,-0.0668,-0.0268,-0.0059,0.0067,2.7800,1.4499,2.9928
2024-10-11T13:59:56.197Z,0.0074,-0.9794,0.1114,0.0889,-0.0673,-0.0668,-0.0273,-0.0083,0.0020,2.7800,1.4499,2.9928
2024-10-11T13:59:56.206Z,0.0089,-0.9799,0.1057,0.0889,-0.0673,-0.0668,-0.0240,-0.0109,0.0006,2.7800,1.4499,2.9928
2024-10-11T13:59:56.217Z,0.0013,-0.9843,0.1025,0.1286,-0.1124,0.1242,-0.0215,-0.0096,-0.0019,2.7799,1.4506,2.9925
2024-10-11T13:59:56.227Z,-0.0029,-0.9850,0.0902,0.1286,-0.1124,0.1242,-0.0199,-0.0068,-0.0053,2.7799,1.4506,2.9925
2024-10-11T13:59:56.237Z,-0.0015,-0.9861,0.0907,0.1286,-0.1124,0.1242,-0.0216,-0.0019,-0.0085,2.7799,1.4506,2.9925
2024-10-11T13:59:56.247Z,-0.0047,-0.9859,0.0977,0.2082,-0.0626,0.2253,-0.0215,-0.0012,-0.0101,2.7815,1.4511,2.9905
2024-10-11T13:59:56.256Z,-0.0043,-0.9848,0.1020,0.2082,-0.0626,0.2253,-0.0203,-0.0060,-0.0122,2.7815,1.4511,2.9905
2024-10-11T13:59:56.267Z,-0.0078,-0.9882,0.1008,0.2082,-0.0626,0.2253,-0.0214,-0.0052,-0.0170,2.7815,1.4511,2.9905
2024-10-11T13:59:56.277Z,-0.0028,-0.9903,0.1042,0.2424,-0.0336,0.1482,-0.0195,-0.0086,-0.0190,2.7850,1.4516,2.9866
2024-10-11T13:59:56.286Z,0.0071,-0.9916,0.1068,0.2424,-0.0336,0.1482,-0.0234,-0.0078,-0.0240,2.7850,1.4516,2.9866
2024-10-11T13:59:56.297Z,0.0082,-0.9985,0.1087,0.2424,-0.0336,0.1482,-0.0211,-0.0076,-0.0235,2.7850,1.4516,2.9866
2024-10-11T13:59:56.306Z,0.0090,-1.0025,0.1119,0.1042,0.0763,0.0667,-0.0194,-0.0065,-0.0253,2.7904,1.4522,2.9807
2024-10-11T13:59:56.318Z,0.0154,-1.0097,0.1083,0.1042,0.0763,0.0667,-0.0205,-0.0056,-0.0261,2.7904,1.4522,2.9807
2024-10-11T13:59:56.327Z,0.0206,-1.0159,0.1101,0.1042,0.0763,0.0667,-0.0186,-0.0053,-0.0267,2.7904,1.4522,2.9807
2024-10-11T13:59:56.336Z,0.0215,-1.0149,0.1132,-0.0231,0.2324,0.0608,-0.0189,-0.0026,-0.0286,2.7970,1.4527,2.9738
2024-10-11T13:59:56.347Z,0.0204,-1.0124,0.1239,-0.0231,0.2324,0.0608,-0.0198,-0.0005,-0.0303,2.7970,1.4527,2.9738
2024-10-11T13:59:56.357Z,0.0259,-1.0069,0.1290,-0.0231,0.2324,0.0608,-0.0192,0.0012,-0.0290,2.7970,1.4527,2.9738
2024-10-11T13:59:56.367Z,0.0327,-1.0069,0.1280,-0.0938,0.1385,-0.1360,-0.0209,0.0073,-0.0271,2.8039,1.4531,2.9666
2024-10-11T13:59:56.377Z,0.0355,-1.0062,0.1250,-0.0938,0.1385,-0.1360,-0.0186,0.0018,-0.0236,2.8039,1.4531,2.9666
2024-10-11T13:59:56.386Z,0.0325,-1.0112,0.1240,-0.0938,0.1385,-0.1360,-0.0172,0.0034,-0.0223,2.8039,1.4531,2.9666
2024-10-11T13:59:56.396Z,0.0280,-1.0139,0.1250,-0.0872,0.2018,-0.0934,-0.0206,0.0068,-0.0213,2.8103,1.4536,2.9602
2024-10-11T13:59:56.406Z,0.0306,-1.0134,0.1256,-0.0872,0.2018,-0.0934,-0.0206,0.0046,-0.0202,2.8103,1.4536,2.9602
2024-10-11T13:59:56.417Z,0.0244,-1.0095,0.1249,-0.0872,0.2018,-0.0934,-0.0197,0.0027,-0.0203,2.8103,1.4536,2.9602
2024-10-11T13:59:56.427Z,0.0219,-1.0096,0.1234,-0.0031,0.1618,-0.0955,-0.0216,0.0044,-0.0191,2.8157,1.4540,2.9547
2024-10-11T13:59:56.437Z,0.0274,-1.0132,0.1193,-0.0031,0.1618,-0.0955,-0.0208,0.0053,-0.0185,2.8157,1.4540,2.9547
2024-10-11T13:59:56.447Z,0.0289,-1.0145,0.1088,-0.0031,0.1618,-0.0955,-0.0195,0.0091,-0.0173,2.8157,1.4540,2.9547
2024-10-11T13:59:56.457Z,0.0323,-1.0152,0.0974,-0.0912,0.2046,0.0955,-0.0165,0.0105,-0.0147,2.8209,1.4544,2.9495
2024-10-11T13:59:56.467Z,0.0349,-1.0137,0.1013,-0.0912,0.2046,0.0955,-0.0137,0.0151,-0.0130,2.8209,1.4544,2.9495
2024-10-11T13:59:56.477Z,0.0364,-1.0154,0.1041,-0.0912,0.2046,0.0955,-0.0116,0.0166,-0.0132,2.8209,1.4544,2.9495
2024-10-11T13:59:56.486Z,0.0351,-1.0203,0.0952,-0.1119,0.2418,0.1427,-0.0107,0.0217,-0.0098,2.8249,1.4547,2.9457
2024-10-11T13:59:56.497Z,0.0453,-1.0221,0.0928,-0.1119,0.2418,0.1427,-0.0060,0.0231,-0.0069,2.8249,1.4547,2.9457
2024-10-11T13:59:56.506Z,0.0401,-1.0233,0.1045,-0.1119,0.2418,0.1427,-0.0076,0.0277,-0.0063,2.8249,1.4547,2.9457
2024-10-11T13:59:56.517Z,0.0264,-1.0259,0.1025,-0.0728,0.3209,0.0953,-0.0040,0.0311,-0.0072,2.8264,1.4548,2.9448
2024-10-11T13:59:56.527Z,0.0286,-1.0285,0.0977,-0.0728,0.3209,0.0953,-0.0027,0.0345,-0.0030,2.8264,1.4548,2.9448
2024-10-11T13:59:56.539Z,0.0374,-1.0225,0.0998,-0.1518,0.2769,0.1279,-0.0017,0.0409,0.0002,2.8270,1.4549,2.9450
2024-10-11T13:59:56.547Z,0.0373,-1.0204,0.1025,-0.1518,0.2769,0.1279,-0.0024,0.0443,0.0008,2.8270,1.4549,2.9450
2024-10-11T13:59:56.558Z,0.0398,-1.0174,0.1012,-0.1518,0.2769,0.1279,0.0018,0.0406,0.0037,2.8270,1.4549,2.9450
2024-10-11T13:59:56.567Z,0.0286,-1.0209,0.0977,-0.1518,0.2769,0.1279,0.0035,0.0420,0.0012,2.8270,1.4549,2.9450
2024-10-11T13:59:56.577Z,0.0263,-1.0191,0.0960,-0.0107,0.2709,0.1874,0.0023,0.0378,0.0024,2.8262,1.4549,2.9467
2024-10-11T13:59:56.586Z,0.0297,-1.0199,0.0942,-0.0107,0.2709,0.1874,0.0060,0.0313,0.0008,2.8262,1.4549,2.9467
2024-10-11T13:59:56.597Z,0.0216,-1.0204,0.1017,-0.0107,0.2709,0.1874,0.0061,0.0385,-0.0011,2.8262,1.4549,2.9467
2024-10-11T13:59:56.606Z,0.0213,-1.0204,0.0955,0.0193,0.2591,0.1412,0.0083,0.0339,-0.0019,2.8258,1.4548,2.9479
2024-10-11T13:59:56.617Z,0.0251,-1.0211,0.0957,0.0193,0.2591,0.1412,0.0035,0.0351,-0.0014,2.8258,1.4548,2.9479
2024-10-11T13:59:56.627Z,0.0334,-1.0172,0.1019,0.0193,0.2591,0.1412,0.0065,0.0297,-0.0023,2.8258,1.4548,2.9479
2024-10-11T13:59:56.636Z,0.0266,-1.0164,0.1038,-0.0903,0.2275,0.0597,0.0062,0.0308,-0.0029,2.8259,1.4546,2.9486
2024-10-11T13:59:56.647Z,0.0179,-1.0148,0.0961,-0.0903,0.2275,0.0597,0.0066,0.0320,-0.0047,2.8259,1.4546,2.9486
2024-10-11T13:59:56.657Z,0.0267,-1.0141,0.0993,-0.0903,0.2275,0.0597,0.0057,0.0264,-0.0054,2.8259,1.4546,2.9486
2024-10-11T13:59:56.667Z,0.0298,-1.0117,0.1093,-0.0831,0.1912,0.0722,0.0050,0.0251,-0.0047,2.8264,1.4544,2.9488
2024-10-11T13:59:56.677Z,0.0238,-1.0065,0.1128,-0.0831,0.1912,0.0722,0.0022,0.0257,-0.0053,2.8264,1.4544,2.9488
2024-10-11T13:59:56.687Z,0.0190,-1.0061,0.1084,-0.0831,0.1912,0.0722,0.0021,0.0209,-0.0060,2.8264,1.4544,2.9488
2024-10-11T13:59:56.697Z,0.0183,-1.0016,0.1121,0.0438,0.1090,0.0368,-0.0004,0.0198,-0.0146,2.8279,1.4543,2.9477
2024-10-11T13:59:56.706Z,0.0183,-0.9987,0.1198,0.0438,0.1090,0.0368,-0.0008,0.0187,-0.0109,2.8279,1.4543,2.9477
2024-10-11T13:59:56.719Z,0.0164,-0.9933,0.1119,0.0746,-0.0474,0.0560,0.0004,0.0163,-0.0103,2.8304,1.4543,2.9455
2024-10-11T13:59:56.727Z,0.0154,-0.9862,0.1055,0.0746,-0.0474,0.0560,0.0002,0.0161,-0.0127,2.8304,1.4543,2.9455
2024-10-11T13:59:56.737Z,0.0181,-0.9819,0.0977,0.0746,-0.0474,0.0560,0.0000,0.0147,-0.0130,2.8304,1.4543,2.9455
2024-10-11T13:59:56.748Z,0.0193,-0.9768,0.0999,0.0393,-0.1729,0.2036,-0.0006,0.0136,-0.0148,2.8334,1.4542,2.9426
2024-10-11T13:59:56.757Z,0.0176,-0.9742,0.0899,0.0393,-0.1729,0.2036,0.0011,0.0109,-0.0164,2.8334,1.4542,2.9426
2024-10-11T13:59:56.768Z,0.0192,-0.9697,0.0853,0.0393,-0.1729,0.2036,0.0017,0.0083,-0.0194,2.8334,1.4542,2.9426
2024-10-11T13:59:56.778Z,0.0260,-0.9672,0.0869,-0.0891,-0.2564,0.2899,0.0071,0.0083,-0.0192,2.8371,1.4539,2.9389
2024-10-11T13:59:56.787Z,0.0349,-0.9655,0.0831,-0.0891,-0.2564,0.2899,0.0075,0.0063,-0.0188,2.8371,1.4539,2.9389
2024-10-11T13:59:56.797Z,0.0308,-0.9599,0.0783,-0.0891,-0.2564,0.2899,0.0105,0.0094,-0.0170,2.8371,1.4539,2.9389
2024-10-11T13:59:56.806Z,0.0328,-0.9575,0.0772,-0.0891,-0.2564,0.2899,0.0122,0.0071,-0.0185,2.8371,1.4539,2.9389
2024-10-11T13:59:56.817Z,0.0390,-0.9542,0.0779,-0.1279,-0.3640,0.3785,0.0150,0.0053,-0.0145,2.8402,1.4535,2.9358
2024-10-11T13:59:56.827Z,0.0370,-0.9514,0.0802,-0.1279,-0.3640,0.3785,0.0185,0.0065,-0.0156,2.8402,1.4535,2.9358
2024-10-11T13:59:56.838Z,0.0372,-0.9472,0.0761,-0.1043,-0.4766,0.3906,0.0193,0.0017,-0.0133,2.8423,1.4530,2.9336
2024-10-11T13:59:56.847Z,0.0346,-0.9434,0.0793,-0.1043,-0.4766,0.3906,0.0213,0.0000,-0.0134,2.8423,1.4530,2.9336
2024-10-11T13:59:56.857Z,0.0391,-0.9406,0.0864,-0.1043,-0.4766,0.3906,0.0204,-0.0009,-0.0094,2.8423,1.4530,2.9336
2024-10-11T13:59:56.869Z,0.0443,-0.9443,0.0952,-0.2193,-0.4841,0.1615,0.0194,-0.0042,-0.0087,2.8438,1.4524,2.9318
2024-10-11T13:59:56.876Z,0.0488,-0.9446,0.1019,-0.2193,-0.4841,0.1615,0.0180,-0.0034,-0.0063,2.8438,1.4524,2.9318
2024-10-11T13:59:56.887Z,0.0516,-0.9457,0.1047,-0.2193,-0.4841,0.1615,0.0149,-0.0032,-0.0038,2.8438,1.4524,2.9318
2024-10-11T13:59:56.898Z,0.0535,-0.9515,0.1131,-0.2703,-0.3585,-0.0252,0.0122,-0.0019,-0.0014,2.8437,1.4520,2.9315
2024-10-11T13:59:56.907Z,0.0521,-0.9598,0.1203,-0.2703,-0.3585,-0.0252,0.0095,-0.0030,0.0003,2.8437,1.4520,2.9315
2024-10-11T13:59:56.917Z,0.0498,-0.9660,0.1159,-0.2703,-0.3585,-0.0252,0.0054,0.0023,0.0052,2.8437,1.4520,2.9315
2024-10-11T13:59:56.927Z,0.0495,-0.9670,0.1148,-0.3123,-0.2487,0.0325,0.0039,0.0055,0.0085,2.8421,1.4519,2.9328
2024-10-11T13:59:56.937Z,0.0578,-0.9678,0.1098,-0.3123,-0.2487,0.0325,0.0005,0.0028,0.0105,2.8421,1.4519,2.9328
2024-10-11T13:59:56.946Z,0.0514,-0.9657,0.1129,-0.3123,-0.2487,0.0325,0.0019,0.0035,0.0142,2.8421,1.4519,2.9328
2024-10-11T13:59:56.957Z,0.0406,-0.9629,0.1078,-0.0936,-0.2948,0.0530,-0.0012,0.0062,0.0154,2.8388,1.4520,2.9360
2024-10-11T13:59:56.967Z,0.0335,-0.9624,0.1080,-0.0936,-0.2948,0.0530,-0.0030,0.0101,0.0145,2.8388,1.4520,2.9360
2024-10-11T13:59:56.977Z,0.0427,-0.9576,0.1033,-0.0936,-0.2948,0.0530,-0.0023,0.0068,0.0183,2.8388,1.4520,2.9360
2024-10-11T13:59:56.988Z,0.0405,-0.9582,0.0943,-0.0677,-0.3754,0.2430,-0.0022,0.0077,0.0175,2.8352,1.4522,2.9396
2024-10-11T13:59:56.997Z,0.0268,-0.9514,0.0880,-0.0677,-0.3754,0.2430,-0.0018,0.0118,0.0167,2.8352,1.4522,2.9396
2024-10-11T13:59:57.007Z,0.0264,-0.9519,0.0847,-0.0677,-0.3754,0.2430,-0.0020,0.0146,0.0184,2.8352,1.4522,2.9396
2024-10-11T13:59:57.021Z,0.0317,-0.9518,0.0823,-0.1000,-0.3927,0.3583,-0.0015,0.0162,0.0185,2.8307,1.4523,2.9442
2024-10-11T13:59:57.026Z,0.0328,-0.9551,0.0777,-0.1000,-0.3927,0.3583,0.0003,0.0181,0.0214,2.8307,1.4523,2.9442
2024-10-11T13:59:57.037Z,0.0293,-0.9590,0.0739,-0.1000,-0.3927,0.3583,0.0046,0.0138,0.0200,2.8307,1.4523,2.9442
2024-10-11T13:59:57.047Z,0.0185,-0.9600,0.0808,0.0107,-0.3313,0.3239,0.0079,0.0178,0.0184,2.8258,1.4523,2.9494
2024-10-11T13:59:57.057Z,0.0258,-0.9588,0.0847,0.0107,-0.3313,0.3239,0.0075,0.0196,0.0190,2.8258,1.4523,2.9494
2024-10-11T13:59:57.067Z,0.0347,-0.9644,0.0882,0.0107,-0.3313,0.3239,0.0103,0.0174,0.0194,2.8258,1.4523,2.9494
2024-10-11T13:59:57.077Z,0.0301,-0.9743,0.0943,-0.0722,-0.1441,0.2271,0.0112,0.0180,0.0164,2.8208,1.4522,2.9547
2024-10-11T13:59:57.087Z,0.0302,-0.9823,0.0977,-0.0722,-0.1441,0.2271,0.0075,0.0227,0.0167,2.8208,1.4522,2.9547
2024-10-11T13:59:57.097Z,0.0391,-0.9893,0.1058,-0.0722,-0.1441,0.2271,0.0082,0.0244,0.0174,2.8208,1.4522,2.9547
2024-10-11T13:59:57.107Z,0.0396,-0.9954,0.1152,-0.1057,0.0562,0.0140,0.0043,0.0207,0.0179,2.8159,1.4522,2.9600
2024-10-11T13:59:57.118Z,0.0308,-0.9995,0.1157,-0.1057,0.0562,0.0140,0.0027,0.0214,0.0159,2.8159,1.4522,2.9600
2024-10-11T13:59:57.127Z,0.0323,-1.0017,0.1211,-0.1057,0.0562,0.0140,0.0054,0.0209,0.0211,2.8159,1.4522,2.9600
2024-10-11T13:59:57.137Z,0.0427,-1.0068,0.1195,-0.1975,0.1642,-0.0229,-0.0012,0.0163,0.0207,2.8104,1.4523,2.9656
