time,gFx,gFy,gFz,ax,ay,az,wx,wy,wz,yaw,pitch,roll
2024-10-11T12:06:49.771Z,-0.0173,-0.9978,0.1066,0.1297,0.0281,-0.0581,0.0203,0.0344,0.0079,-2.6198,1.4698,-3.1008
2024-10-11T12:06:49.777Z,-0.0237,-1.0067,0.1157,0.1894,0.1159,-0.1418,0.0208,0.0368,0.0028,-2.6216,1.4693,-3.0982
2024-10-11T12:06:49.788Z,-0.0173,-1.0103,0.1191,0.1894,0.1159,-0.1418,0.0194,0.0402,0.0032,-2.6216,1.4693,-3.0982
2024-10-11T12:06:49.798Z,-0.0090,-1.0125,0.1189,0.1894,0.1159,-0.1418,0.0180,0.0422,-0.0000,-2.6216,1.4693,-3.0982
2024-10-11T12:06:49.807Z,-0.0114,-1.0121,0.1223,0.0668,0.1702,-0.2018,0.0148,0.0462,0.0006,-2.6221,1.4688,-3.0967
2024-10-11T12:06:49.818Z,-0.0067,-1.0087,0.1320,0.0668,0.1702,-0.2018,0.0106,0.0473,0.0000,-2.6221,1.4688,-3.0967
2024-10-11T12:06:49.828Z,0.0010,-1.0062,0.1335,0.0668,0.1702,-0.2018,0.0056,0.0512,-0.0003,-2.6221,1.4688,-3.0967
2024-10-11T12:06:49.837Z,0.0034,-1.0076,0.1354,-0.0804,0.1256,-0.3276,0.0031,0.0505,0.0001,-2.6225,1.4685,-3.0951
2024-10-11T12:06:49.848Z,0.0074,-1.0062,0.1336,-0.0804,0.1256,-0.3276,0.0003,0.0483,0.0031,-2.6225,1.4685,-3.0951
2024-10-11T12:06:49.858Z,0.0066,-1.0016,0.1344,-0.0804,0.1256,-0.3276,-0.0052,0.0475,0.0019,-2.6225,1.4685,-3.0951
2024-10-11T12:06:49.868Z,-0.0002,-0.9987,0.1308,-0.0471,0.0383,-0.2836,-0.0070,0.0445,-0.0009,-2.6237,1.4686,-3.0927
2024-10-11T12:06:49.878Z,-0.0009,-0.9982,0.1197,-0.0471,0.0383,-0.2836,-0.0096,0.0401,-0.0006,-2.6237,1.4686,-3.0927
2024-10-11T12:06:49.889Z,0.0010,-0.9946,0.1133,-0.0471,0.0383,-0.2836,-0.0116,0.0350,0.0013,-2.6237,1.4686,-3.0927
2024-10-11T12:06:49.898Z,-0.0031,-0.9894,0.1108,-0.0200,-0.0531,-0.0900,-0.0089,0.0304,0.0019,-2.6244,1.4689,-3.0911
2024-10-11T12:06:49.909Z,-0.0063,-0.9871,0.1057,-0.0200,-0.0531,-0.0900,-0.0104,0.0304,-0.0010,-2.6244,1.4689,-3.0911
2024-10-11T12:06:49.918Z,-0.0045,-0.9862,0.1009,-0.0200,-0.0531,-0.0900,-0.0092,0.0298,-0.0009,-2.6244,1.4689,-3.0911
2024-10-11T12:06:49.928Z,-0.0031,-0.9822,0.1041,-0.0199,-0.1243,-0.0270,-0.0115,0.0273,-0.0026,-2.6240,1.4691,-3.0908
2024-10-11T12:06:49.938Z,-0.0049,-0.9802,0.1095,-0.0199,-0.1243,-0.0270,-0.0154,0.0241,-0.0028,-2.6240,1.4691,-3.0908
2024-10-11T12:06:49.948Z,-0.0006,-0.9793,0.1091,-0.0199,-0.1243,-0.0270,-0.0130,0.0267,-0.0033,-2.6240,1.4691,-3.0908
2024-10-11T12:06:49.959Z,-0.0006,-0.9793,0.1091,-0.0678,-0.1352,0.0151,-0.0131,0.0238,-0.0055,-2.6235,1.4694,-3.0909
2024-10-11T12:06:49.967Z,-0.0089,-0.9805,0.0963,-0.0678,-0.1352,0.0151,-0.0114,0.0202,-0.0085,-2.6235,1.4694,-3.0909
2024-10-11T12:06:49.977Z,-0.0152,-0.9763,0.1032,-0.0678,-0.1352,0.0151,-0.0144,0.0195,-0.0084,-2.6235,1.4694,-3.0909
2024-10-11T12:06:49.989Z,-0.0120,-0.9773,0.1008,0.0695,-0.1725,0.0003,-0.0143,0.0175,-0.0097,-2.6214,1.4697,-3.0926
2024-10-11T12:06:49.998Z,-0.0110,-0.9831,0.0998,0.0695,-0.1725,0.0003,-0.0174,0.0134,-0.0106,-2.6214,1.4697,-3.0926
2024-10-11T12:06:50.008Z,-0.0123,-0.9879,0.0978,0.0695,-0.1725,0.0003,-0.0129,0.0125,-0.0116,-2.6214,1.4697,-3.0926
2024-10-11T12:06:50.018Z,-0.0123,-0.9879,0.0978,0.0232,-0.0433,-0.0017,-0.0128,0.0103,-0.0127,-2.6183,1.4701,-3.0956
2024-10-11T12:06:50.028Z,-0.0049,-0.9921,0.0949,0.0232,-0.0433,-0.0017,-0.0169,0.0160,-0.0131,-2.6183,1.4701,-3.0956
2024-10-11T12:06:50.038Z,-0.0025,-0.9954,0.0930,0.0232,-0.0433,-0.0017,-0.0148,0.0170,-0.0118,-2.6183,1.4701,-3.0956
2024-10-11T12:06:50.048Z,0.0020,-0.9942,0.0924,-0.0616,-0.0075,0.0742,-0.0146,0.0222,-0.0086,-2.6150,1.4705,-3.0985
2024-10-11T12:06:50.060Z,0.0038,-0.9911,0.0991,-0.0616,-0.0075,0.0742,-0.0180,0.0273,-0.0088,-2.6150,1.4705,-3.0985
2024-10-11T12:06:50.067Z,-0.0021,-0.9900,0.1004,-0.0616,-0.0075,0.0742,-0.0166,0.0270,-0.0080,-2.6150,1.4705,-3.0985
2024-10-11T12:06:50.078Z,-0.0029,-0.9908,0.0982,-0.0129,-0.0415,0.0128,-0.0186,0.0268,-0.0098,-2.6133,1.4710,-3.0997
2024-10-11T12:06:50.088Z,0.0003,-0.9918,0.0947,-0.0129,-0.0415,0.0128,-0.0156,0.0308,-0.0072,-2.6133,1.4710,-3.0997
2024-10-11T12:06:50.098Z,-0.0035,-0.9901,0.0940,-0.0129,-0.0415,0.0128,-0.0159,0.0294,-0.0058,-2.6133,1.4710,-3.0997
2024-10-11T12:06:50.110Z,-0.0076,-0.9903,0.0999,0.0353,-0.0470,-0.0084,-0.0173,0.0342,-0.0065,-2.6115,1.4715,-3.1009
2024-10-11T12:06:50.118Z,-0.0049,-0.9933,0.0968,0.0353,-0.0470,-0.0084,-0.0133,0.0352,-0.0086,-2.6115,1.4715,-3.1009
2024-10-11T12:06:50.128Z,-0.0034,-0.9958,0.0914,0.0353,-0.0470,-0.0084,-0.0146,0.0364,-0.0107,-2.6115,1.4715,-3.1009
2024-10-11T12:06:50.138Z,-0.0038,-0.9973,0.0875,0.0003,0.0211,0.1095,-0.0119,0.0376,-0.0109,-2.6087,1.4719,-3.1029
2024-10-11T12:06:50.148Z,-0.0056,-0.9980,0.0861,0.0003,0.0211,0.1095,-0.0098,0.0349,-0.0066,-2.6087,1.4719,-3.1029
2024-10-11T12:06:50.158Z,-0.0064,-0.9976,0.0824,0.0003,0.0211,0.1095,-0.0084,0.0305,-0.0085,-2.6087,1.4719,-3.1029
2024-10-11T12:06:50.168Z,-0.0078,-0.9984,0.0824,0.0410,0.0320,0.1566,-0.0088,0.0322,-0.0107,-2.6059,1.4722,-3.1049
2024-10-11T12:06:50.178Z,-0.0038,-0.9993,0.0880,0.0410,0.0320,0.1566,-0.0065,0.0313,-0.0123,-2.6059,1.4722,-3.1049
2024-10-11T12:06:50.188Z,0.0003,-1.0011,0.0896,0.0410,0.0320,0.1566,-0.0062,0.0314,-0.0088,-2.6059,1.4722,-3.1049
2024-10-11T12:06:50.198Z,-0.0004,-1.0031,0.0854,-0.0293,0.0775,0.1258,-0.0039,0.0312,-0.0097,-2.6027,1.4724,-3.1073
2024-10-11T12:06:50.208Z,-0.0043,-1.0014,0.0828,-0.0293,0.0775,0.1258,-0.0015,0.0301,-0.0126,-2.6027,1.4724,-3.1073
2024-10-11T12:06:50.218Z,-0.0017,-0.9959,0.0767,-0.0293,0.0775,0.1258,0.0010,0.0261,-0.0115,-2.6027,1.4724,-3.1073
2024-10-11T12:06:50.227Z,-0.0017,-0.9959,0.0767,-0.0145,-0.0166,0.2381,0.0038,0.0239,-0.0119,-2.5995,1.4724,-3.1099
2024-10-11T12:06:50.238Z,0.0059,-0.9936,0.0770,-0.0145,-0.0166,0.2381,0.0066,0.0245,-0.0104,-2.5995,1.4724,-3.1099
2024-10-11T12:06:50.248Z,0.0071,-0.9939,0.0774,-0.0145,-0.0166,0.2381,0.0100,0.0214,-0.0097,-2.5995,1.4724,-3.1099
2024-10-11T12:06:50.259Z,0.0060,-0.9955,0.0810,-0.0871,0.0030,0.1707,0.0115,0.0195,-0.0096,-2.5967,1.4722,-3.1123
2024-10-11T12:06:50.268Z,0.0062,-0.9970,0.0849,-0.0871,0.0030,0.1707,0.0129,0.0134,-0.0082,-2.5967,1.4722,-3.1123
2024-10-11T12:06:50.277Z,0.0039,-1.0019,0.0844,-0.0871,0.0030,0.1707,0.0120,0.0119,-0.0130,-2.5967,1.4722,-3.1123
2024-10-11T12:06:50.288Z,-0.0009,-1.0016,0.0881,-0.0166,0.0634,0.1036,0.0135,0.0085,-0.0101,-2.5938,1.4719,-3.1151
2024-10-11T12:06:50.298Z,0.0027,-1.0003,0.0930,-0.0166,0.0634,0.1036,0.0094,0.0066,-0.0107,-2.5938,1.4719,-3.1151
2024-10-11T12:06:50.308Z,0.0058,-1.0003,0.0979,-0.0166,0.0634,0.1036,0.0124,0.0026,-0.0086,-2.5938,1.4719,-3.1151
2024-10-11T12:06:50.318Z,0.0031,-1.0049,0.0945,-0.0527,0.0958,0.0441,0.0082,0.0011,-0.0117,-2.5906,1.4717,-3.1184
2024-10-11T12:06:50.327Z,0.0078,-1.0085,0.0896,-0.0527,0.0958,0.0441,0.0101,-0.0047,-0.0088,-2.5906,1.4717,-3.1184
2024-10-11T12:06:50.338Z,0.0154,-1.0070,0.0906,-0.0527,0.0958,0.0441,0.0065,-0.0067,-0.0057,-2.5906,1.4717,-3.1184
2024-10-11T12:06:50.348Z,0.0185,-1.0050,0.0979,-0.2015,0.0970,0.0120,0.0055,-0.0101,-0.0069,-2.5880,1.4715,-3.1214
2024-10-11T12:06:50.358Z,0.0143,-0.9998,0.1035,-0.2015,0.0970,0.0120,0.0052,-0.0126,-0.0035,-2.5880,1.4715,-3.1214
2024-10-11T12:06:50.368Z,0.0121,-0.9960,0.1019,-0.2015,0.0970,0.0120,0.0030,-0.0172,-0.0000,-2.5880,1.4715,-3.1214
2024-10-11T12:06:50.378Z,0.0132,-0.9975,0.0971,-0.1481,0.0235,0.0211,0.0018,-0.0166,0.0010,-2.5874,1.4714,-3.1228
2024-10-11T12:06:50.388Z,0.0096,-0.9942,0.0997,-0.1481,0.0235,0.0211,0.0026,-0.0214,0.0023,-2.5874,1.4714,-3.1228
2024-10-11T12:06:50.398Z,0.0080,-0.9940,0.1008,-0.1481,0.0235,0.0211,0.0025,-0.0228,0.0012,-2.5874,1.4714,-3.1228
2024-10-11T12:06:50.408Z,0.0001,-0.9961,0.0975,-0.0184,0.0105,0.0181,0.0019,-0.0294,0.0025,-2.5877,1.4713,-3.1234
2024-10-11T12:06:50.418Z,0.0007,-0.9960,0.1014,-0.0184,0.0105,0.0181,0.0003,-0.0328,0.0006,-2.5877,1.4713,-3.1234
2024-10-11T12:06:50.427Z,0.0003,-0.9951,0.1097,-0.0184,0.0105,0.0181,-0.0019,-0.0347,0.0000,-2.5877,1.4713,-3.1234
2024-10-11T12:06:50.438Z,0.0005,-0.9941,0.1161,-0.0218,-0.0093,-0.1652,-0.0053,-0.0354,0.0025,-2.5877,1.4713,-3.1246
2024-10-11T12:06:50.448Z,-0.0003,-1.0027,0.1184,-0.0218,-0.0093,-0.1652,-0.0074,-0.0364,0.0022,-2.5877,1.4713,-3.1246
2024-10-11T12:06:50.458Z,0.0049,-1.0023,0.1150,-0.0218,-0.0093,-0.1652,-0.0082,-0.0351,0.0053,-2.5877,1.4713,-3.1246
2024-10-11T12:06:50.468Z,0.0099,-1.0011,0.1112,-0.1135,0.0591,-0.1186,-0.0091,-0.0372,0.0051,-2.5888,1.4715,-3.1249
2024-10-11T12:06:50.478Z,0.0032,-0.9979,0.1162,-0.1135,0.0591,-0.1186,-0.0131,-0.0360,0.0067,-2.5888,1.4715,-3.1249
2024-10-11T12:06:50.488Z,-0.0007,-0.9997,0.1156,-0.1135,0.0591,-0.1186,-0.0142,-0.0339,0.0085,-2.5888,1.4715,-3.1249
2024-10-11T12:06:50.498Z,0.0024,-1.0014,0.1079,-0.0408,0.0619,-0.0899,-0.0165,-0.0338,0.0082,-2.5911,1.4719,-3.1239
2024-10-11T12:06:50.508Z,-0.0018,-0.9996,0.1047,-0.0408,0.0619,-0.0899,-0.0147,-0.0323,0.0105,-2.5911,1.4719,-3.1239
2024-10-11T12:06:50.518Z,-0.0036,-0.9975,0.1051,-0.0408,0.0619,-0.0899,-0.0178,-0.0306,0.0081,-2.5911,1.4719,-3.1239
2024-10-11T12:06:50.529Z,-0.0028,-1.0005,0.1020,0.0087,0.0522,-0.0357,-0.0140,-0.0290,0.0121,-2.5940,1.4723,-3.1222
2024-10-11T12:06:50.537Z,-0.0072,-1.0018,0.0976,0.0087,0.0522,-0.0357,-0.0127,-0.0296,0.0093,-2.5940,1.4723,-3.1222
2024-10-11T12:06:50.548Z,-0.0116,-1.0002,0.0926,0.0087,0.0522,-0.0357,-0.0118,-0.0296,0.0093,-2.5940,1.4723,-3.1222
2024-10-11T12:06:50.558Z,-0.0103,-0.9967,0.0858,0.0806,0.0148,0.1193,-0.0135,-0.0277,0.0081,-2.5970,1.4726,-3.1203
2024-10-11T12:06:50.568Z,-0.0093,-0.9971,0.0810,0.0806,0.0148,0.1193,-0.0061,-0.0291,0.0111,-2.5970,1.4726,-3.1203
2024-10-11T12:06:50.578Z,-0.0138,-0.9998,0.0753,0.0806,0.0148,0.1193,-0.0050,-0.0276,0.0100,-2.5970,1.4726,-3.1203
2024-10-11T12:06:50.588Z,-0.0087,-0.9979,0.0759,0.0627,0.0265,0.2152,-0.0016,-0.0234,0.0098,-2.6001,1.4727,-3.1184
2024-10-11T12:06:50.598Z,-0.0104,-0.9977,0.0821,0.0627,0.0265,0.2152,0.0011,-0.0217,0.0110,-2.6001,1.4727,-3.1184
2024-10-11T12:06:50.608Z,-0.0206,-0.9979,0.0853,0.0627,0.0265,0.2152,0.0010,-0.0209,0.0090,-2.6001,1.4727,-3.1184
2024-10-11T12:06:50.618Z,-0.0173,-1.0019,0.0853,0.1457,0.0655,0.1240,0.0025,-0.0161,0.0086,-2.6027,1.4727,-3.1166
2024-10-11T12:06:50.628Z,-0.0153,-0.9990,0.0862,0.1457,0.0655,0.1240,0.0047,-0.0118,0.0071,-2.6027,1.4727,-3.1166
2024-10-11T12:06:50.638Z,-0.0173,-0.9937,0.0905,0.1457,0.0655,0.1240,0.0060,-0.0095,0.0045,-2.6027,1.4727,-3.1166
2024-10-11T12:06:50.648Z,-0.0206,-0.9940,0.0853,0.1761,-0.0112,0.1256,0.0089,-0.0020,0.0019,-2.6048,1.4725,-3.1151
2024-10-11T12:06:50.658Z,-0.0178,-0.9927,0.0761,0.1761,-0.0112,0.1256,0.0108,0.0006,0.0049,-2.6048,1.4725,-3.1151
2024-10-11T12:06:50.668Z,-0.0173,-0.9894,0.0709,0.1761,-0.0112,0.1256,0.0120,0.0078,0.0033,-2.6048,1.4725,-3.1151
2024-10-11T12:06:50.679Z,-0.0172,-0.9824,0.0832,0.1413,-0.1246,0.1490,0.0140,0.0139,0.0061,-2.6067,1.4722,-3.1132
2024-10-11T12:06:50.688Z,-0.0106,-0.9816,0.0928,0.1413,-0.1246,0.1490,0.0151,0.0196,0.0062,-2.6067,1.4722,-3.1132
2024-10-11T12:06:50.698Z,-0.0049,-0.9855,0.0938,0.1413,-0.1246,0.1490,0.0174,0.0243,0.0061,-2.6067,1.4722,-3.1132
2024-10-11T12:06:50.708Z,-0.0076,-0.9899,0.0953,0.0434,-0.0507,0.0346,0.0169,0.0256,0.0068,-2.6095,1.4717,-3.1100
2024-10-11T12:06:50.718Z,-0.0114,-0.9885,0.1022,0.0434,-0.0507,0.0346,0.0178,0.0302,0.0066,-2.6095,1.4717,-3.1100
2024-10-11T12:06:50.728Z,-0.0158,-0.9894,0.1054,0.0434,-0.0507,0.0346,0.0174,0.0304,0.0079,-2.6095,1.4717,-3.1100
2024-10-11T12:06:50.738Z,-0.0192,-0.9885,0.1071,0.1544,-0.0646,-0.0764,0.0174,0.0314,0.0018,-2.6120,1.4713,-3.1068
2024-10-11T12:06:50.748Z,-0.0168,-0.9899,0.1064,0.1544,-0.0646,-0.0764,0.0149,0.0311,0.0033,-2.6120,1.4713,-3.1068
2024-10-11T12:06:50.759Z,-0.0195,-0.9907,0.1083,0.1544,-0.0646,-0.0764,0.0137,0.0299,0.0010,-2.6120,1.4713,-3.1068
2024-10-11T12:06:50.768Z,-0.0216,-0.9904,0.1144,0.1768,-0.0457,-0.1447,0.0114,0.0296,-0.0012,-2.6128,1.4709,-3.1053
2024-10-11T12:06:50.778Z,-0.0178,-0.9934,0.1136,0.1768,-0.0457,-0.1447,0.0128,0.0325,-0.0003,-2.6128,1.4709,-3.1053
2024-10-11T12:06:50.788Z,-0.0147,-0.9937,0.1169,0.1768,-0.0457,-0.1447,0.0099,0.0303,-0.0033,-2.6128,1.4709,-3.1053
2024-10-11T12:06:50.798Z,-0.0157,-0.9929,0.1193,0.1182,-0.0202,-0.1896,0.0085,0.0311,-0.0031,-2.6124,1.4706,-3.1051
2024-10-11T12:06:50.808Z,-0.0094,-0.9890,0.1257,0.1182,-0.0202,-0.1896,0.0018,0.0321,-0.0043,-2.6124,1.4706,-3.1051
2024-10-11T12:06:50.818Z,-0.0060,-0.9868,0.1291,0.1182,-0.0202,-0.1896,0.0013,0.0314,-0.0055,-2.6124,1.4706,-3.1051
2024-10-11T12:06:50.828Z,-0.0108,-0.9830,0.1279,0.0700,-0.1177,-0.2725,-0.0015,0.0286,-0.0039,-2.6117,1.4705,-3.1051
2024-10-11T12:06:50.838Z,-0.0103,-0.9819,0.1240,0.0700,-0.1177,-0.2725,-0.0020,0.0259,-0.0066,-2.6117,1.4705,-3.1051
2024-10-11T12:06:50.848Z,-0.0075,-0.9791,0.1222,0.0700,-0.1177,-0.2725,-0.0040,0.0224,-0.0094,-2.6117,1.4705,-3.1051
2024-10-11T12:06:50.858Z,-0.0091,-0.9803,0.1214,0.0541,-0.1438,-0.2098,-0.0066,0.0181,-0.0079,-2.6106,1.4705,-3.1058
2024-10-11T12:06:50.868Z,-0.0110,-0.9830,0.1197,0.0541,-0.1438,-0.2098,-0.0075,0.0188,-0.0073,-2.6106,1.4705,-3.1058
2024-10-11T12:06:50.878Z,-0.0029,-0.9816,0.1171,0.0541,-0.1438,-0.2098,-0.0071,0.0220,-0.0076,-2.6106,1.4705,-3.1058
2024-10-11T12:06:50.888Z,-0.0002,-0.9805,0.1176,-0.0323,-0.1419,-0.1736,-0.0083,0.0222,-0.0071,-2.6090,1.4707,-3.1070
2024-10-11T12:06:50.898Z,-0.0046,-0.9794,0.1180,-0.0323,-0.1419,-0.1736,-0.0095,0.0233,-0.0042,-2.6090,1.4707,-3.1070
2024-10-11T12:06:50.908Z,-0.0064,-0.9855,0.1087,-0.0323,-0.1419,-0.1736,-0.0102,0.0248,-0.0080,-2.6090,1.4707,-3.1070
2024-10-11T12:06:50.918Z,-0.0103,-0.9891,0.1052,0.0682,-0.0581,-0.0536,-0.0118,0.0243,-0.0069,-2.6077,1.4709,-3.1078
2024-10-11T12:06:50.927Z,-0.0111,-0.9913,0.1085,0.0682,-0.0581,-0.0536,-0.0122,0.0233,-0.0088,-2.6077,1.4709,-3.1078
2024-10-11T12:06:50.938Z,-0.0095,-0.9931,0.1117,0.0682,-0.0581,-0.0536,-0.0141,0.0219,-0.0090,-2.6077,1.4709,-3.1078
2024-10-11T12:06:50.948Z,-0.0074,-0.9962,0.1106,0.0415,0.0117,-0.1093,-0.0119,0.0222,-0.0094,-2.6056,1.4711,-3.1095
2024-10-11T12:06:50.958Z,-0.0075,-1.0011,0.1060,0.0415,0.0117,-0.1093,-0.0147,0.0216,-0.0088,-2.6056,1.4711,-3.1095
2024-10-11T12:06:50.968Z,-0.0025,-1.0028,0.1028,0.0415,0.0117,-0.1093,-0.0127,0.0226,-0.0074,-2.6056,1.4711,-3.1095
2024-10-11T12:06:50.978Z,-0.0019,-1.0012,0.1014,-0.0107,0.0605,-0.0221,-0.0138,0.0227,-0.0082,-2.6033,1.4715,-3.1113
2024-10-11T12:06:50.987Z,-0.0068,-1.0006,0.0981,-0.0107,0.0605,-0.0221,-0.0133,0.0254,-0.0097,-2.6033,1.4715,-3.1113
2024-10-11T12:06:50.998Z,-0.0047,-1.0005,0.0911,-0.0107,0.0605,-0.0221,-0.0107,0.0213,-0.0091,-2.6033,1.4715,-3.1113
2024-10-11T12:06:51.009Z,0.0027,-0.9975,0.0864,-0.0545,0.0240,0.1215,-0.0095,0.0253,-0.0088,-2.6011,1.4718,-3.1130
2024-10-11T12:06:51.017Z,-0.0002,-0.9986,0.0882,-0.0545,0.0240,0.1215,-0.0104,0.0257,-0.0096,-2.6011,1.4718,-3.1130
2024-10-11T12:06:51.028Z,-0.0035,-1.0004,0.0882,-0.0545,0.0240,0.1215,-0.0067,0.0221,-0.0077,-2.6011,1.4718,-3.1130
2024-10-11T12:06:51.038Z,0.0010,-1.0042,0.0900,-0.0365,0.0892,0.0851,-0.0085,0.0233,-0.0079,-2.5995,1.4719,-3.1141
2024-10-11T12:06:51.047Z,-0.0021,-1.0006,0.0952,-0.0365,0.0892,0.0851,-0.0075,0.0232,-0.0078,-2.5995,1.4719,-3.1141
2024-10-11T12:06:51.058Z,-0.0105,-0.9982,0.0984,-0.0365,0.0892,0.0851,-0.0048,0.0208,-0.0088,-2.5995,1.4719,-3.1141
2024-10-11T12:06:51.068Z,-0.0096,-0.9974,0.0977,0.0699,0.0220,0.0083,-0.0024,0.0168,-0.0112,-2.5972,1.4721,-3.1161
2024-10-11T12:06:51.078Z,-0.0036,-0.9982,0.0953,0.0699,0.0220,0.0083,-0.0018,0.0165,-0.0074,-2.5972,1.4721,-3.1161
2024-10-11T12:06:51.088Z,-0.0071,-0.9959,0.0966,0.0699,0.0220,0.0083,-0.0012,0.0205,-0.0097,-2.5972,1.4721,-3.1161
2024-10-11T12:06:51.098Z,-0.0054,-0.9939,0.0977,0.0301,-0.0125,0.0074,-0.0028,0.0178,-0.0082,-2.5946,1.4721,-3.1184
2024-10-11T12:06:51.109Z,-0.0029,-0.9946,0.0982,0.0301,-0.0125,0.0074,-0.0015,0.0213,-0.0076,-2.5946,1.4721,-3.1184
2024-10-11T12:06:51.118Z,-0.0108,-0.9993,0.0983,0.0301,-0.0125,0.0074,-0.0002,0.0260,-0.0089,-2.5946,1.4721,-3.1184
2024-10-11T12:06:51.128Z,-0.0035,-1.0001,0.0938,0.0138,0.0483,0.0455,0.0001,0.0242,-0.0057,-2.5924,1.4722,-3.1201
2024-10-11T12:06:51.138Z,0.0051,-0.9997,0.0965,0.0138,0.0483,0.0455,0.0005,0.0249,-0.0071,-2.5924,1.4722,-3.1201
2024-10-11T12:06:51.148Z,0.0015,-1.0020,0.0988,0.0138,0.0483,0.0455,-0.0007,0.0230,-0.0059,-2.5924,1.4722,-3.1201
2024-10-11T12:06:51.159Z,-0.0013,-1.0026,0.0975,-0.0069,0.0728,0.0091,0.0033,0.0203,-0.0056,-2.5912,1.4722,-3.1208
2024-10-11T12:06:51.168Z,-0.0002,-1.0026,0.0912,-0.0069,0.0728,0.0091,0.0003,0.0216,-0.0032,-2.5912,1.4722,-3.1208
2024-10-11T12:06:51.178Z,-0.0008,-1.0012,0.0927,-0.0069,0.0728,0.0091,0.0014,0.0204,-0.0018,-2.5912,1.4722,-3.1208
2024-10-11T12:06:51.188Z,0.0010,-1.0004,0.0947,-0.0294,0.0512,0.0371,0.0023,0.0238,-0.0026,-2.5907,1.4721,-3.1209
2024-10-11T12:06:51.198Z,0.0018,-1.0017,0.0931,-0.0294,0.0512,0.0371,0.0023,0.0222,-0.0014,-2.5907,1.4721,-3.1209
2024-10-11T12:06:51.210Z,0.0013,-1.0004,0.0945,-0.0294,0.0512,0.0371,0.0014,0.0236,-0.0035,-2.5907,1.4721,-3.1209
2024-10-11T12:06:51.218Z,-0.0019,-0.9996,0.0973,-0.0014,0.0434,0.0119,0.0029,0.0221,0.0010,-2.5905,1.4721,-3.1206
2024-10-11T12:06:51.228Z,0.0025,-0.9991,0.0967,-0.0014,0.0434,0.0119,0.0043,0.0222,-0.0009,-2.5905,1.4721,-3.1206
2024-10-11T12:06:51.238Z,0.0026,-0.9986,0.0949,-0.0014,0.0434,0.0119,0.0037,0.0206,-0.0003,-2.5905,1.4721,-3.1206
2024-10-11T12:06:51.248Z,-0.0027,-0.9945,0.0923,0.0056,-0.0065,0.0615,0.0031,0.0200,-0.0048,-2.5905,1.4720,-3.1203
2024-10-11T12:06:51.259Z,-0.0051,-0.9915,0.0902,0.0056,-0.0065,0.0615,0.0067,0.0175,0.0005,-2.5905,1.4720,-3.1203
2024-10-11T12:06:51.268Z,0.0046,-0.9894,0.0926,0.0056,-0.0065,0.0615,0.0015,0.0175,-0.0037,-2.5905,1.4720,-3.1203
2024-10-11T12:06:51.278Z,0.0000,-0.9899,0.0939,-0.0207,-0.0509,0.0475,0.0028,0.0184,-0.0015,-2.5901,1.4719,-3.1204
2024-10-11T12:06:51.288Z,0.0018,-0.9938,0.0994,-0.0207,-0.0509,0.0475,0.0031,0.0175,-0.0014,-2.5901,1.4719,-3.1204
2024-10-11T12:06:51.298Z,0.0056,-0.9945,0.0969,-0.0207,-0.0509,0.0475,0.0045,0.0143,-0.0008,-2.5901,1.4719,-3.1204
2024-10-11T12:06:51.309Z,0.0079,-0.9956,0.0981,-0.0980,0.0051,0.0067,0.0048,0.0138,-0.0010,-2.5896,1.4718,-3.1207
2024-10-11T12:06:51.318Z,0.0085,-0.9944,0.0983,-0.0980,0.0051,0.0067,0.0019,0.0139,0.0000,-2.5896,1.4718,-3.1207
2024-10-11T12:06:51.328Z,0.0099,-0.9940,0.1022,-0.0980,0.0051,0.0067,0.0008,0.0141,-0.0012,-2.5896,1.4718,-3.1207
2024-10-11T12:06:51.338Z,0.0076,-0.9905,0.1010,-0.0950,-0.0450,-0.0214,0.0024,0.0123,-0.0012,-2.5897,1.4717,-3.1204
2024-10-11T12:06:51.347Z,0.0045,-0.9894,0.1040,-0.0950,-0.0450,-0.0214,0.0020,0.0113,-0.0008,-2.5897,1.4717,-3.1204
2024-10-11T12:06:51.358Z,0.0046,-0.9907,0.1034,-0.0950,-0.0450,-0.0214,0.0023,0.0110,0.0002,-2.5897,1.4717,-3.1204
2024-10-11T12:06:51.368Z,0.0017,-0.9925,0.1077,-0.0366,-0.0259,-0.0867,-0.0024,0.0109,-0.0041,-2.5892,1.4718,-3.1207
2024-10-11T12:06:51.378Z,-0.0016,-0.9958,0.1133,-0.0366,-0.0259,-0.0867,-0.0029,0.0096,-0.0017,-2.5892,1.4718,-3.1207
2024-10-11T12:06:51.388Z,0.0017,-0.9973,0.1183,-0.0366,-0.0259,-0.0867,-0.0056,0.0088,-0.0036,-2.5892,1.4718,-3.1207
2024-10-11T12:06:51.398Z,-0.0037,-0.9989,0.1208,0.0165,0.0373,-0.2169,-0.0036,0.0110,-0.0025,-2.5884,1.4719,-3.1216
2024-10-11T12:06:51.407Z,-0.0117,-1.0000,0.1166,0.0165,0.0373,-0.2169,-0.0085,0.0139,-0.0040,-2.5884,1.4719,-3.1216
2024-10-11T12:06:51.418Z,-0.0102,-1.0006,0.1133,0.0165,0.0373,-0.2169,-0.0058,0.0194,-0.0036,-2.5884,1.4719,-3.1216
2024-10-11T12:06:51.428Z,-0.0079,-0.9980,0.1140,0.0585,0.0285,-0.1510,-0.0091,0.0250,-0.0035,-2.5873,1.4721,-3.1224
2024-10-11T12:06:51.438Z,-0.0117,-0.9975,0.1126,0.0585,0.0285,-0.1510,-0.0130,0.0305,-0.0018,-2.5873,1.4721,-3.1224
2024-10-11T12:06:51.447Z,-0.0105,-0.9988,0.1100,0.0585,0.0285,-0.1510,-0.0146,0.0378,0.0015,-2.5873,1.4721,-3.1224
2024-10-11T12:06:51.457Z,-0.0062,-0.9983,0.1069,0.0415,0.0309,-0.0851,-0.0126,0.0498,-0.0014,-2.5871,1.4724,-3.1216
2024-10-11T12:06:51.468Z,-0.0051,-0.9958,0.1106,0.0415,0.0309,-0.0851,-0.0184,0.0505,-0.0005,-2.5871,1.4724,-3.1216
2024-10-11T12:06:51.477Z,-0.0060,-0.9988,0.1110,0.0415,0.0309,-0.0851,-0.0137,0.0543,0.0039,-2.5871,1.4724,-3.1216
2024-10-11T12:06:51.488Z,-0.0015,-1.0024,0.1054,-0.0069,0.0706,-0.0740,-0.0165,0.0598,0.0025,-2.5882,1.4727,-3.1193
2024-10-11T12:06:51.498Z,-0.0046,-1.0036,0.0995,-0.0069,0.0706,-0.0740,-0.0145,0.0561,0.0016,-2.5882,1.4727,-3.1193
2024-10-11T12:06:51.508Z,-0.0028,-0.9996,0.0973,-0.0069,0.0706,-0.0740,-0.0139,0.0560,0.0046,-2.5882,1.4727,-3.1193
2024-10-11T12:06:51.518Z,0.0038,-1.0022,0.0949,-0.0611,0.0686,0.0255,-0.0173,0.0589,0.0036,-2.5898,1.4731,-3.1162
2024-10-11T12:06:51.527Z,0.0031,-1.0046,0.0904,-0.0611,0.0686,0.0255,-0.0134,0.0579,0.0062,-2.5898,1.4731,-3.1162
2024-10-11T12:06:51.538Z,0.0046,-1.0040,0.0872,-0.0611,0.0686,0.0255,-0.0122,0.0586,0.0049,-2.5898,1.4731,-3.1162
2024-10-11T12:06:51.548Z,0.0038,-0.9984,0.0899,-0.0646,0.0306,0.0712,-0.0121,0.0580,0.0057,-2.5917,1.4735,-3.1127
2024-10-11T12:06:51.558Z,0.0020,-0.9954,0.0931,-0.0646,0.0306,0.0712,-0.0112,0.0562,0.0047,-2.5917,1.4735,-3.1127
2024-10-11T12:06:51.567Z,-0.0032,-0.9975,0.0907,-0.0646,0.0306,0.0712,-0.0085,0.0598,0.0068,-2.5917,1.4735,-3.1127
2024-10-11T12:06:51.578Z,0.0008,-0.9940,0.0897,-0.0384,-0.0131,0.0700,-0.0087,0.0552,0.0041,-2.5934,1.4737,-3.1095
2024-10-11T12:06:51.587Z,0.0053,-0.9895,0.0900,-0.0384,-0.0131,0.0700,-0.0056,0.0557,0.0040,-2.5934,1.4737,-3.1095
2024-10-11T12:06:51.598Z,0.0005,-0.9908,0.0933,-0.0384,-0.0131,0.0700,-0.0058,0.0515,0.0030,-2.5934,1.4737,-3.1095
2024-10-11T12:06:51.608Z,-0.0008,-0.9943,0.0882,-0.0249,-0.0095,0.0839,-0.0062,0.0480,0.0009,-2.5941,1.4739,-3.1075
2024-10-11T12:06:51.618Z,0.0072,-0.9945,0.0851,-0.0249,-0.0095,0.0839,-0.0033,0.0432,0.0007,-2.5941,1.4739,-3.1075
2024-10-11T12:06:51.628Z,0.0060,-0.9914,0.0871,-0.0249,-0.0095,0.0839,-0.0040,0.0389,-0.0013,-2.5941,1.4739,-3.1075
2024-10-11T12:06:51.638Z,0.0105,-0.9904,0.0860,-0.1369,-0.0482,0.1041,-0.0016,0.0363,0.0016,-2.5947,1.4740,-3.1059
2024-10-11T12:06:51.648Z,0.0158,-0.9921,0.0806,-0.1369,-0.0482,0.1041,-0.0015,0.0302,0.0030,-2.5947,1.4740,-3.1059
2024-10-11T12:06:51.658Z,0.0151,-0.9932,0.0819,-0.1369,-0.0482,0.1041,0.0014,0.0254,0.0040,-2.5947,1.4740,-3.1059
2024-10-11T12:06:51.668Z,0.0119,-0.9907,0.0844,-0.1523,-0.0455,0.1205,0.0041,0.0236,0.0061,-2.5959,1.4739,-3.1041
2024-10-11T12:06:51.677Z,0.0100,-0.9889,0.0895,-0.1523,-0.0455,0.1205,0.0033,0.0199,0.0019,-2.5959,1.4739,-3.1041
2024-10-11T12:06:51.688Z,0.0076,-0.9912,0.0930,-0.1523,-0.0455,0.1205,0.0029,0.0144,0.0047,-2.5959,1.4739,-3.1041
2024-10-11T12:06:51.698Z,0.0051,-0.9958,0.0961,-0.0866,0.0045,0.0070,0.0041,0.0104,0.0038,-2.5971,1.4738,-3.1027
2024-10-11T12:06:51.708Z,0.0054,-0.9942,0.0991,-0.0866,0.0045,0.0070,0.0034,0.0104,0.0016,-2.5971,1.4738,-3.1027
2024-10-11T12:06:51.717Z,0.0081,-0.9930,0.1069,-0.0866,0.0045,0.0070,0.0011,0.0084,0.0060,-2.5971,1.4738,-3.1027
2024-10-11T12:06:51.727Z,0.0031,-0.9956,0.1113,-0.0679,0.0032,-0.1421,-0.0004,0.0112,0.0068,-2.5979,1.4738,-3.1018
2024-10-11T12:06:51.737Z,0.0046,-0.9977,0.1069,-0.0679,0.0032,-0.1421,-0.0015,0.0094,0.0047,-2.5979,1.4738,-3.1018
2024-10-11T12:06:51.748Z,0.0053,-0.9964,0.1021,-0.0679,0.0032,-0.1421,-0.0014,0.0115,0.0073,-2.5979,1.4738,-3.1018
2024-10-11T12:06:51.758Z,-0.0068,-0.9939,0.0977,0.0275,-0.0140,-0.0095,0.0015,0.0112,0.0043,-2.5990,1.4738,-3.1007
2024-10-11T12:06:51.768Z,-0.0117,-0.9943,0.0988,0.0275,-0.0140,-0.0095,-0.0040,0.0124,0.0043,-2.5990,1.4738,-3.1007
2024-10-11T12:06:51.778Z,-0.0087,-0.9932,0.0999,0.0275,-0.0140,-0.0095,-0.0033,0.0160,0.0044,-2.5990,1.4738,-3.1007
2024-10-11T12:06:51.788Z,-0.0190,-0.9895,0.1056,0.1469,-0.0568,-0.0874,-0.0012,0.0205,0.0037,-2.5999,1.4739,-3.0996
2024-10-11T12:06:51.798Z,-0.0282,-0.9861,0.1074,0.1469,-0.0568,-0.0874,-0.0012,0.0219,0.0026,-2.5999,1.4739,-3.0996
2024-10-11T12:06:51.808Z,-0.0293,-0.9874,0.1119,0.1469,-0.0568,-0.0874,-0.0019,0.0311,0.0027,-2.5999,1.4739,-3.0996
2024-10-11T12:06:51.818Z,-0.0305,-0.9897,0.1131,0.2584,-0.0555,-0.1610,-0.0054,0.0353,0.0001,-2.6002,1.4739,-3.0987
2024-10-11T12:06:51.828Z,-0.0305,-0.9913,0.1121,0.2584,-0.0555,-0.1610,-0.0053,0.0372,-0.0003,-2.6002,1.4739,-3.0987
2024-10-11T12:06:51.838Z,-0.0187,-0.9881,0.1160,0.2584,-0.0555,-0.1610,-0.0101,0.0342,-0.0016,-2.6002,1.4739,-3.0987
2024-10-11T12:06:51.848Z,-0.0017,-0.9888,0.1154,-0.0243,-0.0639,-0.1856,-0.0072,0.0265,-0.0047,-2.5999,1.4741,-3.0982
2024-10-11T12:06:51.858Z,0.0032,-0.9893,0.1120,-0.0243,-0.0639,-0.1856,-0.0118,0.0159,-0.0046,-2.5999,1.4741,-3.0982
2024-10-11T12:06:51.869Z,0.0079,-0.9909,0.1066,-0.0243,-0.0639,-0.1856,-0.0118,0.0072,-0.0064,-2.5999,1.4741,-3.0982
2024-10-11T12:06:51.878Z,0.0133,-0.9863,0.1036,-0.1705,-0.0884,-0.0720,-0.0094,-0.0010,-0.0082,-2.5993,1.4743,-3.0988
2024-10-11T12:06:51.888Z,0.0139,-0.9815,0.1018,-0.1705,-0.0884,-0.0720,-0.0074,-0.0092,-0.0070,-2.5993,1.4743,-3.0988
2024-10-11T12:06:51.898Z,0.0110,-0.9803,0.0987,-0.1705,-0.0884,-0.0720,-0.0090,-0.0138,-0.0096,-2.5993,1.4743,-3.0988
2024-10-11T12:06:51.908Z,0.0104,-0.9797,0.0959,-0.1410,-0.1535,0.0017,-0.0079,-0.0190,-0.0076,-2.5981,1.4745,-3.1005
2024-10-11T12:06:51.918Z,0.0073,-0.9773,0.0994,-0.1410,-0.1535,0.0017,-0.0079,-0.0229,-0.0086,-2.5981,1.4745,-3.1005
2024-10-11T12:06:51.927Z,0.0083,-0.9719,0.0954,-0.1410,-0.1535,0.0017,-0.0086,-0.0261,-0.0091,-2.5981,1.4745,-3.1005
2024-10-11T12:06:51.938Z,0.0064,-0.9722,0.0888,-0.0978,-0.2273,0.0697,-0.0063,-0.0327,-0.0084,-2.5952,1.4747,-3.1044
2024-10-11T12:06:51.948Z,0.0053,-0.9741,0.0853,-0.0978,-0.2273,0.0697,-0.0028,-0.0344,-0.0073,-2.5952,1.4747,-3.1044
2024-10-11T12:06:51.958Z,0.0084,-0.9695,0.0889,-0.0978,-0.2273,0.0697,-0.0054,-0.0375,-0.0108,-2.5952,1.4747,-3.1044
2024-10-11T12:06:51.968Z,0.0157,-0.9634,0.0920,-0.1851,-0.3134,0.0379,-0.0036,-0.0364,-0.0060,-2.5921,1.4748,-3.1089
2024-10-11T12:06:51.978Z,0.0214,-0.9627,0.0877,-0.1851,-0.3134,0.0379,0.0013,-0.0375,-0.0049,-2.5921,1.4748,-3.1089
2024-10-11T12:06:51.988Z,0.0193,-0.9617,0.0797,-0.1851,-0.3134,0.0379,0.0020,-0.0373,-0.0075,-2.5921,1.4748,-3.1089
2024-10-11T12:06:51.998Z,0.0187,-0.9672,0.0804,-0.2109,-0.2764,0.1529,0.0008,-0.0411,-0.0052,-2.5896,1.4747,-3.1128
2024-10-11T12:06:52.008Z,0.0141,-0.9709,0.0812,-0.2109,-0.2764,0.1529,0.0034,-0.0372,-0.0090,-2.5896,1.4747,-3.1128
2024-10-11T12:06:52.018Z,0.0062,-0.9776,0.0798,-0.2109,-0.2764,0.1529,0.0031,-0.0432,-0.0066,-2.5896,1.4747,-3.1128
2024-10-11T12:06:52.028Z,0.0058,-0.9871,0.0761,-0.0801,-0.0810,0.1952,0.0034,-0.0485,-0.0090,-2.5875,1.4746,-3.1164
2024-10-11T12:06:52.038Z,0.0082,-0.9923,0.0738,-0.0801,-0.0810,0.1952,-0.0022,-0.0533,-0.0084,-2.5875,1.4746,-3.1164
2024-10-11T12:06:52.048Z,0.0045,-0.9928,0.0736,-0.0801,-0.0810,0.1952,-0.0024,-0.0570,-0.0111,-2.5875,1.4746,-3.1164
2024-10-11T12:06:52.058Z,0.0038,-0.9951,0.0723,-0.0559,-0.0027,0.2323,-0.0032,-0.0638,-0.0087,-2.5844,1.4746,-3.1214
2024-10-11T12:06:52.068Z,0.0084,-1.0003,0.0689,-0.0559,-0.0027,0.2323,0.0021,-0.0672,-0.0105,-2.5844,1.4746,-3.1214
2024-10-11T12:06:52.078Z,0.0112,-1.0037,0.0752,-0.0559,-0.0027,0.2323,0.0025,-0.0689,-0.0097,-2.5844,1.4746,-3.1214
2024-10-11T12:06:52.089Z,0.0101,-0.9937,0.0743,-0.1134,-0.0160,0.2136,0.0017,-0.0691,-0.0083,-2.5816,1.4746,-3.1264
2024-10-11T12:06:52.098Z,0.0119,-0.9878,0.0750,-0.1134,-0.0160,0.2136,0.0048,-0.0686,-0.0097,-2.5816,1.4746,-3.1264
2024-10-11T12:06:52.108Z,0.0037,-0.9910,0.0771,-0.1134,-0.0160,0.2136,0.0039,-0.0673,-0.0081,-2.5816,1.4746,-3.1264
2024-10-11T12:06:52.118Z,0.0028,-0.9889,0.0797,-0.0373,-0.0633,0.1619,0.0071,-0.0647,-0.0081,-2.5787,1.4744,-3.1315
2024-10-11T12:06:52.128Z,0.0051,-0.9855,0.0791,-0.0373,-0.0633,0.1619,0.0070,-0.0593,-0.0097,-2.5787,1.4744,-3.1315
2024-10-11T12:06:52.138Z,-0.0087,-0.9837,0.0841,-0.0373,-0.0633,0.1619,0.0068,-0.0568,-0.0092,-2.5787,1.4744,-3.1315
2024-10-11T12:06:52.148Z,-0.0120,-0.9753,0.0797,0.1127,-0.1968,0.1644,0.0089,-0.0508,-0.0110,-2.5757,1.4742,-3.1364
2024-10-11T12:06:52.158Z,0.0002,-0.9786,0.0844,0.1127,-0.1968,0.1644,0.0060,-0.0485,-0.0105,-2.5757,1.4742,-3.1364
2024-10-11T12:06:52.168Z,0.0044,-0.9831,0.0870,0.1127,-0.1968,0.1644,0.0067,-0.0470,-0.0077,-2.5757,1.4742,-3.1364
2024-10-11T12:06:52.178Z,0.0071,-0.9792,0.0936,-0.0704,-0.1579,0.0306,0.0088,-0.0437,-0.0076,-2.5728,1.4740,-3.1410
2024-10-11T12:06:52.188Z,0.0002,-0.9894,0.0923,-0.0704,-0.1579,0.0306,0.0093,-0.0422,-0.0067,-2.5728,1.4740,-3.1410
2024-10-11T12:06:52.198Z,0.0012,-0.9927,0.0865,-0.0704,-0.1579,0.0306,0.0093,-0.0405,-0.0069,-2.5728,1.4740,-3.1410
2024-10-11T12:06:52.208Z,0.0013,-0.9954,0.0872,-0.0097,0.0012,0.0961,0.0111,-0.0323,-0.0069,-2.5708,1.4737,3.1389
2024-10-11T12:06:52.218Z,-0.0025,-0.9978,0.0885,-0.0097,0.0012,0.0961,0.0133,-0.0334,-0.0089,-2.5708,1.4737,3.1389
2024-10-11T12:06:52.228Z,-0.0014,-1.0093,0.0908,-0.0097,0.0012,0.0961,0.0144,-0.0329,-0.0088,-2.5708,1.4737,3.1389
2024-10-11T12:06:52.238Z,-0.0030,-1.0163,0.0948,0.0350,0.2070,0.0256,0.0122,-0.0361,-0.0091,-2.5687,1.4732,3.1355
2024-10-11T12:06:52.247Z,0.0035,-1.0227,0.0965,0.0350,0.2070,0.0256,0.0121,-0.0371,-0.0080,-2.5687,1.4732,3.1355
2024-10-11T12:06:52.258Z,0.0092,-1.0181,0.0931,0.0350,0.2070,0.0256,0.0080,-0.0425,-0.0110,-2.5687,1.4732,3.1355
2024-10-11T12:06:52.268Z,0.0050,-1.0197,0.0891,-0.0392,0.2400,0.0842,0.0046,-0.0411,-0.0115,-2.5659,1.4729,3.1312
2024-10-11T12:06:52.279Z,0.0111,-1.0135,0.0870,-0.0392,0.2400,0.0842,-0.0002,-0.0454,-0.0128,-2.5659,1.4729,3.1312
2024-10-11T12:06:52.288Z,0.0207,-1.0105,0.0901,-0.0392,0.2400,0.0842,-0.0039,-0.0495,-0.0125,-2.5659,1.4729,3.1312
2024-10-11T12:06:52.298Z,0.0172,-1.0029,0.0912,-0.1532,0.0758,0.0631,-0.0069,-0.0511,-0.0141,-2.5617,1.4729,3.1254
2024-10-11T12:06:52.309Z,0.0161,-0.9952,0.0915,-0.1532,0.0758,0.0631,-0.0069,-0.0512,-0.0179,-2.5617,1.4729,3.1254
2024-10-11T12:06:52.318Z,0.0141,-0.9868,0.0911,-0.1532,0.0758,0.0631,-0.0089,-0.0510,-0.0173,-2.5617,1.4729,3.1254
2024-10-11T12:06:52.328Z,0.0138,-0.9831,0.0889,-0.1134,-0.1190,0.0840,-0.0100,-0.0523,-0.0191,-2.5563,1.4731,3.1182
2024-10-11T12:06:52.338Z,0.0070,-0.9784,0.0929,-0.1134,-0.1190,0.0840,-0.0100,-0.0503,-0.0205,-2.5563,1.4731,3.1182
2024-10-11T12:06:52.348Z,0.0018,-0.9767,0.0922,-0.1134,-0.1190,0.0840,-0.0083,-0.0464,-0.0206,-2.5563,1.4731,3.1182
2024-10-11T12:06:52.358Z,-0.0002,-0.9781,0.0919,0.0312,-0.1681,0.0530,-0.0080,-0.0415,-0.0200,-2.5501,1.4733,3.1105
2024-10-11T12:06:52.368Z,-0.0005,-0.9780,0.0945,0.0312,-0.1681,0.0530,-0.0054,-0.0323,-0.0203,-2.5501,1.4733,3.1105
2024-10-11T12:06:52.378Z,-0.0004,-0.9768,0.0919,0.0312,-0.1681,0.0530,-0.0039,-0.0243,-0.0211,-2.5501,1.4733,3.1105
2024-10-11T12:06:52.388Z,-0.0031,-0.9819,0.0910,0.0672,-0.1312,0.0602,-0.0027,-0.0126,-0.0210,-2.5441,1.4734,3.1034
2024-10-11T12:06:52.398Z,-0.0061,-0.9839,0.0878,0.0672,-0.1312,0.0602,-0.0012,-0.0031,-0.0212,-2.5441,1.4734,3.1034
2024-10-11T12:06:52.408Z,-0.0022,-0.9860,0.0890,0.0672,-0.1312,0.0602,0.0026,0.0022,-0.0182,-2.5441,1.4734,3.1034
2024-10-11T12:06:52.418Z,0.0011,-0.9830,0.0914,0.0307,-0.1199,0.0573,0.0075,0.0059,-0.0164,-2.5386,1.4733,3.0978
2024-10-11T12:06:52.428Z,0.0025,-0.9824,0.0956,0.0307,-0.1199,0.0573,0.0098,0.0155,-0.0129,-2.5386,1.4733,3.0978
2024-10-11T12:06:52.438Z,-0.0004,-0.9803,0.0987,0.0307,-0.1199,0.0573,0.0128,0.0196,-0.0096,-2.5386,1.4733,3.0978
2024-10-11T12:06:52.447Z,-0.0041,-0.9788,0.1058,0.0849,-0.1608,-0.0808,0.0131,0.0312,-0.0087,-2.5355,1.4730,3.0950
2024-10-11T12:06:52.458Z,-0.0071,-0.9800,0.1159,0.0849,-0.1608,-0.0808,0.0170,0.0379,-0.0073,-2.5355,1.4730,3.0950
2024-10-11T12:06:52.468Z,-0.0045,-0.9801,0.1291,0.0849,-0.1608,-0.0808,0.0199,0.0444,-0.0085,-2.5355,1.4730,3.0950
2024-10-11T12:06:52.478Z,-0.0056,-0.9836,0.1369,0.1005,-0.1130,-0.3802,0.0174,0.0500,-0.0067,-2.5336,1.4724,3.0941
2024-10-11T12:06:52.488Z,-0.0003,-0.9915,0.1364,0.1005,-0.1130,-0.3802,0.0178,0.0567,-0.0049,-2.5336,1.4724,3.0941
2024-10-11T12:06:52.498Z,0.0076,-0.9995,0.1328,0.1005,-0.1130,-0.3802,0.0217,0.0590,-0.0029,-2.5336,1.4724,3.0941
2024-10-11T12:06:52.508Z,0.0165,-1.0098,0.1263,-0.1171,0.1443,-0.2698,0.0191,0.0628,-0.0015,-2.5329,1.4717,3.0950
2024-10-11T12:06:52.518Z,0.0145,-1.0250,0.1185,-0.1171,0.1443,-0.2698,0.0199,0.0599,-0.0000,-2.5329,1.4717,3.0950
2024-10-11T12:06:52.529Z,0.0190,-1.0394,0.1116,-0.1171,0.1443,-0.2698,0.0222,0.0511,0.0022,-2.5329,1.4717,3.0950
2024-10-11T12:06:52.538Z,0.0225,-1.0511,0.1097,-0.1781,0.5502,-0.1006,0.0217,0.0418,0.0071,-2.5347,1.4710,3.0980
2024-10-11T12:06:52.548Z,0.0246,-1.0565,0.1115,-0.1781,0.5502,-0.1006,0.0206,0.0352,0.0081,-2.5347,1.4710,3.0980
2024-10-11T12:06:52.558Z,0.0238,-1.0593,0.1165,-0.1781,0.5502,-0.1006,0.0187,0.0234,0.0094,-2.5347,1.4710,3.0980
2024-10-11T12:06:52.568Z,0.0285,-1.0597,0.1200,-0.2405,0.6346,-0.1953,0.0151,0.0140,0.0143,-2.5381,1.4704,3.1021
2024-10-11T12:06:52.578Z,0.0372,-1.0558,0.1289,-0.2405,0.6346,-0.1953,0.0132,0.0011,0.0185,-2.5381,1.4704,3.1021
2024-10-11T12:06:52.588Z,0.0305,-1.0511,0.1351,-0.2405,0.6346,-0.1953,0.0140,-0.0100,0.0226,-2.5381,1.4704,3.1021
2024-10-11T12:06:52.598Z,0.0292,-1.0511,0.1376,-0.2529,0.5509,-0.3636,0.0107,-0.0194,0.0214,-2.5443,1.4700,3.1077
2024-10-11T12:06:52.608Z,0.0251,-1.0485,0.1403,-0.2529,0.5509,-0.3636,0.0127,-0.0246,0.0269,-2.5443,1.4700,3.1077
2024-10-11T12:06:52.618Z,0.0147,-1.0431,0.1460,-0.2529,0.5509,-0.3636,0.0153,-0.0308,0.0289,-2.5443,1.4700,3.1077
2024-10-11T12:06:52.628Z,0.0128,-1.0360,0.1557,-0.0993,0.4032,-0.5356,0.0177,-0.0301,0.0305,-2.5526,1.4695,3.1149
2024-10-11T12:06:52.638Z,0.0023,-1.0323,0.1634,-0.0993,0.4032,-0.5356,0.0253,-0.0283,0.0315,-2.5526,1.4695,3.1149
2024-10-11T12:06:52.648Z,-0.0086,-1.0330,0.1728,-0.0993,0.4032,-0.5356,0.0337,-0.0235,0.0304,-2.5526,1.4695,3.1149
2024-10-11T12:06:52.658Z,-0.0132,-1.0312,0.1825,0.1479,0.3572,-0.7889,0.0423,-0.0210,0.0326,-2.5619,1.4685,3.1232
2024-10-11T12:06:52.668Z,-0.0158,-1.0235,0.1902,0.1479,0.3572,-0.7889,0.0467,-0.0120,0.0338,-2.5619,1.4685,3.1232
2024-10-11T12:06:52.678Z,-0.0253,-1.0191,0.1982,0.1479,0.3572,-0.7889,0.0501,-0.0014,0.0288,-2.5619,1.4685,3.1232
2024-10-11T12:06:52.688Z,-0.0300,-1.0091,0.1966,0.3046,0.1425,-0.9115,0.0559,0.0047,0.0296,-2.5711,1.4670,3.1319
2024-10-11T12:06:52.698Z,-0.0256,-0.9971,0.1947,0.3046,0.1425,-0.9115,0.0564,0.0055,0.0264,-2.5711,1.4670,3.1319
2024-10-11T12:06:52.708Z,-0.0257,-0.9956,0.1937,0.3046,0.1425,-0.9115,0.0582,0.0072,0.0269,-2.5711,1.4670,3.1319
2024-10-11T12:06:52.718Z,-0.0225,-1.0029,0.1882,0.2229,0.0830,-0.8115,0.0565,0.0061,0.0271,-2.5792,1.4652,3.1398
2024-10-11T12:06:52.729Z,-0.0188,-1.0110,0.1854,0.2229,0.0830,-0.8115,0.0551,0.0024,0.0247,-2.5792,1.4652,3.1398
2024-10-11T12:06:52.738Z,-0.0125,-1.0134,0.1849,0.2229,0.0830,-0.8115,0.0483,-0.0020,0.0228,-2.5792,1.4652,3.1398
2024-10-11T12:06:52.747Z,-0.0097,-1.0145,0.1859,0.0899,0.1981,-0.7736,0.0388,-0.0038,0.0190,-2.5859,1.4636,-3.1370
2024-10-11T12:06:52.758Z,-0.0063,-1.0124,0.1841,0.0899,0.1981,-0.7736,0.0350,-0.0151,0.0171,-2.5859,1.4636,-3.1370
2024-10-11T12:06:52.768Z,-0.0097,-1.0138,0.1792,0.0899,0.1981,-0.7736,0.0270,-0.0275,0.0147,-2.5859,1.4636,-3.1370
2024-10-11T12:06:52.779Z,-0.0014,-1.0150,0.1678,0.0045,0.2045,-0.5869,0.0221,-0.0403,0.0134,-2.5908,1.4626,-3.1331
2024-10-11T12:06:52.788Z,0.0009,-1.0167,0.1632,0.0045,0.2045,-0.5869,0.0208,-0.0604,0.0109,-2.5908,1.4626,-3.1331
2024-10-11T12:06:52.798Z,-0.0013,-1.0174,0.1623,0.0045,0.2045,-0.5869,0.0219,-0.0767,0.0107,-2.5908,1.4626,-3.1331
2024-10-11T12:06:52.808Z,-0.0011,-1.0138,0.1654,0.0011,0.1939,-0.5569,0.0196,-0.0969,0.0086,-2.5940,1.4619,-3.1324
2024-10-11T12:06:52.818Z,0.0053,-1.0071,0.1690,0.0011,0.1939,-0.5569,0.0217,-0.1163,0.0087,-2.5940,1.4619,-3.1324
2024-10-11T12:06:52.828Z,0.0106,-0.9972,0.1708,0.0011,0.1939,-0.5569,0.0198,-0.1365,0.0088,-2.5940,1.4619,-3.1324
2024-10-11T12:06:52.838Z,0.0119,-0.9901,0.1767,-0.1247,-0.0380,-0.6611,0.0165,-0.1539,0.0079,-2.5964,1.4613,-3.1341
2024-10-11T12:06:52.847Z,0.0103,-0.9894,0.1752,-0.1247,-0.0380,-0.6611,0.0117,-0.1698,0.0100,-2.5964,1.4613,-3.1341
2024-10-11T12:06:52.858Z,0.0074,-0.9931,0.1697,-0.1247,-0.0380,-0.6611,0.0072,-0.1840,0.0118,-2.5964,1.4613,-3.1341
2024-10-11T12:06:52.868Z,0.0034,-0.9982,0.1625,-0.0383,0.0417,-0.5182,-0.0014,-0.1932,0.0096,-2.5994,1.4609,-3.1368
2024-10-11T12:06:52.878Z,-0.0078,-1.0071,0.1514,-0.0383,0.0417,-0.5182,-0.0086,-0.2024,0.0118,-2.5994,1.4609,-3.1368
2024-10-11T12:06:52.888Z,-0.0127,-1.0199,0.1342,-0.0383,0.0417,-0.5182,-0.0137,-0.2052,0.0131,-2.5994,1.4609,-3.1368
2024-10-11T12:06:52.898Z,-0.0240,-1.0303,0.1202,0.2333,0.3565,-0.1058,-0.0181,-0.2034,0.0163,-2.6032,1.4612,-3.1393
2024-10-11T12:06:52.908Z,-0.0288,-1.0362,0.1118,0.2333,0.3565,-0.1058,-0.0294,-0.2033,0.0155,-2.6032,1.4612,-3.1393
2024-10-11T12:06:52.919Z,-0.0330,-1.0442,0.1047,0.2333,0.3565,-0.1058,-0.0433,-0.1897,0.0220,-2.6032,1.4612,-3.1393
2024-10-11T12:06:52.929Z,-0.0364,-1.0454,0.0955,0.3551,0.5029,0.1268,-0.0433,-0.1897,0.0220,-2.6089,1.4622,-3.1398
2024-10-11T12:06:52.939Z,-0.0416,-1.0403,0.0855,0.3551,0.5029,0.1268,-0.0535,-0.1615,0.0285,-2.6089,1.4622,-3.1398
2024-10-11T12:06:52.948Z,-0.0484,-1.0234,0.0820,0.3551,0.5029,0.1268,-0.0535,-0.1615,0.0285,-2.6089,1.4622,-3.1398
2024-10-11T12:06:52.958Z,-0.0555,-1.0030,0.0774,0.5396,0.0859,0.2901,-0.0553,-0.1424,0.0315,-2.6169,1.4636,-3.1370
2024-10-11T12:06:52.967Z,-0.0634,-0.9810,0.0763,0.5396,0.0859,0.2901,-0.0563,-0.1250,0.0333,-2.6169,1.4636,-3.1370
2024-10-11T12:06:52.977Z,-0.0677,-0.9600,0.0776,0.5396,0.0859,0.2901,-0.0535,-0.1106,0.0369,-2.6169,1.4636,-3.1370
2024-10-11T12:06:52.989Z,-0.0699,-0.9404,0.0846,0.6736,-0.5302,0.2033,-0.0514,-0.0745,0.0418,-2.6275,1.4652,-3.1303
2024-10-11T12:06:52.999Z,-0.0741,-0.9242,0.0956,0.6736,-0.5302,0.2033,-0.0532,-0.0548,0.0433,-2.6275,1.4652,-3.1303
2024-10-11T12:06:53.009Z,-0.0776,-0.9148,0.1031,0.6736,-0.5302,0.2033,-0.0489,-0.0385,0.0428,-2.6275,1.4652,-3.1303
2024-10-11T12:06:53.019Z,-0.0764,-0.9125,0.1045,0.7271,-0.8051,-0.0067,-0.0454,-0.0161,0.0399,-2.6400,1.4667,-3.1199
2024-10-11T12:06:53.029Z,-0.0797,-0.9108,0.1049,0.7271,-0.8051,-0.0067,-0.0454,-0.0161,0.0399,-2.6400,1.4667,-3.1199
2024-10-11T12:06:53.039Z,-0.0843,-0.9105,0.1030,0.7271,-0.8051,-0.0067,-0.0303,0.0128,0.0406,-2.6400,1.4667,-3.1199
2024-10-11T12:06:53.049Z,-0.0795,-0.9142,0.1008,0.7460,-0.7901,0.0190,-0.0248,0.0227,0.0390,-2.6525,1.4678,-3.1079
2024-10-11T12:06:53.059Z,-0.0756,-0.9196,0.0939,0.7460,-0.7901,0.0190,-0.0172,0.0278,0.0367,-2.6525,1.4678,-3.1079
2024-10-11T12:06:53.069Z,-0.0724,-0.9218,0.0934,0.7460,-0.7901,0.0190,-0.0101,0.0359,0.0342,-2.6525,1.4678,-3.1079
2024-10-11T12:06:53.079Z,-0.0696,-0.9229,0.1004,0.6369,-0.7051,0.0179,-0.0101,0.0359,0.0342,-2.6640,1.4683,-3.0958
2024-10-11T12:06:53.089Z,-0.0708,-0.9281,0.1123,0.6369,-0.7051,0.0179,-0.0001,0.0338,0.0256,-2.6640,1.4683,-3.0958
2024-10-11T12:06:53.099Z,-0.0663,-0.9356,0.1180,0.6369,-0.7051,0.0179,0.0055,0.0346,0.0244,-2.6640,1.4683,-3.0958
2024-10-11T12:06:53.108Z,-0.0550,-0.9406,0.1198,0.4837,-0.5313,-0.1719,0.0112,0.0321,0.0238,-2.6727,1.4682,-3.0864
2024-10-11T12:06:53.118Z,-0.0470,-0.9408,0.1260,0.4837,-0.5313,-0.1719,0.0174,0.0333,0.0201,-2.6727,1.4682,-3.0864
2024-10-11T12:06:53.132Z,-0.0440,-0.9410,0.1348,0.2845,-0.4769,-0.3300,0.0217,0.0350,0.0185,-2.6790,1.4677,-3.0793
2024-10-11T12:06:53.138Z,-0.0354,-0.9461,0.1364,0.2845,-0.4769,-0.3300,0.0260,0.0403,0.0132,-2.6790,1.4677,-3.0793
2024-10-11T12:06:53.148Z,-0.0287,-0.9506,0.1351,0.2845,-0.4769,-0.3300,0.0301,0.0454,0.0095,-2.6790,1.4677,-3.0793
2024-10-11T12:06:53.158Z,-0.0257,-0.9534,0.1375,0.2845,-0.4769,-0.3300,0.0326,0.0488,0.0088,-2.6790,1.4677,-3.0793
2024-10-11T12:06:53.168Z,-0.0198,-0.9532,0.1415,0.1267,-0.4061,-0.3714,0.0326,0.0488,0.0088,-2.6822,1.4668,-3.0750
2024-10-11T12:06:53.180Z,-0.0138,-0.9565,0.1428,0.1267,-0.4061,-0.3714,0.0398,0.0513,0.0036,-2.6822,1.4668,-3.0750
2024-10-11T12:06:53.188Z,-0.0104,-0.9604,0.1416,0.1267,-0.4061,-0.3714,0.0441,0.0503,0.0012,-2.6822,1.4668,-3.0750
2024-10-11T12:06:53.199Z,-0.0092,-0.9640,0.1447,0.0192,-0.2986,-0.3904,0.0492,0.0529,-0.0012,-2.6836,1.4655,-3.0723
2024-10-11T12:06:53.208Z,-0.0059,-0.9672,0.1482,0.0192,-0.2986,-0.3904,0.0548,0.0558,-0.0012,-2.6836,1.4655,-3.0723
2024-10-11T12:06:53.219Z,-0.0077,-0.9751,0.1497,0.0192,-0.2986,-0.3904,0.0585,0.0584,-0.0037,-2.6836,1.4655,-3.0723
2024-10-11T12:06:53.230Z,-0.0141,-0.9799,0.1507,0.0649,-0.1412,-0.4334,0.0597,0.0644,-0.0097,-2.6829,1.4638,-3.0718
2024-10-11T12:06:53.238Z,-0.0093,-0.9816,0.1523,0.0649,-0.1412,-0.4334,0.0620,0.0677,-0.0140,-2.6829,1.4638,-3.0718
2024-10-11T12:06:53.248Z,-0.0144,-0.9832,0.1557,0.0649,-0.1412,-0.4334,0.0613,0.0722,-0.0169,-2.6829,1.4638,-3.0718
2024-10-11T12:06:53.258Z,-0.0227,-0.9862,0.1617,0.1511,-0.0773,-0.5242,0.0610,0.0771,-0.0185,-2.6785,1.4620,-3.0743
2024-10-11T12:06:53.269Z,-0.0165,-0.9888,0.1617,0.1511,-0.0773,-0.5242,0.0632,0.0763,-0.0222,-2.6785,1.4620,-3.0743
2024-10-11T12:06:53.281Z,-0.0165,-0.9888,0.1617,0.1551,-0.0460,-0.5059,0.0632,0.0785,-0.0283,-2.6715,1.4601,-3.0792
2024-10-11T12:06:53.288Z,-0.0227,-0.9892,0.1618,0.1551,-0.0460,-0.5059,0.0623,0.0831,-0.0303,-2.6715,1.4601,-3.0792
2024-10-11T12:06:53.298Z,-0.0268,-0.9894,0.1615,0.1551,-0.0460,-0.5059,0.0636,0.0918,-0.0382,-2.6715,1.4601,-3.0792
2024-10-11T12:06:53.308Z,-0.0356,-1.0003,0.1543,0.1551,-0.0460,-0.5059,0.0633,0.0995,-0.0445,-2.6715,1.4601,-3.0792
2024-10-11T12:06:53.318Z,-0.0287,-1.0107,0.1467,0.2217,0.1667,-0.3392,0.0567,0.1080,-0.0475,-2.6608,1.4583,-3.0874
2024-10-11T12:06:53.328Z,-0.0293,-1.0304,0.1352,0.2217,0.1667,-0.3392,0.0567,0.1080,-0.0475,-2.6608,1.4583,-3.0874
2024-10-11T12:06:53.338Z,-0.0293,-1.0304,0.1352,0.2217,0.1667,-0.3392,0.0483,0.1174,-0.0524,-2.6608,1.4583,-3.0874
2024-10-11T12:06:53.349Z,-0.0197,-1.0751,0.1054,0.1416,0.5843,-0.0618,0.0404,0.1189,-0.0511,-2.6472,1.4567,-3.0979
2024-10-11T12:06:53.358Z,-0.0197,-1.0751,0.1054,0.1416,0.5843,-0.0618,0.0338,0.1207,-0.0513,-2.6472,1.4567,-3.0979
2024-10-11T12:06:53.369Z,-0.0098,-1.0770,0.0935,0.0318,0.8343,0.2730,0.0338,0.1207,-0.0513,-2.6340,1.4556,-3.1077
2024-10-11T12:06:53.379Z,-0.0071,-1.0784,0.0871,0.0318,0.8343,0.2730,0.0269,0.1294,-0.0438,-2.6340,1.4556,-3.1077
2024-10-11T12:06:53.389Z,-0.0047,-1.0735,0.0723,0.0318,0.8343,0.2730,0.0275,0.1377,-0.0394,-2.6340,1.4556,-3.1077
2024-10-11T12:06:53.398Z,-0.0047,-1.0735,0.0723,0.0318,0.8343,0.2730,0.0290,0.1528,-0.0381,-2.6340,1.4556,-3.1077
2024-10-11T12:06:53.408Z,-0.0083,-1.0699,0.0723,0.0506,0.7519,0.4264,0.0368,0.1665,-0.0348,-2.6236,1.4547,-3.1142
2024-10-11T12:06:53.418Z,-0.0171,-1.0649,0.0805,0.0506,0.7519,0.4264,0.0490,0.1798,-0.0318,-2.6236,1.4547,-3.1142
2024-10-11T12:06:53.428Z,-0.0170,-1.0506,0.0848,0.0506,0.7519,0.4264,0.0594,0.2024,-0.0316,-2.6236,1.4547,-3.1142
2024-10-11T12:06:53.438Z,-0.0213,-1.0199,0.1065,0.1290,0.4477,0.2388,0.0738,0.2213,-0.0306,-2.6154,1.4533,-3.1172
2024-10-11T12:06:53.448Z,-0.0213,-1.0199,0.1065,0.1290,0.4477,0.2388,0.0869,0.2426,-0.0312,-2.6154,1.4533,-3.1172
2024-10-11T12:06:53.458Z,-0.0212,-1.0008,0.1222,0.1290,0.4477,0.2388,0.0973,0.2589,-0.0298,-2.6154,1.4533,-3.1172
2024-10-11T12:06:53.468Z,-0.0155,-0.9879,0.1337,0.1251,-0.0480,-0.1369,0.1044,0.2639,-0.0283,-2.6074,1.4508,-3.1183
2024-10-11T12:06:53.478Z,-0.0061,-0.9805,0.1416,0.1251,-0.0480,-0.1369,0.1114,0.2698,-0.0187,-2.6074,1.4508,-3.1183
2024-10-11T12:06:53.489Z,0.0068,-0.9769,0.1471,-0.2198,-0.1425,-0.3209,0.1159,0.2650,-0.0102,-2.6022,1.4474,-3.1158
2024-10-11T12:06:53.498Z,0.0192,-0.9779,0.1557,-0.2198,-0.1425,-0.3209,0.1228,0.2599,-0.0054,-2.6022,1.4474,-3.1158
2024-10-11T12:06:53.509Z,0.0262,-0.9836,0.1608,-0.2198,-0.1425,-0.3209,0.1249,0.2557,-0.0004,-2.6022,1.4474,-3.1158
2024-10-11T12:06:53.518Z,0.0262,-0.9836,0.1608,-0.2198,-0.1425,-0.3209,0.1286,0.2574,0.0068,-2.6022,1.4474,-3.1158
2024-10-11T12:06:53.528Z,0.0173,-0.9809,0.1669,-0.2554,-0.0703,-0.3812,0.1262,0.2582,0.0133,-2.6018,1.4436,-3.1087
2024-10-11T12:06:53.539Z,0.0181,-0.9814,0.1632,-0.2554,-0.0703,-0.3812,0.1250,0.2608,0.0156,-2.6018,1.4436,-3.1087
2024-10-11T12:06:53.547Z,0.0181,-0.9814,0.1632,-0.2554,-0.0703,-0.3812,0.1240,0.2647,0.0221,-2.6018,1.4436,-3.1087
2024-10-11T12:06:53.559Z,0.0104,-0.9892,0.1518,-0.2094,-0.0486,-0.2598,0.1201,0.2689,0.0216,-2.6047,1.4398,-3.0983
2024-10-11T12:06:53.567Z,0.0104,-0.9892,0.1518,-0.2094,-0.0486,-0.2598,0.1160,0.2770,0.0226,-2.6047,1.4398,-3.0983
2024-10-11T12:06:53.579Z,0.0055,-0.9936,0.1449,-0.0704,0.0924,-0.0837,0.1100,0.2873,0.0220,-2.6090,1.4362,-3.0859
2024-10-11T12:06:53.588Z,-0.0043,-1.0081,0.1332,-0.0704,0.0924,-0.0837,0.1043,0.2968,0.0218,-2.6090,1.4362,-3.0859
2024-10-11T12:06:53.598Z,-0.0043,-1.0081,0.1332,-0.0704,0.0924,-0.0837,0.0969,0.3037,0.0252,-2.6090,1.4362,-3.0859
2024-10-11T12:06:53.609Z,-0.0015,-1.0179,0.1308,-0.0690,0.2881,0.0510,0.0945,0.3135,0.0301,-2.6139,1.4331,-3.0723
2024-10-11T12:06:53.619Z,-0.0161,-1.0209,0.1353,-0.0690,0.2881,0.0510,0.0884,0.3307,0.0280,-2.6139,1.4331,-3.0723
2024-10-11T12:06:53.628Z,-0.0249,-1.0198,0.1406,-0.0690,0.2881,0.0510,0.0754,0.3472,0.0314,-2.6139,1.4331,-3.0723
2024-10-11T12:06:53.639Z,-0.0249,-1.0198,0.1406,0.2192,0.3747,-0.0787,0.0651,0.3692,0.0279,-2.6195,1.4306,-3.0566
2024-10-11T12:06:53.648Z,-0.0342,-1.0284,0.1473,0.2192,0.3747,-0.0787,0.0592,0.3973,0.0255,-2.6195,1.4306,-3.0566
2024-10-11T12:06:53.658Z,-0.0533,-1.0415,0.1561,0.2192,0.3747,-0.0787,0.0503,0.4244,0.0240,-2.6195,1.4306,-3.0566
2024-10-11T12:06:53.668Z,-0.0533,-1.0415,0.1561,0.2192,0.3747,-0.0787,0.0433,0.4519,0.0180,-2.6195,1.4306,-3.0566
2024-10-11T12:06:53.678Z,-0.0631,-1.0597,0.1551,0.4501,0.5899,-0.1205,0.0345,0.4788,0.0134,-2.6238,1.4289,-3.0402
2024-10-11T12:06:53.688Z,-0.0681,-1.0653,0.1595,0.4501,0.5899,-0.1205,0.0229,0.5092,0.0038,-2.6238,1.4289,-3.0402
2024-10-11T12:06:53.697Z,-0.0687,-1.0706,0.1641,0.4501,0.5899,-0.1205,0.0229,0.5092,0.0038,-2.6238,1.4289,-3.0402
2024-10-11T12:06:53.708Z,-0.0613,-1.0750,0.1595,0.5115,0.7927,-0.2241,0.0003,0.5512,-0.0134,-2.6244,1.4281,-3.0248
2024-10-11T12:06:53.718Z,-0.0545,-1.0821,0.1545,0.5115,0.7927,-0.2241,-0.0080,0.5638,-0.0188,-2.6244,1.4281,-3.0248
2024-10-11T12:06:53.728Z,-0.0545,-1.0821,0.1545,0.2491,0.9361,-0.0967,-0.0219,0.5638,-0.0264,-2.6207,1.4284,-3.0120
2024-10-11T12:06:53.738Z,-0.0334,-1.0839,0.1489,0.2491,0.9361,-0.0967,-0.0332,0.5617,-0.0352,-2.6207,1.4284,-3.0120
2024-10-11T12:06:53.748Z,-0.0334,-1.0839,0.1489,0.2491,0.9361,-0.0967,-0.0469,0.5549,-0.0451,-2.6207,1.4284,-3.0120
2024-10-11T12:06:53.758Z,-0.0187,-1.0661,0.1528,-0.0071,0.7458,-0.1332,-0.0558,0.5489,-0.0522,-2.6133,1.4298,-3.0029
2024-10-11T12:06:53.767Z,-0.0069,-1.0465,0.1568,-0.0071,0.7458,-0.1332,-0.0666,0.5371,-0.0610,-2.6133,1.4298,-3.0029
2024-10-11T12:06:53.778Z,0.0057,-1.0258,0.1678,-0.0071,0.7458,-0.1332,-0.0771,0.5213,-0.0661,-2.6133,1.4298,-3.0029
2024-10-11T12:06:53.788Z,0.0173,-1.0030,0.1743,-0.3629,0.1234,-0.3683,-0.0874,0.5009,-0.0687,-2.6025,1.4322,-2.9982
2024-10-11T12:06:53.797Z,0.0331,-0.9844,0.1790,-0.3629,0.1234,-0.3683,-0.0973,0.4777,-0.0697,-2.6025,1.4322,-2.9982
2024-10-11T12:06:53.808Z,0.0403,-0.9656,0.1783,-0.3629,0.1234,-0.3683,-0.1015,0.4518,-0.0688,-2.6025,1.4322,-2.9982
2024-10-11T12:06:53.818Z,0.0469,-0.9539,0.1815,-0.6511,-0.3625,-0.4715,-0.1063,0.4228,-0.0707,-2.5904,1.4355,-2.9967
2024-10-11T12:06:53.828Z,0.0527,-0.9472,0.1794,-0.6511,-0.3625,-0.4715,-0.1134,0.4016,-0.0696,-2.5904,1.4355,-2.9967
2024-10-11T12:06:53.838Z,0.0498,-0.9488,0.1743,-0.6511,-0.3625,-0.4715,-0.1168,0.3782,-0.0736,-2.5904,1.4355,-2.9967
2024-10-11T12:06:53.849Z,0.0558,-0.9516,0.1620,-0.7320,-0.3895,-0.3151,-0.1163,0.3521,-0.0708,-2.5783,1.4391,-2.9976
2024-10-11T12:06:53.857Z,0.0528,-0.9510,0.1499,-0.7320,-0.3895,-0.3151,-0.1171,0.3356,-0.0728,-2.5783,1.4391,-2.9976
2024-10-11T12:06:53.868Z,0.0486,-0.9492,0.1370,-0.7320,-0.3895,-0.3151,-0.1186,0.3180,-0.0767,-2.5783,1.4391,-2.9976
2024-10-11T12:06:53.878Z,0.0527,-0.9481,0.1249,-0.6924,-0.4289,0.0142,-0.1167,0.3039,-0.0775,-2.5652,1.4429,-3.0011
2024-10-11T12:06:53.888Z,0.0477,-0.9449,0.1194,-0.6924,-0.4289,0.0142,-0.1149,0.2900,-0.0764,-2.5652,1.4429,-3.0011
2024-10-11T12:06:53.898Z,0.0477,-0.9406,0.1178,-0.6924,-0.4289,0.0142,-0.1112,0.2743,-0.0756,-2.5652,1.4429,-3.0011
2024-10-11T12:06:53.908Z,0.0546,-0.9409,0.1142,-0.6993,-0.5037,0.0854,-0.1033,0.2609,-0.0738,-2.5512,1.4464,-3.0069
2024-10-11T12:06:53.918Z,0.0689,-0.9436,0.1084,-0.6993,-0.5037,0.0854,-0.0956,0.2439,-0.0672,-2.5512,1.4464,-3.0069
2024-10-11T12:06:53.928Z,0.0696,-0.9407,0.1017,-0.6993,-0.5037,0.0854,-0.0870,0.2332,-0.0615,-2.5512,1.4464,-3.0069
2024-10-11T12:06:53.938Z,0.0584,-0.9378,0.1068,-0.7262,-0.5379,0.1327,-0.0731,0.2179,-0.0604,-2.5386,1.4492,-3.0127
2024-10-11T12:06:53.948Z,0.0443,-0.9335,0.1148,-0.7262,-0.5379,0.1327,-0.0655,0.2098,-0.0554,-2.5386,1.4492,-3.0127
2024-10-11T12:06:53.958Z,0.0411,-0.9332,0.1120,-0.7262,-0.5379,0.1327,-0.0594,0.2008,-0.0544,-2.5386,1.4492,-3.0127
2024-10-11T12:06:53.968Z,0.0470,-0.9380,0.1078,-0.6049,-0.5384,0.1038,-0.0541,0.1970,-0.0518,-2.5268,1.4512,-3.0184
2024-10-11T12:06:53.978Z,0.0457,-0.9487,0.1013,-0.6049,-0.5384,0.1038,-0.0477,0.1998,-0.0497,-2.5268,1.4512,-3.0184
2024-10-11T12:06:53.988Z,0.0421,-0.9567,0.0950,-0.6049,-0.5384,0.1038,-0.0430,0.2024,-0.0466,-2.5268,1.4512,-3.0184
2024-10-11T12:06:53.998Z,0.0456,-0.9655,0.0878,-0.5844,-0.2697,0.2876,-0.0370,0.2062,-0.0424,-2.5166,1.4526,-3.0228
2024-10-11T12:06:54.008Z,0.0496,-0.9678,0.0857,-0.5844,-0.2697,0.2876,-0.0327,0.2121,-0.0416,-2.5166,1.4526,-3.0228
2024-10-11T12:06:54.018Z,0.0480,-0.9643,0.0846,-0.5844,-0.2697,0.2876,-0.0281,0.2159,-0.0385,-2.5166,1.4526,-3.0228
2024-10-11T12:06:54.028Z,0.0456,-0.9591,0.0871,-0.5801,-0.3335,0.2855,-0.0227,0.2187,-0.0360,-2.5077,1.4535,-3.0255
2024-10-11T12:06:54.038Z,0.0483,-0.9594,0.0848,-0.5801,-0.3335,0.2855,-0.0138,0.2155,-0.0306,-2.5077,1.4535,-3.0255
2024-10-11T12:06:54.048Z,0.0512,-0.9595,0.0772,-0.5801,-0.3335,0.2855,-0.0079,0.2075,-0.0276,-2.5077,1.4535,-3.0255
2024-10-11T12:06:54.058Z,0.0530,-0.9583,0.0731,-0.6513,-0.3421,0.4199,0.0014,0.1938,-0.0236,-2.5006,1.4539,-3.0265
2024-10-11T12:06:54.067Z,0.0509,-0.9577,0.0738,-0.6513,-0.3421,0.4199,0.0046,0.1787,-0.0214,-2.5006,1.4539,-3.0265
2024-10-11T12:06:54.077Z,0.0469,-0.9616,0.0802,-0.6513,-0.3421,0.4199,0.0082,0.1582,-0.0197,-2.5006,1.4539,-3.0265
2024-10-11T12:06:54.088Z,0.0412,-0.9675,0.0887,-0.5346,-0.2517,0.2683,0.0074,0.1387,-0.0216,-2.4948,1.4537,-3.0275
2024-10-11T12:06:54.098Z,0.0325,-0.9739,0.1048,-0.5346,-0.2517,0.2683,0.0037,0.1190,-0.0236,-2.4948,1.4537,-3.0275
2024-10-11T12:06:54.108Z,0.0294,-0.9792,0.1203,-0.5346,-0.2517,0.2683,0.0018,0.0880,-0.0255,-2.4948,1.4537,-3.0275
2024-10-11T12:06:54.118Z,0.0294,-0.9792,0.1203,-0.4589,-0.0483,-0.1164,-0.0082,0.0622,-0.0254,-2.4885,1.4537,-3.0312
2024-10-11T12:06:54.128Z,0.0397,-0.9931,0.1332,-0.4589,-0.0483,-0.1164,-0.0112,0.0327,-0.0270,-2.4885,1.4537,-3.0312
2024-10-11T12:06:54.138Z,0.0440,-0.9957,0.1367,-0.4589,-0.0483,-0.1164,-0.0196,0.0059,-0.0262,-2.4885,1.4537,-3.0312
2024-10-11T12:06:54.149Z,0.0440,-0.9957,0.1367,-0.5831,-0.0181,-0.2581,-0.0229,-0.0199,-0.0300,-2.4820,1.4542,-3.0373
2024-10-11T12:06:54.158Z,0.0515,-0.9909,0.1417,-0.5831,-0.0181,-0.2581,-0.0284,-0.0522,-0.0264,-2.4820,1.4542,-3.0373
2024-10-11T12:06:54.168Z,0.0500,-0.9899,0.1360,-0.5831,-0.0181,-0.2581,-0.0311,-0.0850,-0.0271,-2.4820,1.4542,-3.0373
2024-10-11T12:06:54.178Z,0.0512,-0.9884,0.1396,-0.6099,-0.0479,-0.2428,-0.0340,-0.1183,-0.0255,-2.4755,1.4551,-3.0464
2024-10-11T12:06:54.188Z,0.0506,-0.9825,0.1477,-0.6099,-0.0479,-0.2428,-0.0346,-0.1557,-0.0269,-2.4755,1.4551,-3.0464
2024-10-11T12:06:54.198Z,0.0479,-0.9788,0.1510,-0.6099,-0.0479,-0.2428,-0.0369,-0.1912,-0.0266,-2.4755,1.4551,-3.0464
2024-10-11T12:06:54.208Z,0.0479,-0.9788,0.1510,-0.5688,-0.2144,-0.4188,-0.0396,-0.2317,-0.0259,-2.4695,1.4562,-3.0582
2024-10-11T12:06:54.218Z,0.0535,-0.9657,0.1583,-0.5688,-0.2144,-0.4188,-0.0394,-0.2678,-0.0220,-2.4695,1.4562,-3.0582
2024-10-11T12:06:54.228Z,0.0552,-0.9616,0.1533,-0.5688,-0.2144,-0.4188,-0.0417,-0.2961,-0.0180,-2.4695,1.4562,-3.0582
2024-10-11T12:06:54.239Z,0.0505,-0.9620,0.1445,-0.5732,-0.3099,-0.3109,-0.0398,-0.3260,-0.0153,-2.4651,1.4574,-3.0715
2024-10-11T12:06:54.249Z,0.0509,-0.9700,0.1260,-0.5732,-0.3099,-0.3109,-0.0412,-0.3443,-0.0134,-2.4651,1.4574,-3.0715
2024-10-11T12:06:54.258Z,0.0448,-0.9752,0.1027,-0.5732,-0.3099,-0.3109,-0.0366,-0.3615,-0.0108,-2.4651,1.4574,-3.0715
2024-10-11T12:06:54.268Z,0.0448,-0.9752,0.1027,-0.4621,-0.1839,0.2288,-0.0394,-0.3760,-0.0104,-2.4627,1.4586,-3.0849
2024-10-11T12:06:54.278Z,0.0192,-0.9737,0.0815,-0.4621,-0.1839,0.2288,-0.0418,-0.3979,-0.0099,-2.4627,1.4586,-3.0849
2024-10-11T12:06:54.288Z,0.0127,-0.9738,0.0783,-0.4621,-0.1839,0.2288,-0.0452,-0.4195,-0.0076,-2.4627,1.4586,-3.0849
2024-10-11T12:06:54.299Z,0.0127,-0.9738,0.0783,-0.3872,-0.2000,0.4337,-0.0464,-0.4367,-0.0061,-2.4610,1.4599,-3.0991
2024-10-11T12:06:54.308Z,0.0224,-0.9728,0.0627,-0.3872,-0.2000,0.4337,-0.0485,-0.4605,-0.0003,-2.4610,1.4599,-3.0991
2024-10-11T12:06:54.317Z,0.0171,-0.9792,0.0531,-0.3872,-0.2000,0.4337,-0.0466,-0.4734,0.0000,-2.4610,1.4599,-3.0991
2024-10-11T12:06:54.328Z,0.0103,-0.9887,0.0457,-0.1309,-0.0516,0.6245,-0.0452,-0.4845,-0.0029,-2.4611,1.4612,-3.1134
2024-10-11T12:06:54.338Z,0.0080,-0.9921,0.0489,-0.1309,-0.0516,0.6245,-0.0381,-0.4913,-0.0047,-2.4611,1.4612,-3.1134
2024-10-11T12:06:54.348Z,0.0015,-0.9985,0.0530,-0.1309,-0.0516,0.6245,-0.0303,-0.4972,-0.0050,-2.4611,1.4612,-3.1134
2024-10-11T12:06:54.358Z,-0.0068,-0.9983,0.0645,0.0540,0.0408,0.4308,-0.0214,-0.4972,-0.0101,-2.4597,1.4621,-3.1299
2024-10-11T12:06:54.367Z,-0.0005,-0.9936,0.0793,0.0540,0.0408,0.4308,-0.0127,-0.4983,-0.0091,-2.4597,1.4621,-3.1299
2024-10-11T12:06:54.378Z,0.0094,-0.9889,0.0904,0.0540,0.0408,0.4308,-0.0063,-0.4947,-0.0058,-2.4597,1.4621,-3.1299
2024-10-11T12:06:54.388Z,0.0070,-0.9890,0.1040,-0.0636,-0.0505,0.0413,0.0007,-0.4901,-0.0050,-2.4578,1.4624,3.1364
2024-10-11T12:06:54.398Z,0.0124,-0.9918,0.1119,-0.0636,-0.0505,0.0413,0.0022,-0.4839,-0.0020,-2.4578,1.4624,3.1364
2024-10-11T12:06:54.408Z,0.0150,-0.9951,0.1119,-0.0636,-0.0505,0.0413,0.0072,-0.4707,0.0017,-2.4578,1.4624,3.1364
2024-10-11T12:06:54.417Z,0.0150,-0.9951,0.1119,-0.0934,0.0469,-0.0597,0.0100,-0.4556,0.0054,-2.4581,1.4622,3.1222
2024-10-11T12:06:54.428Z,0.0162,-0.9939,0.1197,-0.0934,0.0469,-0.0597,0.0087,-0.4433,0.0098,-2.4581,1.4622,3.1222
2024-10-11T12:06:54.438Z,0.0239,-0.9863,0.1285,-0.0934,0.0469,-0.0597,0.0094,-0.4270,0.0138,-2.4581,1.4622,3.1222
2024-10-11T12:06:54.448Z,0.0239,-0.9863,0.1285,-0.0900,-0.1637,-0.3129,0.0064,-0.4133,0.0197,-2.4618,1.4619,3.1127
2024-10-11T12:06:54.458Z,0.0217,-0.9664,0.1480,-0.0900,-0.1637,-0.3129,0.0071,-0.4052,0.0242,-2.4618,1.4619,3.1127
2024-10-11T12:06:54.468Z,0.0281,-0.9479,0.1565,-0.0900,-0.1637,-0.3129,0.0002,-0.3932,0.0358,-2.4618,1.4619,3.1127
2024-10-11T12:06:54.478Z,0.0098,-0.9361,0.1550,-0.0617,-0.5682,-0.4543,-0.0042,-0.3832,0.0412,-2.4711,1.4618,3.1098
2024-10-11T12:06:54.488Z,0.0129,-0.9261,0.1523,-0.0617,-0.5682,-0.4543,-0.0100,-0.3695,0.0479,-2.4711,1.4618,3.1098
2024-10-11T12:06:54.499Z,0.0099,-0.9295,0.1407,-0.0617,-0.5682,-0.4543,-0.0127,-0.3548,0.0495,-2.4711,1.4618,3.1098
2024-10-11T12:06:54.508Z,0.0019,-0.9359,0.1292,0.0121,-0.5711,-0.2043,-0.0161,-0.3386,0.0543,-2.4849,1.4621,3.1125
2024-10-11T12:06:54.517Z,0.0015,-0.9430,0.1266,0.0121,-0.5711,-0.2043,-0.0168,-0.3309,0.0587,-2.4849,1.4621,3.1125
2024-10-11T12:06:54.528Z,-0.0118,-0.9495,0.1284,0.0121,-0.5711,-0.2043,-0.0158,-0.3262,0.0602,-2.4849,1.4621,3.1125
2024-10-11T12:06:54.538Z,-0.0116,-0.9566,0.1281,0.1377,-0.3686,-0.1972,-0.0126,-0.3192,0.0614,-2.5015,1.4626,3.1190
2024-10-11T12:06:54.548Z,-0.0069,-0.9617,0.1275,0.1377,-0.3686,-0.1972,-0.0127,-0.3128,0.0686,-2.5015,1.4626,3.1190
2024-10-11T12:06:54.558Z,0.0004,-0.9586,0.1380,0.1377,-0.3686,-0.1972,-0.0118,-0.3059,0.0694,-2.5015,1.4626,3.1190
2024-10-11T12:06:54.568Z,-0.0007,-0.9511,0.1517,0.0203,-0.4229,-0.4326,-0.0126,-0.3008,0.0690,-2.5205,1.4629,3.1284
2024-10-11T12:06:54.578Z,-0.0203,-0.9487,0.1635,0.0203,-0.4229,-0.4326,-0.0178,-0.2955,0.0713,-2.5205,1.4629,3.1284
2024-10-11T12:06:54.588Z,-0.0243,-0.9505,0.1609,0.0203,-0.4229,-0.4326,-0.0237,-0.2868,0.0684,-2.5205,1.4629,3.1284
2024-10-11T12:06:54.599Z,-0.0154,-0.9489,0.1485,0.1542,-0.4445,-0.4071,-0.0259,-0.2812,0.0682,-2.5397,1.4635,3.1384
2024-10-11T12:06:54.608Z,-0.0210,-0.9463,0.1509,0.1542,-0.4445,-0.4071,-0.0308,-0.2862,0.0652,-2.5397,1.4635,3.1384
2024-10-11T12:06:54.617Z,-0.0259,-0.9457,0.1614,0.1542,-0.4445,-0.4071,-0.0331,-0.2896,0.0644,-2.5397,1.4635,3.1384
2024-10-11T12:06:54.628Z,-0.0241,-0.9559,0.1555,0.2301,-0.3769,-0.4848,-0.0390,-0.2912,0.0648,-2.5579,1.4645,-3.1356
2024-10-11T12:06:54.638Z,-0.0158,-0.9660,0.1534,0.2301,-0.3769,-0.4848,-0.0401,-0.2933,0.0644,-2.5579,1.4645,-3.1356
2024-10-11T12:06:54.648Z,-0.0134,-0.9710,0.1584,0.2301,-0.3769,-0.4848,-0.0401,-0.2894,0.0653,-2.5579,1.4645,-3.1356
2024-10-11T12:06:54.658Z,-0.0226,-0.9737,0.1644,0.2046,-0.2043,-0.5838,-0.0430,-0.2864,0.0725,-2.5776,1.4657,-3.1250
2024-10-11T12:06:54.668Z,-0.0287,-0.9770,0.1610,0.2046,-0.2043,-0.5838,-0.0469,-0.2830,0.0723,-2.5776,1.4657,-3.1250
2024-10-11T12:06:54.678Z,-0.0361,-0.9822,0.1548,0.2046,-0.2043,-0.5838,-0.0472,-0.2719,0.0722,-2.5776,1.4657,-3.1250
2024-10-11T12:06:54.688Z,-0.0369,-0.9829,0.1494,0.3325,-0.1149,-0.4505,-0.0516,-0.2601,0.0730,-2.5989,1.4671,-3.1123
2024-10-11T12:06:54.698Z,-0.0417,-0.9874,0.1533,0.3325,-0.1149,-0.4505,-0.0541,-0.2419,0.0727,-2.5989,1.4671,-3.1123
2024-10-11T12:06:54.707Z,-0.0542,-0.9968,0.1616,0.3325,-0.1149,-0.4505,-0.0586,-0.2263,0.0743,-2.5989,1.4671,-3.1123
2024-10-11T12:06:54.719Z,-0.0603,-0.9973,0.1653,0.5474,0.0249,-0.6231,-0.0645,-0.2106,0.0729,-2.6211,1.4687,-3.0974
2024-10-11T12:06:54.728Z,-0.0666,-0.9939,0.1594,0.5474,0.0249,-0.6231,-0.0740,-0.1922,0.0734,-2.6211,1.4687,-3.0974
2024-10-11T12:06:54.738Z,-0.0764,-0.9862,0.1549,0.5474,0.0249,-0.6231,-0.0804,-0.1687,0.0709,-2.6211,1.4687,-3.0974
2024-10-11T12:06:54.750Z,-0.0887,-0.9873,0.1445,0.8110,-0.0760,-0.4409,-0.0824,-0.1443,0.0678,-2.6431,1.4709,-3.0808
2024-10-11T12:06:54.758Z,-0.0954,-0.9819,0.1425,0.8110,-0.0760,-0.4409,-0.0858,-0.1184,0.0631,-2.6431,1.4709,-3.0808
2024-10-11T12:06:54.768Z,-0.1059,-0.9732,0.1286,0.8110,-0.0760,-0.4409,-0.0871,-0.0913,0.0578,-2.6431,1.4709,-3.0808
2024-10-11T12:06:54.778Z,-0.0877,-0.9601,0.1077,0.7855,-0.3449,-0.1049,-0.0845,-0.0621,0.0589,-2.6638,1.4733,-3.0634
2024-10-11T12:06:54.788Z,-0.0979,-0.9476,0.1023,0.7855,-0.3449,-0.1049,-0.0811,-0.0330,0.0573,-2.6638,1.4733,-3.0634
2024-10-11T12:06:54.798Z,-0.1093,-0.9533,0.0899,0.7855,-0.3449,-0.1049,-0.0748,-0.0042,0.0508,-2.6638,1.4733,-3.0634
2024-10-11T12:06:54.808Z,-0.0943,-0.9580,0.0779,0.8363,-0.3672,0.1655,-0.0698,0.0275,0.0446,-2.6819,1.4754,-3.0459
2024-10-11T12:06:54.818Z,-0.1016,-0.9593,0.0744,0.8363,-0.3672,0.1655,-0.0655,0.0556,0.0362,-2.6819,1.4754,-3.0459
2024-10-11T12:06:54.828Z,-0.1100,-0.9555,0.0744,0.8363,-0.3672,0.1655,-0.0668,0.0785,0.0286,-2.6819,1.4754,-3.0459
2024-10-11T12:06:54.838Z,-0.0944,-0.9514,0.0680,0.8260,-0.4334,0.2439,-0.0651,0.1018,0.0219,-2.6941,1.4772,-3.0320
2024-10-11T12:06:54.848Z,-0.0791,-0.9529,0.0648,0.8260,-0.4334,0.2439,-0.0619,0.1287,0.0122,-2.6941,1.4772,-3.0320
2024-10-11T12:06:54.858Z,-0.0724,-0.9623,0.0555,0.8260,-0.4334,0.2439,-0.0584,0.1483,0.0059,-2.6941,1.4772,-3.0320
2024-10-11T12:06:54.869Z,-0.0543,-0.9734,0.0420,0.4263,-0.2197,0.4821,-0.0529,0.1627,-0.0012,-2.6992,1.4789,-3.0229
2024-10-11T12:06:54.878Z,-0.0495,-0.9869,0.0349,0.4263,-0.2197,0.4821,-0.0438,0.1747,-0.0072,-2.6992,1.4789,-3.0229
2024-10-11T12:06:54.888Z,-0.0234,-0.9946,0.0335,0.4263,-0.2197,0.4821,-0.0397,0.1755,-0.0108,-2.6992,1.4789,-3.0229
2024-10-11T12:06:54.898Z,-0.0134,-0.9922,0.0450,0.0233,-0.0363,0.4410,-0.0333,0.1734,-0.0154,-2.6973,1.4801,-3.0198
2024-10-11T12:06:54.908Z,0.0039,-0.9893,0.0463,0.0233,-0.0363,0.4410,-0.0252,0.1657,-0.0198,-2.6973,1.4801,-3.0198
2024-10-11T12:06:54.918Z,0.0327,-0.9852,0.0359,0.0233,-0.0363,0.4410,-0.0181,0.1577,-0.0213,-2.6973,1.4801,-3.0198
2024-10-11T12:06:54.928Z,0.0205,-0.9825,0.0321,-0.3073,-0.1319,0.5618,-0.0104,0.1475,-0.0269,-2.6912,1.4807,-3.0214
2024-10-11T12:06:54.938Z,0.0217,-0.9725,0.0315,-0.3073,-0.1319,0.5618,-0.0043,0.1287,-0.0327,-2.6912,1.4807,-3.0214
2024-10-11T12:06:54.949Z,0.0247,-0.9639,0.0329,-0.3073,-0.1319,0.5618,0.0005,0.1113,-0.0371,-2.6912,1.4807,-3.0214
2024-10-11T12:06:54.958Z,0.0343,-0.9655,0.0324,-0.4343,-0.2989,0.5586,0.0084,0.0911,-0.0450,-2.6793,1.4808,-3.0301
2024-10-11T12:06:54.968Z,0.0568,-0.9688,0.0263,-0.4343,-0.2989,0.5586,0.0156,0.0708,-0.0438,-2.6793,1.4808,-3.0301
2024-10-11T12:06:54.978Z,0.0730,-0.9761,0.0204,-0.4343,-0.2989,0.5586,0.0231,0.0470,-0.0452,-2.6793,1.4808,-3.0301
2024-10-11T12:06:54.988Z,0.0725,-0.9862,0.0275,-0.7986,-0.0950,0.6135,0.0283,0.0208,-0.0416,-2.6648,1.4802,-3.0433
2024-10-11T12:06:54.999Z,0.0789,-0.9909,0.0412,-0.7986,-0.0950,0.6135,0.0286,-0.0057,-0.0381,-2.6648,1.4802,-3.0433
2024-10-11T12:06:55.008Z,0.0871,-0.9990,0.0617,-0.7986,-0.0950,0.6135,0.0295,-0.0345,-0.0336,-2.6648,1.4802,-3.0433
2024-10-11T12:06:55.018Z,0.0989,-1.0113,0.0739,-1.0463,0.1520,0.1663,0.0276,-0.0565,-0.0247,-2.6531,1.4794,-3.0560
2024-10-11T12:06:55.028Z,0.1053,-1.0185,0.0859,-1.0463,0.1520,0.1663,0.0302,-0.0710,-0.0174,-2.6531,1.4794,-3.0560
2024-10-11T12:06:55.037Z,0.1070,-1.0215,0.0918,-1.0463,0.1520,0.1663,0.0254,-0.0877,-0.0108,-2.6531,1.4794,-3.0560
2024-10-11T12:06:55.049Z,0.0974,-1.0166,0.1011,-1.0270,0.2046,-0.0926,0.0244,-0.1001,-0.0021,-2.6491,1.4787,-3.0627
2024-10-11T12:06:55.057Z,0.0875,-1.0114,0.1100,-1.0270,0.2046,-0.0926,0.0200,-0.1078,0.0052,-2.6491,1.4787,-3.0627
2024-10-11T12:06:55.068Z,0.0833,-1.0000,0.1301,-1.0270,0.2046,-0.0926,0.0154,-0.1156,0.0118,-2.6491,1.4787,-3.0627
2024-10-11T12:06:55.078Z,0.0752,-0.9950,0.1429,-0.8086,-0.0069,-0.4968,0.0113,-0.1241,0.0175,-2.6521,1.4781,-3.0634
2024-10-11T12:06:55.088Z,0.0636,-0.9958,0.1425,-0.8086,-0.0069,-0.4968,0.0096,-0.1266,0.0213,-2.6521,1.4781,-3.0634
2024-10-11T12:06:55.098Z,0.0400,-0.9968,0.1405,-0.8086,-0.0069,-0.4968,0.0092,-0.1335,0.0208,-2.6521,1.4781,-3.0634
2024-10-11T12:06:55.108Z,0.0360,-0.9941,0.1396,-0.4268,-0.0156,-0.4611,0.0127,-0.1371,0.0208,-2.6585,1.4777,-3.0612
2024-10-11T12:06:55.118Z,0.0335,-0.9910,0.1496,-0.4268,-0.0156,-0.4611,0.0117,-0.1418,0.0193,-2.6585,1.4777,-3.0612
2024-10-11T12:06:55.128Z,0.0372,-0.9864,0.1629,-0.4268,-0.0156,-0.4611,0.0153,-0.1515,0.0228,-2.6585,1.4777,-3.0612
2024-10-11T12:06:55.138Z,0.0304,-0.9830,0.1710,-0.3741,-0.1238,-0.7637,0.0174,-0.1608,0.0235,-2.6655,1.4772,-3.0590
2024-10-11T12:06:55.149Z,0.0085,-0.9893,0.1636,-0.3741,-0.1238,-0.7637,0.0213,-0.1736,0.0227,-2.6655,1.4772,-3.0590
2024-10-11T12:06:55.158Z,-0.0003,-0.9914,0.1498,-0.3741,-0.1238,-0.7637,0.0267,-0.1807,0.0211,-2.6655,1.4772,-3.0590
2024-10-11T12:06:55.168Z,-0.0057,-0.9903,0.1395,-0.0205,-0.0515,-0.4459,0.0371,-0.2019,0.0195,-2.6717,1.4763,-3.0587
2024-10-11T12:06:55.177Z,-0.0111,-0.9860,0.1346,-0.0205,-0.0515,-0.4459,0.0449,-0.2103,0.0169,-2.6717,1.4763,-3.0587
2024-10-11T12:06:55.188Z,-0.0149,-0.9917,0.1299,-0.0205,-0.0515,-0.4459,0.0503,-0.2153,0.0107,-2.6717,1.4763,-3.0587
2024-10-11T12:06:55.199Z,-0.0250,-0.9982,0.1292,0.1713,0.0278,-0.3301,0.0550,-0.2195,0.0076,-2.6745,1.4748,-3.0625
2024-10-11T12:06:55.208Z,-0.0281,-1.0135,0.1154,0.1713,0.0278,-0.3301,0.0635,-0.2291,0.0011,-2.6745,1.4748,-3.0625
2024-10-11T12:06:55.218Z,-0.0285,-1.0315,0.1025,0.1713,0.0278,-0.3301,0.0682,-0.2316,-0.0037,-2.6745,1.4748,-3.0625
2024-10-11T12:06:55.228Z,-0.0397,-1.0484,0.0976,0.3219,0.5222,0.0005,0.0747,-0.2280,-0.0015,-2.6729,1.4728,-3.0711
2024-10-11T12:06:55.238Z,-0.0427,-1.0619,0.0798,0.3219,0.5222,0.0005,0.0832,-0.2191,-0.0077,-2.6729,1.4728,-3.0711
2024-10-11T12:06:55.249Z,-0.0492,-1.0766,0.0758,0.3219,0.5222,0.0005,0.0886,-0.2067,-0.0149,-2.6729,1.4728,-3.0711
2024-10-11T12:06:55.258Z,-0.0530,-1.0847,0.0820,0.4624,0.8802,0.1789,0.0893,-0.1942,-0.0213,-2.6673,1.4702,-3.0832
2024-10-11T12:06:55.268Z,-0.0531,-1.0983,0.0774,0.4624,0.8802,0.1789,0.0868,-0.1806,-0.0255,-2.6673,1.4702,-3.0832
2024-10-11T12:06:55.278Z,-0.0468,-1.1191,0.0736,0.4624,0.8802,0.1789,0.0838,-0.1676,-0.0295,-2.6673,1.4702,-3.0832
2024-10-11T12:06:55.288Z,-0.0400,-1.1350,0.0729,0.3486,1.3761,0.2937,0.0782,-0.1611,-0.0318,-2.6580,1.4677,-3.0980
2024-10-11T12:06:55.299Z,-0.0366,-1.1383,0.0763,0.3486,1.3761,0.2937,0.0701,-0.1582,-0.0334,-2.6580,1.4677,-3.0980
2024-10-11T12:06:55.308Z,-0.0360,-1.1490,0.0887,0.3486,1.3761,0.2937,0.0564,-0.1547,-0.0342,-2.6580,1.4677,-3.0980
2024-10-11T12:06:55.318Z,-0.0215,-1.1607,0.0961,0.1817,1.6299,0.0837,0.0428,-0.1518,-0.0364,-2.6476,1.4659,-3.1133
2024-10-11T12:06:55.328Z,-0.0148,-1.1697,0.1041,0.1817,1.6299,0.0837,0.0309,-0.1472,-0.0371,-2.6476,1.4659,-3.1133
2024-10-11T12:06:55.338Z,-0.0057,-1.1670,0.1004,0.1817,1.6299,0.0837,0.0183,-0.1460,-0.0365,-2.6476,1.4659,-3.1133
2024-10-11T12:06:55.349Z,0.0101,-1.1665,0.1005,-0.1131,1.6875,0.0466,0.0065,-0.1499,-0.0382,-2.6370,1.4653,-3.1285
2024-10-11T12:06:55.358Z,0.0034,-1.1575,0.1079,-0.1131,1.6875,0.0466,-0.0030,-0.1492,-0.0414,-2.6370,1.4653,-3.1285
2024-10-11T12:06:55.368Z,0.0029,-1.1514,0.1120,-0.1131,1.6875,0.0466,-0.0105,-0.1598,-0.0437,-2.6370,1.4653,-3.1285
2024-10-11T12:06:55.378Z,0.0119,-1.1430,0.1132,-0.1123,1.4569,-0.0799,-0.0158,-0.1701,-0.0459,-2.6248,1.4655,3.1376
2024-10-11T12:06:55.388Z,0.0265,-1.1316,0.1236,-0.1123,1.4569,-0.0799,-0.0201,-0.1840,-0.0461,-2.6248,1.4655,3.1376
2024-10-11T12:06:55.400Z,0.0375,-1.1173,0.1245,-0.1123,1.4569,-0.0799,-0.0205,-0.2043,-0.0429,-2.6248,1.4655,3.1376
2024-10-11T12:06:55.407Z,0.0515,-1.0979,0.1307,-0.4826,1.0140,-0.2565,-0.0203,-0.2255,-0.0381,-2.6128,1.4661,3.1194
2024-10-11T12:06:55.418Z,0.0632,-1.0611,0.1374,-0.4826,1.0140,-0.2565,-0.0200,-0.2496,-0.0274,-2.6128,1.4661,3.1194
2024-10-11T12:06:55.428Z,0.0595,-1.0276,0.1380,-0.4826,1.0140,-0.2565,-0.0184,-0.2662,-0.0243,-2.6128,1.4661,3.1194
2024-10-11T12:06:55.438Z,0.0647,-1.0042,0.1376,-0.5961,0.0948,-0.3305,-0.0176,-0.2826,-0.0169,-2.6056,1.4666,3.1041
2024-10-11T12:06:55.448Z,0.0601,-0.9914,0.1344,-0.5961,0.0948,-0.3305,-0.0207,-0.2888,-0.0155,-2.6056,1.4666,3.1041
2024-10-11T12:06:55.458Z,0.0451,-0.9792,0.1387,-0.5961,0.0948,-0.3305,-0.0242,-0.2905,-0.0130,-2.6056,1.4666,3.1041
2024-10-11T12:06:55.468Z,0.0376,-0.9655,0.1411,-0.3174,-0.2859,-0.3717,-0.0284,-0.2902,-0.0124,-2.6013,1.4673,3.0908
2024-10-11T12:06:55.478Z,0.0383,-0.9617,0.1373,-0.3174,-0.2859,-0.3717,-0.0315,-0.2970,-0.0080,-2.6013,1.4673,3.0908
2024-10-11T12:06:55.488Z,0.0476,-0.9632,0.1265,-0.3174,-0.2859,-0.3717,-0.0361,-0.2997,-0.0016,-2.6013,1.4673,3.0908
2024-10-11T12:06:55.498Z,0.0543,-0.9644,0.1170,-0.4716,-0.2978,-0.1451,-0.0380,-0.3034,0.0070,-2.6002,1.4682,3.0805
2024-10-11T12:06:55.507Z,0.0535,-0.9618,0.1160,-0.4716,-0.2978,-0.1451,-0.0315,-0.3074,0.0173,-2.6002,1.4682,3.0805
2024-10-11T12:06:55.518Z,0.0505,-0.9555,0.1180,-0.4716,-0.2978,-0.1451,-0.0243,-0.3095,0.0251,-2.6002,1.4682,3.0805
2024-10-11T12:06:55.528Z,0.0317,-0.9465,0.1143,-0.2474,-0.4736,-0.1274,-0.0159,-0.3047,0.0329,-2.6070,1.4691,3.0779
2024-10-11T12:06:55.538Z,0.0232,-0.9321,0.1145,-0.2474,-0.4736,-0.1274,-0.0069,-0.2928,0.0438,-2.6070,1.4691,3.0779
2024-10-11T12:06:55.548Z,0.0368,-0.9128,0.1277,-0.2474,-0.4736,-0.1274,0.0019,-0.2760,0.0513,-2.6070,1.4691,3.0779
2024-10-11T12:06:55.558Z,0.0327,-0.9003,0.1406,-0.2627,-0.9275,-0.3850,0.0110,-0.2594,0.0583,-2.6212,1.4691,3.0834
2024-10-11T12:06:55.568Z,0.0172,-0.9063,0.1644,-0.2627,-0.9275,-0.3850,0.0161,-0.2478,0.0629,-2.6212,1.4691,3.0834
2024-10-11T12:06:55.578Z,-0.0050,-0.9198,0.1754,-0.2627,-0.9275,-0.3850,0.0215,-0.2350,0.0613,-2.6212,1.4691,3.0834
2024-10-11T12:06:55.588Z,-0.0197,-0.9341,0.1805,0.2404,-0.5955,-0.7709,0.0238,-0.2235,0.0617,-2.6398,1.4686,3.0946
2024-10-11T12:06:55.598Z,-0.0176,-0.9424,0.1821,0.2404,-0.5955,-0.7709,0.0230,-0.2114,0.0607,-2.6398,1.4686,3.0946
2024-10-11T12:06:55.608Z,-0.0322,-0.9612,0.1815,0.2404,-0.5955,-0.7709,0.0234,-0.1939,0.0552,-2.6398,1.4686,3.0946
2024-10-11T12:06:55.617Z,-0.0336,-0.9754,0.1813,0.3660,-0.1890,-0.7715,0.0221,-0.1768,0.0466,-2.6566,1.4679,3.1050
2024-10-11T12:06:55.628Z,-0.0333,-0.9868,0.1809,0.3660,-0.1890,-0.7715,0.0197,-0.1625,0.0412,-2.6566,1.4679,3.1050
2024-10-11T12:06:55.638Z,-0.0237,-0.9926,0.1745,0.3660,-0.1890,-0.7715,0.0166,-0.1488,0.0389,-2.6566,1.4679,3.1050
2024-10-11T12:06:55.648Z,-0.0177,-0.9947,0.1719,0.2038,0.0007,-0.6748,0.0124,-0.1384,0.0327,-2.6684,1.4674,3.1120
2024-10-11T12:06:55.657Z,-0.0176,-0.9848,0.1668,0.2038,0.0007,-0.6748,0.0127,-0.1315,0.0317,-2.6684,1.4674,3.1120
2024-10-11T12:06:55.667Z,-0.0024,-0.9659,0.1719,0.2038,0.0007,-0.6748,0.0118,-0.1299,0.0314,-2.6684,1.4674,3.1120
2024-10-11T12:06:55.678Z,0.0159,-0.9584,0.1705,-0.1311,-0.3556,-0.6560,0.0149,-0.1416,0.0305,-2.6773,1.4670,3.1167
2024-10-11T12:06:55.688Z,0.0088,-0.9755,0.1532,-0.1311,-0.3556,-0.6560,0.0180,-0.1370,0.0300,-2.6773,1.4670,3.1167
2024-10-11T12:06:55.698Z,0.0043,-0.9930,0.1287,-0.1311,-0.3556,-0.6560,0.0232,-0.1418,0.0232,-2.6773,1.4670,3.1167
2024-10-11T12:06:55.708Z,-0.0105,-0.9958,0.1275,0.1250,0.0123,-0.2282,0.0255,-0.1465,0.0196,-2.6846,1.4663,3.1197
2024-10-11T12:06:55.717Z,0.0095,-0.9886,0.1445,0.1250,0.0123,-0.2282,0.0280,-0.1560,0.0178,-2.6846,1.4663,3.1197
2024-10-11T12:06:55.728Z,0.0189,-0.9822,0.1298,0.1250,0.0123,-0.2282,0.0312,-0.1654,0.0124,-2.6846,1.4663,3.1197
2024-10-11T12:06:55.738Z,0.0042,-0.9812,0.1113,-0.0170,-0.1298,-0.0592,0.0338,-0.1861,0.0093,-2.6889,1.4654,3.1186
2024-10-11T12:06:55.748Z,-0.0067,-0.9699,0.1137,-0.0170,-0.1298,-0.0592,0.0309,-0.2057,0.0050,-2.6889,1.4654,3.1186
2024-10-11T12:06:55.758Z,0.0191,-0.9684,0.1008,-0.0170,-0.1298,-0.0592,0.0307,-0.2211,0.0044,-2.6889,1.4654,3.1186
2024-10-11T12:06:55.767Z,0.0414,-0.9631,0.0768,-0.3774,-0.3065,0.2886,0.0355,-0.2380,0.0053,-2.6906,1.4643,3.1136
2024-10-11T12:06:55.778Z,0.0287,-0.9622,0.0536,-0.3774,-0.3065,0.2886,0.0378,-0.2528,0.0051,-2.6906,1.4643,3.1136
2024-10-11T12:06:55.788Z,0.0168,-0.9601,0.0311,-0.3774,-0.3065,0.2886,0.0400,-0.2730,0.0025,-2.6906,1.4643,3.1136
2024-10-11T12:06:55.798Z,0.0144,-0.9639,0.0398,-0.1040,-0.2972,0.6637,0.0382,-0.2935,0.0046,-2.6920,1.4631,3.1067
2024-10-11T12:06:55.808Z,0.0135,-0.9921,0.0393,-0.1040,-0.2972,0.6637,0.0373,-0.3135,0.0078,-2.6920,1.4631,3.1067
2024-10-11T12:06:55.818Z,0.0177,-1.0204,0.0365,-0.1040,-0.2972,0.6637,0.0338,-0.3274,0.0126,-2.6920,1.4631,3.1067
2024-10-11T12:06:55.828Z,0.0130,-1.0334,0.0501,-0.0839,0.3859,0.5720,0.0235,-0.3312,0.0177,-2.6954,1.4621,3.1002
2024-10-11T12:06:55.838Z,0.0090,-1.0344,0.0738,-0.0839,0.3859,0.5720,0.0151,-0.3297,0.0216,-2.6954,1.4621,3.1002
2024-10-11T12:06:55.848Z,0.0096,-1.0482,0.0777,-0.0839,0.3859,0.5720,0.0070,-0.3197,0.0263,-2.6954,1.4621,3.1002
2024-10-11T12:06:55.858Z,-0.0038,-1.0592,0.0675,0.0845,0.6393,0.4039,-0.0017,-0.3020,0.0296,-2.7025,1.4618,3.0975
2024-10-11T12:06:55.867Z,-0.0107,-1.0569,0.0766,0.0845,0.6393,0.4039,-0.0055,-0.2829,0.0341,-2.7025,1.4618,3.0975
2024-10-11T12:06:55.878Z,-0.0288,-1.0453,0.0727,0.0845,0.6393,0.4039,-0.0059,-0.2610,0.0317,-2.7025,1.4618,3.0975
2024-10-11T12:06:55.888Z,-0.0439,-1.0318,0.0639,0.4776,0.3703,0.4376,-0.0066,-0.2397,0.0272,-2.7110,1.4619,3.0977
2024-10-11T12:06:55.898Z,-0.0460,-0.9993,0.0724,0.4776,0.3703,0.4376,-0.0073,-0.2172,0.0266,-2.7110,1.4619,3.0977
2024-10-11T12:06:55.908Z,-0.0399,-0.9734,0.0780,0.4776,0.3703,0.4376,-0.0059,-0.2020,0.0272,-2.7110,1.4619,3.0977
2024-10-11T12:06:55.917Z,-0.0449,-0.9380,0.0746,0.4864,-0.5507,0.3318,-0.0070,-0.1887,0.0238,-2.7182,1.4621,3.0983
2024-10-11T12:06:55.928Z,-0.0661,-0.9244,0.0644,0.4864,-0.5507,0.3318,-0.0015,-0.1827,0.0180,-2.7182,1.4621,3.0983
2024-10-11T12:06:55.938Z,-0.0764,-0.9323,0.0462,0.4864,-0.5507,0.3318,0.0039,-0.1794,0.0124,-2.7182,1.4621,3.0983
2024-10-11T12:06:55.948Z,-0.0790,-0.9462,0.0342,0.8235,-0.4702,0.7288,0.0114,-0.1785,0.0076,-2.7221,1.4620,3.0965
2024-10-11T12:06:55.958Z,-0.0588,-0.9492,0.0400,0.8235,-0.4702,0.7288,0.0154,-0.1768,0.0009,-2.7221,1.4620,3.0965
2024-10-11T12:06:55.968Z,-0.0504,-0.9585,0.0431,0.8235,-0.4702,0.7288,0.0216,-0.1712,-0.0042,-2.7221,1.4620,3.0965
2024-10-11T12:06:55.978Z,-0.0438,-0.9804,0.0446,0.4841,-0.1335,0.6327,0.0211,-0.1725,-0.0032,-2.7222,1.4614,3.0911
2024-10-11T12:06:55.988Z,-0.0324,-0.9865,0.0531,0.4841,-0.1335,0.6327,0.0270,-0.1709,-0.0075,-2.7222,1.4614,3.0911
2024-10-11T12:06:55.998Z,-0.0308,-0.9861,0.0664,0.4841,-0.1335,0.6327,0.0285,-0.1690,-0.0088,-2.7222,1.4614,3.0911
2024-10-11T12:06:56.008Z,-0.0272,-0.9853,0.0703,0.3285,-0.0850,0.3889,0.0275,-0.1675,-0.0118,-2.7206,1.4605,3.0842
2024-10-11T12:06:56.018Z,-0.0184,-0.9815,0.0863,0.3285,-0.0850,0.3889,0.0292,-0.1655,-0.0140,-2.7206,1.4605,3.0842
2024-10-11T12:06:56.028Z,-0.0191,-0.9693,0.0938,0.3285,-0.0850,0.3889,0.0301,-0.1707,-0.0136,-2.7206,1.4605,3.0842
2024-10-11T12:06:56.038Z,-0.0126,-0.9504,0.0926,0.1952,-0.4263,0.1782,0.0281,-0.1732,-0.0137,-2.7178,1.4596,3.0761
2024-10-11T12:06:56.048Z,-0.0059,-0.9297,0.1077,0.1952,-0.4263,0.1782,0.0314,-0.1716,-0.0121,-2.7178,1.4596,3.0761
2024-10-11T12:06:56.058Z,0.0074,-0.9277,0.0966,0.1952,-0.4263,0.1782,0.0388,-0.1721,-0.0141,-2.7178,1.4596,3.0761
2024-10-11T12:06:56.068Z,-0.0015,-0.9331,0.0772,0.0962,-0.5947,0.3388,0.0444,-0.1704,-0.0145,-2.7148,1.4585,3.0678
2024-10-11T12:06:56.078Z,-0.0024,-0.9302,0.0712,0.0962,-0.5947,0.3388,0.0461,-0.1690,-0.0142,-2.7148,1.4585,3.0678
2024-10-11T12:06:56.088Z,0.0051,-0.9171,0.0899,0.0962,-0.5947,0.3388,0.0465,-0.1640,-0.0146,-2.7148,1.4585,3.0678
2024-10-11T12:06:56.098Z,0.0013,-0.9217,0.0966,0.0783,-0.7045,0.1620,0.0519,-0.1614,-0.0163,-2.7118,1.4570,3.0596
2024-10-11T12:06:56.108Z,-0.0066,-0.9325,0.0905,0.0783,-0.7045,0.1620,0.0495,-0.1606,-0.0192,-2.7118,1.4570,3.0596
2024-10-11T12:06:56.118Z,-0.0121,-0.9342,0.0790,0.0783,-0.7045,0.1620,0.0556,-0.1562,-0.0200,-2.7118,1.4570,3.0596
2024-10-11T12:06:56.128Z,0.0016,-0.9320,0.0705,0.0863,-0.6021,0.4344,0.0610,-0.1573,-0.0162,-2.7083,1.4553,3.0511
2024-10-11T12:06:56.138Z,0.0213,-0.9326,0.0646,0.0863,-0.6021,0.4344,0.0657,-0.1540,-0.0169,-2.7083,1.4553,3.0511
2024-10-11T12:06:56.148Z,0.0184,-0.9332,0.0750,0.0863,-0.6021,0.4344,0.0678,-0.1483,-0.0148,-2.7083,1.4553,3.0511
2024-10-11T12:06:56.158Z,0.0051,-0.9272,0.0959,0.0615,-0.6460,0.2039,0.0642,-0.1488,-0.0142,-2.7063,1.4533,3.0443
2024-10-11T12:06:56.168Z,0.0006,-0.9178,0.1102,0.0615,-0.6460,0.2039,0.0654,-0.1458,-0.0114,-2.7063,1.4533,3.0443
2024-10-11T12:06:56.178Z,0.0218,-0.9135,0.1054,0.0615,-0.6460,0.2039,0.0648,-0.1384,-0.0064,-2.7063,1.4533,3.0443
2024-10-11T12:06:56.188Z,0.0279,-0.9157,0.1000,-0.1550,-0.7568,0.1827,0.0639,-0.1324,-0.0035,-2.7063,1.4513,3.0398
2024-10-11T12:06:56.198Z,0.0032,-0.9212,0.1049,-0.1550,-0.7568,0.1827,0.0631,-0.1206,-0.0018,-2.7063,1.4513,3.0398
2024-10-11T12:06:56.208Z,-0.0051,-0.9200,0.1083,-0.1550,-0.7568,0.1827,0.0631,-0.1145,-0.0022,-2.7063,1.4513,3.0398
2024-10-11T12:06:56.218Z,-0.0141,-0.9211,0.1102,0.2613,-0.7020,0.1008,0.0618,-0.1026,-0.0034,-2.7077,1.4494,3.0375
2024-10-11T12:06:56.228Z,-0.0290,-0.9353,0.1054,0.2613,-0.7020,0.1008,0.0611,-0.0949,-0.0068,-2.7077,1.4494,3.0375
2024-10-11T12:06:56.238Z,-0.0339,-0.9425,0.1159,0.2613,-0.7020,0.1008,0.0595,-0.0971,-0.0092,-2.7077,1.4494,3.0375
2024-10-11T12:06:56.248Z,-0.0388,-0.9459,0.1324,0.5104,-0.4566,-0.0997,0.0568,-0.0974,-0.0124,-2.7074,1.4476,3.0340
2024-10-11T12:06:56.258Z,-0.0388,-0.9524,0.1375,0.5104,-0.4566,-0.0997,0.0533,-0.0913,-0.0136,-2.7074,1.4476,3.0340
2024-10-11T12:06:56.269Z,-0.0313,-0.9643,0.1380,0.5104,-0.4566,-0.0997,0.0509,-0.0813,-0.0136,-2.7074,1.4476,3.0340
2024-10-11T12:06:56.278Z,-0.0311,-0.9747,0.1505,0.4418,-0.1719,-0.2634,0.0456,-0.0670,-0.0166,-2.7054,1.4460,3.0292
2024-10-11T12:06:56.288Z,-0.0352,-0.9758,0.1547,0.4418,-0.1719,-0.2634,0.0393,-0.0481,-0.0193,-2.7054,1.4460,3.0292
2024-10-11T12:06:56.298Z,-0.0150,-0.9791,0.1409,0.4418,-0.1719,-0.2634,0.0401,-0.0359,-0.0213,-2.7054,1.4460,3.0292
2024-10-11T12:06:56.308Z,-0.0033,-0.9852,0.1300,0.1767,-0.0672,-0.0504,0.0342,-0.0184,-0.0165,-2.7022,1.4448,3.0246
2024-10-11T12:06:56.318Z,0.0002,-0.9886,0.1366,0.1767,-0.0672,-0.0504,0.0281,-0.0072,-0.0146,-2.7022,1.4448,3.0246
2024-10-11T12:06:56.328Z,-0.0034,-0.9903,0.1506,0.1767,-0.0672,-0.0504,0.0205,0.0056,-0.0122,-2.7022,1.4448,3.0246
2024-10-11T12:06:56.338Z,-0.0016,-1.0026,0.1521,0.1635,0.1045,-0.2602,0.0165,0.0137,-0.0103,-2.6998,1.4440,3.0221
2024-10-11T12:06:56.348Z,0.0033,-1.0194,0.1303,0.1635,0.1045,-0.2602,0.0132,0.0250,-0.0081,-2.6998,1.4440,3.0221
2024-10-11T12:06:56.358Z,-0.0021,-1.0351,0.1182,0.1635,0.1045,-0.2602,0.0093,0.0366,-0.0070,-2.6998,1.4440,3.0221
2024-10-11T12:06:56.368Z,-0.0192,-1.0433,0.1379,0.3376,0.5042,-0.1175,0.0067,0.0410,-0.0082,-2.6985,1.4436,3.0213
2024-10-11T12:06:56.378Z,-0.0307,-1.0608,0.1379,0.3376,0.5042,-0.1175,-0.0000,0.0432,-0.0102,-2.6985,1.4436,3.0213
2024-10-11T12:06:56.388Z,-0.0250,-1.0765,0.1330,0.3376,0.5042,-0.1175,0.0006,0.0450,-0.0100,-2.6985,1.4436,3.0213
2024-10-11T12:06:56.398Z,-0.0213,-1.0853,0.1239,0.3594,0.9161,0.0199,0.0007,0.0417,-0.0106,-2.6963,1.4435,3.0202
2024-10-11T12:06:56.408Z,-0.0144,-1.0825,0.1111,0.3594,0.9161,0.0199,-0.0023,0.0516,-0.0115,-2.6963,1.4435,3.0202
2024-10-11T12:06:56.418Z,0.0003,-1.0759,0.1027,0.3594,0.9161,0.0199,-0.0043,0.0592,-0.0086,-2.6963,1.4435,3.0202
2024-10-11T12:06:56.428Z,0.0020,-1.0672,0.1049,0.1319,0.7387,0.2065,-0.0000,0.0691,-0.0075,-2.6943,1.4436,3.0197
2024-10-11T12:06:56.437Z,-0.0135,-1.0585,0.1077,0.1319,0.7387,0.2065,-0.0013,0.0720,-0.0097,-2.6943,1.4436,3.0197
2024-10-11T12:06:56.448Z,-0.0138,-1.0592,0.1066,0.1319,0.7387,0.2065,0.0023,0.0764,-0.0107,-2.6943,1.4436,3.0197
2024-10-11T12:06:56.457Z,-0.0060,-1.0638,0.1180,0.2096,0.7053,0.0787,-0.0002,0.0829,-0.0114,-2.6926,1.4435,3.0199
2024-10-11T12:06:56.469Z,-0.0077,-1.0652,0.1167,0.2096,0.7053,0.0787,-0.0014,0.0797,-0.0108,-2.6926,1.4435,3.0199
2024-10-11T12:06:56.478Z,-0.0051,-1.0549,0.1273,0.2096,0.7053,0.0787,-0.0033,0.0857,-0.0138,-2.6926,1.4435,3.0199
2024-10-11T12:06:56.489Z,-0.0045,-1.0410,0.1337,0.1957,0.4814,-0.0754,-0.0094,0.0895,-0.0141,-2.6898,1.4435,3.0196
2024-10-11T12:06:56.498Z,0.0123,-1.0334,0.1410,0.1957,0.4814,-0.0754,-0.0151,0.0943,-0.0132,-2.6898,1.4435,3.0196
2024-10-11T12:06:56.508Z,0.0239,-1.0316,0.1563,0.1957,0.4814,-0.0754,-0.0245,0.0950,-0.0091,-2.6898,1.4435,3.0196
2024-10-11T12:06:56.518Z,0.0269,-1.0266,0.1822,-0.1126,0.3399,-0.5568,-0.0304,0.0930,-0.0042,-2.6872,1.4441,3.0195
2024-10-11T12:06:56.528Z,0.0384,-1.0209,0.1766,-0.1126,0.3399,-0.5568,-0.0354,0.0868,0.0012,-2.6872,1.4441,3.0195
2024-10-11T12:06:56.538Z,0.0437,-1.0194,0.1614,-0.1126,0.3399,-0.5568,-0.0390,0.0882,0.0037,-2.6872,1.4441,3.0195
2024-10-11T12:06:56.548Z,0.0381,-1.0063,0.1553,-0.2262,0.1391,-0.3031,-0.0409,0.0877,0.0054,-2.6868,1.4452,3.0216
2024-10-11T12:06:56.558Z,0.0342,-0.9945,0.1484,-0.2262,0.1391,-0.3031,-0.0419,0.0873,0.0078,-2.6868,1.4452,3.0216
2024-10-11T12:06:56.568Z,0.0386,-0.9875,0.1453,-0.2262,0.1391,-0.3031,-0.0371,0.0803,0.0099,-2.6868,1.4452,3.0216
2024-10-11T12:06:56.578Z,0.0342,-0.9779,0.1391,-0.1940,-0.1405,-0.1546,-0.0391,0.0751,0.0098,-2.6882,1.4463,3.0252
2024-10-11T12:06:56.588Z,0.0172,-0.9669,0.1329,-0.1940,-0.1405,-0.1546,-0.0325,0.0745,0.0099,-2.6882,1.4463,3.0252
2024-10-11T12:06:56.598Z,0.0074,-0.9595,0.1177,-0.1940,-0.1405,-0.1546,-0.0333,0.0666,0.0084,-2.6882,1.4463,3.0252
2024-10-11T12:06:56.608Z,0.0036,-0.9465,0.1266,0.1004,-0.4498,-0.0421,-0.0344,0.0558,0.0081,-2.6897,1.4474,3.0286
2024-10-11T12:06:56.618Z,0.0021,-0.9431,0.1257,0.1004,-0.4498,-0.0421,-0.0318,0.0533,0.0121,-2.6897,1.4474,3.0286
2024-10-11T12:06:56.628Z,0.0150,-0.9453,0.1075,0.1004,-0.4498,-0.0421,-0.0338,0.0544,0.0155,-2.6897,1.4474,3.0286
2024-10-11T12:06:56.637Z,0.0056,-0.9459,0.1020,0.0746,-0.4575,0.1902,-0.0279,0.0561,0.0195,-2.6931,1.4484,3.0334
2024-10-11T12:06:56.648Z,0.0016,-0.9512,0.1068,0.0746,-0.4575,0.1902,-0.0280,0.0646,0.0242,-2.6931,1.4484,3.0334
2024-10-11T12:06:56.658Z,-0.0021,-0.9595,0.1180,0.0746,-0.4575,0.1902,-0.0275,0.0710,0.0286,-2.6931,1.4484,3.0334
2024-10-11T12:06:56.668Z,-0.0111,-0.9630,0.1207,0.2274,-0.2901,0.0004,-0.0274,0.0903,0.0314,-2.6995,1.4492,3.0415
2024-10-11T12:06:56.678Z,-0.0010,-0.9586,0.1178,0.2274,-0.2901,0.0004,-0.0270,0.1137,0.0387,-2.6995,1.4492,3.0415
2024-10-11T12:06:56.688Z,-0.0033,-0.9667,0.1079,0.2274,-0.2901,0.0004,-0.0295,0.1392,0.0406,-2.6995,1.4492,3.0415
2024-10-11T12:06:56.698Z,-0.0148,-0.9829,0.1066,0.2483,-0.0967,0.1302,-0.0336,0.1726,0.0414,-2.7087,1.4502,3.0544
2024-10-11T12:06:56.708Z,-0.0257,-0.9965,0.1097,0.2483,-0.0967,0.1302,-0.0422,0.1933,0.0412,-2.7087,1.4502,3.0544
2024-10-11T12:06:56.718Z,-0.0233,-1.0216,0.0926,0.2483,-0.0967,0.1302,-0.0466,0.2197,0.0359,-2.7087,1.4502,3.0544
2024-10-11T12:06:56.728Z,-0.0211,-1.0353,0.0873,0.2921,0.4157,0.3075,-0.0542,0.2279,0.0331,-2.7174,1.4516,3.0689
2024-10-11T12:06:56.738Z,-0.0186,-1.0455,0.0854,0.2921,0.4157,0.3075,-0.0607,0.2263,0.0251,-2.7174,1.4516,3.0689
2024-10-11T12:06:56.748Z,-0.0194,-1.0583,0.0928,0.2921,0.4157,0.3075,-0.0645,0.2200,0.0197,-2.7174,1.4516,3.0689
2024-10-11T12:06:56.758Z,-0.0017,-1.0634,0.0879,0.0874,0.6895,0.2833,-0.0665,0.1993,0.0179,-2.7222,1.4535,3.0800
2024-10-11T12:06:56.768Z,0.0038,-1.0600,0.0851,0.0874,0.6895,0.2833,-0.0664,0.1801,0.0118,-2.7222,1.4535,3.0800
2024-10-11T12:06:56.778Z,0.0101,-1.0485,0.0939,0.0874,0.6895,0.2833,-0.0677,0.1451,0.0066,-2.7222,1.4535,3.0800
2024-10-11T12:06:56.788Z,0.0276,-1.0350,0.1147,-0.2075,0.4081,0.0017,-0.0723,0.1107,0.0033,-2.7237,1.4555,3.0857
2024-10-11T12:06:56.798Z,0.0323,-1.0199,0.1299,-0.2075,0.4081,0.0017,-0.0730,0.0683,0.0008,-2.7237,1.4555,3.0857
2024-10-11T12:06:56.808Z,0.0434,-1.0117,0.1374,-0.2075,0.4081,0.0017,-0.0712,0.0331,-0.0032,-2.7237,1.4555,3.0857
2024-10-11T12:06:56.818Z,0.0575,-1.0130,0.1180,-0.5013,0.1908,-0.0518,-0.0694,0.0010,-0.0064,-2.7222,1.4576,3.0853
2024-10-11T12:06:56.828Z,0.0704,-1.0091,0.1143,-0.5013,0.1908,-0.0518,-0.0694,-0.0258,-0.0084,-2.7222,1.4576,3.0853
2024-10-11T12:06:56.838Z,0.0837,-1.0157,0.1204,-0.5013,0.1908,-0.0518,-0.0718,-0.0609,-0.0054,-2.7222,1.4576,3.0853
2024-10-11T12:06:56.848Z,0.0807,-1.0366,0.1248,-0.7254,0.4192,-0.1382,-0.0730,-0.0862,-0.0041,-2.7197,1.4597,3.0810
2024-10-11T12:06:56.858Z,0.0733,-1.0555,0.1227,-0.7254,0.4192,-0.1382,-0.0723,-0.1218,-0.0010,-2.7197,1.4597,3.0810
2024-10-11T12:06:56.868Z,0.0740,-1.0698,0.1083,-0.7254,0.4192,-0.1382,-0.0712,-0.1546,0.0055,-2.7197,1.4597,3.0810
2024-10-11T12:06:56.878Z,0.0586,-1.0720,0.0975,-0.5046,0.7644,0.1082,-0.0706,-0.1909,0.0068,-2.7194,1.4618,3.0760
2024-10-11T12:06:56.888Z,0.0451,-1.0619,0.0982,-0.5046,0.7644,0.1082,-0.0725,-0.2203,0.0104,-2.7194,1.4618,3.0760
2024-10-11T12:06:56.898Z,0.0153,-1.0527,0.0984,-0.5046,0.7644,0.1082,-0.0769,-0.2442,0.0067,-2.7194,1.4618,3.0760
2024-10-11T12:06:56.908Z,-0.0099,-1.0509,0.0912,0.1719,0.5554,0.1480,-0.0757,-0.2555,0.0045,-2.7204,1.4641,3.0698
2024-10-11T12:06:56.919Z,-0.0277,-1.0490,0.0783,0.1719,0.5554,0.1480,-0.0723,-0.2634,0.0012,-2.7204,1.4641,3.0698
2024-10-11T12:06:56.928Z,-0.0239,-1.0422,0.0761,0.1719,0.5554,0.1480,-0.0666,-0.2688,0.0019,-2.7204,1.4641,3.0698
2024-10-11T12:06:56.938Z,-0.0147,-1.0331,0.0854,0.2267,0.3780,0.1840,-0.0609,-0.2682,0.0078,-2.7203,1.4661,3.0614
2024-10-11T12:06:56.948Z,-0.0254,-1.0220,0.0933,0.2267,0.3780,0.1840,-0.0555,-0.2602,0.0129,-2.7203,1.4661,3.0614
2024-10-11T12:06:56.958Z,-0.0342,-1.0009,0.1090,0.2267,0.3780,0.1840,-0.0482,-0.2485,0.0181,-2.7203,1.4661,3.0614
2024-10-11T12:06:56.969Z,-0.0446,-0.9845,0.1049,0.5227,-0.1002,-0.0224,-0.0411,-0.2278,0.0208,-2.7235,1.4676,3.0571
2024-10-11T12:06:56.978Z,-0.0543,-0.9700,0.1033,0.5227,-0.1002,-0.0224,-0.0305,-0.2011,0.0230,-2.7235,1.4676,3.0571
2024-10-11T12:06:56.988Z,-0.0548,-0.9547,0.1026,0.5227,-0.1002,-0.0224,-0.0254,-0.1670,0.0274,-2.7235,1.4676,3.0571
2024-10-11T12:06:56.998Z,-0.0555,-0.9371,0.1101,0.6268,-0.5651,-0.0807,-0.0181,-0.1389,0.0296,-2.7312,1.4684,3.0591
2024-10-11T12:06:57.008Z,-0.0730,-0.9270,0.1199,0.6268,-0.5651,-0.0807,-0.0176,-0.1072,0.0292,-2.7312,1.4684,3.0591
2024-10-11T12:06:57.018Z,-0.1068,-0.9330,0.1278,0.6268,-0.5651,-0.0807,-0.0159,-0.0807,0.0180,-2.7312,1.4684,3.0591
2024-10-11T12:06:57.028Z,-0.1152,-0.9486,0.1206,1.2104,-0.4538,-0.1885,-0.0179,-0.0574,0.0074,-2.7364,1.4690,3.0615
2024-10-11T12:06:57.038Z,-0.1068,-0.9640,0.1176,1.2104,-0.4538,-0.1885,-0.0186,-0.0323,-0.0001,-2.7364,1.4690,3.0615
2024-10-11T12:06:57.048Z,-0.0979,-0.9662,0.1147,1.2104,-0.4538,-0.1885,-0.0221,-0.0130,-0.0106,-2.7364,1.4690,3.0615
2024-10-11T12:06:57.058Z,-0.0834,-0.9494,0.1089,0.9006,-0.4457,-0.0807,-0.0295,0.0067,-0.0147,-2.7340,1.4696,3.0584
2024-10-11T12:06:57.068Z,-0.0646,-0.9370,0.1087,0.9006,-0.4457,-0.0807,-0.0276,0.0124,-0.0204,-2.7340,1.4696,3.0584
2024-10-11T12:06:57.078Z,-0.0501,-0.9372,0.1232,0.9006,-0.4457,-0.0807,-0.0305,0.0209,-0.0223,-2.7340,1.4696,3.0584
2024-10-11T12:06:57.088Z,-0.0445,-0.9423,0.1197,0.5247,-0.5171,-0.1959,-0.0303,0.0275,-0.0213,-2.7272,1.4705,3.0520
2024-10-11T12:06:57.098Z,-0.0453,-0.9452,0.1044,0.5247,-0.5171,-0.1959,-0.0264,0.0273,-0.0256,-2.7272,1.4705,3.0520
2024-10-11T12:06:57.108Z,-0.0506,-0.9462,0.1054,0.5247,-0.5171,-0.1959,-0.0220,0.0398,-0.0283,-2.7272,1.4705,3.0520
2024-10-11T12:06:57.118Z,-0.0197,-0.9337,0.1207,0.2877,-0.6012,-0.2114,-0.0134,0.0400,-0.0268,-2.7192,1.4710,3.0448
2024-10-11T12:06:57.128Z,-0.0215,-0.9197,0.1346,0.2877,-0.6012,-0.2114,-0.0078,0.0507,-0.0278,-2.7192,1.4710,3.0448
2024-10-11T12:06:57.138Z,-0.0320,-0.9187,0.1451,0.2877,-0.6012,-0.2114,-0.0013,0.0501,-0.0326,-2.7192,1.4710,3.0448
2024-10-11T12:06:57.148Z,-0.0335,-0.9234,0.1431,0.4305,-0.7031,-0.4317,0.0071,0.0472,-0.0338,-2.7104,1.4710,3.0372
2024-10-11T12:06:57.158Z,-0.0192,-0.9232,0.1283,0.4305,-0.7031,-0.4317,0.0110,0.0399,-0.0328,-2.7104,1.4710,3.0372
2024-10-11T12:06:57.168Z,-0.0078,-0.9100,0.1239,0.4305,-0.7031,-0.4317,0.0138,0.0327,-0.0329,-2.7104,1.4710,3.0372
2024-10-11T12:06:57.177Z,-0.0192,-0.9041,0.1141,0.2983,-0.8917,-0.1429,0.0158,0.0372,-0.0330,-2.7017,1.4705,3.0295
2024-10-11T12:06:57.187Z,-0.0156,-0.9015,0.0964,0.2983,-0.8917,-0.1429,0.0186,0.0362,-0.0304,-2.7017,1.4705,3.0295
2024-10-11T12:06:57.198Z,-0.0035,-0.9217,0.0847,0.2983,-0.8917,-0.1429,0.0199,0.0442,-0.0317,-2.7017,1.4705,3.0295
2024-10-11T12:06:57.208Z,-0.0091,-0.9427,0.0911,0.2069,-0.5122,0.0889,0.0219,0.0525,-0.0317,-2.6938,1.4697,3.0227
2024-10-11T12:06:57.218Z,-0.0267,-0.9656,0.1011,0.2069,-0.5122,0.0889,0.0227,0.0716,-0.0362,-2.6938,1.4697,3.0227
2024-10-11T12:06:57.228Z,-0.0190,-0.9828,0.1214,0.2069,-0.5122,0.0889,0.0193,0.0931,-0.0385,-2.6938,1.4697,3.0227
2024-10-11T12:06:57.238Z,-0.0216,-0.9874,0.1410,0.3371,-0.0723,-0.3933,0.0207,0.1148,-0.0406,-2.6842,1.4689,3.0155
2024-10-11T12:06:57.248Z,-0.0368,-0.9762,0.1632,0.3371,-0.0723,-0.3933,0.0121,0.1533,-0.0440,-2.6842,1.4689,3.0155
2024-10-11T12:06:57.258Z,-0.0415,-0.9673,0.1762,0.3371,-0.0723,-0.3933,0.0056,0.1918,-0.0434,-2.6842,1.4689,3.0155
2024-10-11T12:06:57.269Z,-0.0170,-0.9724,0.1780,0.2990,-0.2198,-0.7537,0.0019,0.2236,-0.0415,-2.6724,1.4685,3.0089
2024-10-11T12:06:57.278Z,-0.0263,-0.9775,0.1613,0.2990,-0.2198,-0.7537,-0.0003,0.2570,-0.0404,-2.6724,1.4685,3.0089
2024-10-11T12:06:57.288Z,-0.0440,-0.9755,0.1422,0.2990,-0.2198,-0.7537,0.0020,0.2789,-0.0351,-2.6724,1.4685,3.0089
2024-10-11T12:06:57.298Z,-0.0334,-0.9766,0.1346,0.4629,-0.1778,-0.3260,0.0035,0.2970,-0.0292,-2.6625,1.4683,3.0069
2024-10-11T12:06:57.308Z,-0.0273,-0.9839,0.1113,0.4629,-0.1778,-0.3260,0.0111,0.3119,-0.0205,-2.6625,1.4683,3.0069
2024-10-11T12:06:57.320Z,-0.0155,-0.9784,0.0805,0.3757,-0.1375,0.4766,0.0180,0.3162,-0.0092,-2.6591,1.4678,3.0127
2024-10-11T12:06:57.328Z,-0.0251,-0.9807,0.0534,0.3757,-0.1375,0.4766,0.0264,0.3147,-0.0045,-2.6591,1.4678,3.0127
2024-10-11T12:06:57.339Z,-0.0640,-0.9953,0.0551,0.3757,-0.1375,0.4766,0.0284,0.3286,-0.0009,-2.6591,1.4678,3.0127
2024-10-11T12:06:57.349Z,-0.0693,-1.0191,0.0573,0.3757,-0.1375,0.4766,0.0245,0.3291,0.0001,-2.6591,1.4678,3.0127
2024-10-11T12:06:57.358Z,-0.0451,-1.0393,0.0497,0.5626,0.4387,0.5224,0.0245,0.3291,0.0001,-2.6599,1.4670,3.0228
2024-10-11T12:06:57.369Z,-0.0365,-1.0422,0.0553,0.5626,0.4387,0.5224,0.0168,0.3397,0.0068,-2.6599,1.4670,3.0228
2024-10-11T12:06:57.378Z,-0.0623,-1.0416,0.0772,0.5626,0.4387,0.5224,0.0082,0.3506,0.0052,-2.6599,1.4670,3.0228
2024-10-11T12:06:57.389Z,-0.0707,-1.0457,0.0868,0.8024,0.5010,0.1620,-0.0090,0.3973,0.0059,-2.6618,1.4667,3.0349
2024-10-11T12:06:57.399Z,-0.0549,-1.0610,0.0710,0.8024,0.5010,0.1620,-0.0198,0.4264,0.0053,-2.6618,1.4667,3.0349
2024-10-11T12:06:57.409Z,-0.0601,-1.0656,0.0835,0.8024,0.5010,0.1620,-0.0291,0.4484,0.0058,-2.6618,1.4667,3.0349
2024-10-11T12:06:57.419Z,-0.0559,-1.0583,0.1197,0.6422,0.6242,-0.1633,-0.0291,0.4484,0.0058,-2.6637,1.4671,3.0487
2024-10-11T12:06:57.429Z,-0.0733,-1.0483,0.1331,0.6422,0.6242,-0.1633,-0.0451,0.4986,0.0035,-2.6637,1.4671,3.0487
2024-10-11T12:06:57.438Z,-0.0849,-1.0282,0.1269,0.6422,0.6242,-0.1633,-0.0451,0.4986,0.0035,-2.6637,1.4671,3.0487
2024-10-11T12:06:57.449Z,-0.0773,-0.9971,0.1255,0.8365,0.0230,-0.2307,-0.0495,0.5486,-0.0011,-2.6638,1.4684,3.0633
2024-10-11T12:06:57.459Z,-0.0702,-0.9829,0.1165,0.8365,0.0230,-0.2307,-0.0541,0.5742,-0.0027,-2.6638,1.4684,3.0633
2024-10-11T12:06:57.472Z,-0.0455,-0.9678,0.0919,0.5648,-0.3879,0.0846,-0.0500,0.5948,-0.0062,-2.6621,1.4699,3.0784
2024-10-11T12:06:57.477Z,-0.0512,-0.9554,0.0919,0.5648,-0.3879,0.0846,-0.0500,0.5948,-0.0062,-2.6621,1.4699,3.0784
2024-10-11T12:06:57.487Z,-0.0521,-0.9395,0.0998,0.5648,-0.3879,0.0846,-0.0513,0.6144,-0.0042,-2.6621,1.4699,3.0784
2024-10-11T12:06:57.499Z,-0.0253,-0.9375,0.1108,0.5648,-0.3879,0.0846,-0.0475,0.6417,-0.0018,-2.6621,1.4699,3.0784
2024-10-11T12:06:57.508Z,-0.0208,-0.9418,0.1068,0.2491,-0.5222,-0.0737,-0.0449,0.6446,0.0032,-2.6606,1.4713,3.0953
2024-10-11T12:06:57.519Z,-0.0201,-0.9521,0.1055,0.2491,-0.5222,-0.0737,-0.0413,0.6454,0.0043,-2.6606,1.4713,3.0953
2024-10-11T12:06:57.528Z,-0.0085,-0.9624,0.1009,0.2491,-0.5222,-0.0737,-0.0453,0.6538,0.0084,-2.6606,1.4713,3.0953
2024-10-11T12:06:57.538Z,0.0101,-0.9592,0.1112,-0.0743,-0.3527,-0.1292,-0.0438,0.6579,0.0124,-2.6615,1.4726,3.1154
2024-10-11T12:06:57.548Z,0.0095,-0.9576,0.1205,-0.0743,-0.3527,-0.1292,-0.0466,0.6594,0.0130,-2.6615,1.4726,3.1154
2024-10-11T12:06:57.558Z,0.0049,-0.9651,0.1246,-0.0743,-0.3527,-0.1292,-0.0472,0.6599,0.0124,-2.6615,1.4726,3.1154
2024-10-11T12:06:57.570Z,0.0007,-0.9646,0.1313,-0.0041,-0.3016,-0.3388,-0.0424,0.6466,0.0142,-2.6656,1.4739,3.1389
2024-10-11T12:06:57.578Z,0.0096,-0.9519,0.1273,-0.0041,-0.3016,-0.3388,-0.0424,0.6466,0.0142,-2.6656,1.4739,3.1389
2024-10-11T12:06:57.589Z,0.0136,-0.9360,0.1273,-0.0041,-0.3016,-0.3388,-0.0405,0.6333,0.0173,-2.6656,1.4739,3.1389
2024-10-11T12:06:57.598Z,0.0155,-0.9321,0.1314,-0.1732,-0.6216,-0.3526,-0.0341,0.6265,0.0143,-2.6714,1.4752,-3.1194
2024-10-11T12:06:57.609Z,0.0026,-0.9339,0.1421,-0.1732,-0.6216,-0.3526,-0.0292,0.6244,0.0160,-2.6714,1.4752,-3.1194
2024-10-11T12:06:57.621Z,-0.0051,-0.9470,0.1407,-0.1943,-0.3434,-0.2811,-0.0200,0.6195,0.0211,-2.6777,1.4761,-3.0948
2024-10-11T12:06:57.628Z,0.0154,-0.9605,0.1232,-0.1943,-0.3434,-0.2811,-0.0150,0.6158,0.0248,-2.6777,1.4761,-3.0948
2024-10-11T12:06:57.639Z,0.0412,-0.9657,0.1237,-0.1943,-0.3434,-0.2811,-0.0120,0.6034,0.0253,-2.6777,1.4761,-3.0948
2024-10-11T12:06:57.648Z,0.0293,-0.9645,0.1236,-0.1943,-0.3434,-0.2811,-0.0069,0.5950,0.0210,-2.6777,1.4761,-3.0948
2024-10-11T12:06:57.658Z,-0.0004,-0.9653,0.1134,-0.0631,-0.2971,-0.1895,-0.0034,0.5949,0.0107,-2.6855,1.4763,-3.0691
2024-10-11T12:06:57.668Z,-0.0175,-0.9657,0.1009,-0.0631,-0.2971,-0.1895,0.0002,0.5796,-0.0024,-2.6855,1.4763,-3.0691
2024-10-11T12:06:57.678Z,-0.0289,-0.9688,0.0983,-0.0631,-0.2971,-0.1895,0.0002,0.5687,-0.0183,-2.6855,1.4763,-3.0691
2024-10-11T12:06:57.688Z,-0.0240,-0.9785,0.0896,0.3214,-0.1796,0.0044,0.0002,0.5687,-0.0183,-2.6855,1.4763,-3.0520
2024-10-11T12:06:57.698Z,-0.0240,-0.9785,0.0896,0.3214,-0.1796,0.0044,0.0104,0.5500,-0.0376,-2.6855,1.4763,-3.0520
2024-10-11T12:06:57.708Z,0.0004,-0.9934,0.0871,0.3214,-0.1796,0.0044,0.0229,0.5251,-0.0428,-2.6855,1.4763,-3.0520
2024-10-11T12:06:57.718Z,0.0155,-1.0256,0.0807,-0.2396,0.2952,0.1323,0.0320,0.5095,-0.0463,-2.6748,1.4760,-3.0467
2024-10-11T12:06:57.728Z,0.0358,-1.0562,0.0739,-0.2396,0.2952,0.1323,0.0414,0.4937,-0.0409,-2.6748,1.4760,-3.0467
2024-10-11T12:06:57.738Z,0.0488,-1.0658,0.0750,-0.2396,0.2952,0.1323,0.0501,0.4808,-0.0391,-2.6748,1.4760,-3.0467
2024-10-11T12:06:57.749Z,0.0810,-1.0646,0.0793,-0.8568,0.7057,0.2209,0.0486,0.4832,-0.0408,-2.6606,1.4749,-3.0462
2024-10-11T12:06:57.758Z,0.0721,-1.0596,0.0913,-0.8568,0.7057,0.2209,0.0485,0.4845,-0.0411,-2.6606,1.4749,-3.0462
2024-10-11T12:06:57.768Z,0.0758,-1.0639,0.0972,-0.8343,0.6736,-0.0052,0.0483,0.4786,-0.0435,-2.6467,1.4735,-3.0460
2024-10-11T12:06:57.778Z,0.0872,-1.0795,0.1028,-0.8343,0.6736,-0.0052,0.0480,0.4627,-0.0451,-2.6467,1.4735,-3.0460
2024-10-11T12:06:57.787Z,0.0791,-1.0915,0.1111,-0.8343,0.6736,-0.0052,0.0416,0.4424,-0.0488,-2.6467,1.4735,-3.0460
2024-10-11T12:06:57.798Z,0.0756,-1.1030,0.1120,-0.8313,1.0576,-0.1383,0.0430,0.4202,-0.0500,-2.6310,1.4724,-3.0483
2024-10-11T12:06:57.808Z,0.0997,-1.0976,0.1012,-0.8313,1.0576,-0.1383,0.0425,0.3957,-0.0502,-2.6310,1.4724,-3.0483
2024-10-11T12:06:57.818Z,0.1128,-1.0914,0.0992,-0.8313,1.0576,-0.1383,0.0473,0.3672,-0.0489,-2.6310,1.4724,-3.0483
2024-10-11T12:06:57.828Z,0.1211,-1.0755,0.1052,-1.2748,0.7898,-0.0596,0.0489,0.3314,-0.0428,-2.6160,1.4711,-3.0525
2024-10-11T12:06:57.837Z,0.1293,-1.0661,0.0970,-1.2748,0.7898,-0.0596,0.0539,0.2954,-0.0360,-2.6160,1.4711,-3.0525
2024-10-11T12:06:57.848Z,0.1297,-1.0439,0.0858,-1.2748,0.7898,-0.0596,0.0641,0.2585,-0.0297,-2.6160,1.4711,-3.0525
2024-10-11T12:06:57.858Z,0.1431,-1.0247,0.0845,-1.4896,0.2931,0.1610,0.0720,0.2166,-0.0234,-2.6053,1.4693,-3.0554
2024-10-11T12:06:57.868Z,0.1401,-1.0182,0.0775,-1.4896,0.2931,0.1610,0.0798,0.1718,-0.0159,-2.6053,1.4693,-3.0554
2024-10-11T12:06:57.878Z,0.1218,-1.0181,0.0865,-1.4896,0.2931,0.1610,0.0864,0.1373,-0.0132,-2.6053,1.4693,-3.0554
2024-10-11T12:06:57.888Z,0.1099,-1.0097,0.0965,-1.1644,0.1478,0.0672,0.0854,0.1069,-0.0051,-2.5999,1.4669,-3.0565
2024-10-11T12:06:57.898Z,0.1153,-1.0109,0.1203,-1.1644,0.1478,0.0672,0.0852,0.0736,0.0019,-2.5999,1.4669,-3.0565
2024-10-11T12:06:57.908Z,0.0955,-1.0299,0.1419,-1.1644,0.1478,0.0672,0.0784,0.0505,0.0038,-2.5999,1.4669,-3.0565
2024-10-11T12:06:57.918Z,0.0521,-1.0522,0.1636,-0.6001,0.5678,-0.5676,0.0710,0.0348,-0.0001,-2.5986,1.4644,-3.0564
2024-10-11T12:06:57.928Z,0.0351,-1.0685,0.1623,-0.6001,0.5678,-0.5676,0.0700,0.0151,-0.0008,-2.5986,1.4644,-3.0564
2024-10-11T12:06:57.937Z,0.0385,-1.0689,0.1532,-0.6001,0.5678,-0.5676,0.0654,0.0120,-0.0016,-2.5986,1.4644,-3.0564
2024-10-11T12:06:57.948Z,0.0402,-1.0630,0.1379,-0.4831,0.6756,-0.2953,0.0603,0.0096,0.0011,-2.5971,1.4624,-3.0578
2024-10-11T12:06:57.958Z,0.0342,-1.0591,0.1438,-0.4831,0.6756,-0.2953,0.0581,0.0149,0.0025,-2.5971,1.4624,-3.0578
2024-10-11T12:06:57.967Z,0.0100,-1.0617,0.1438,-0.4831,0.6756,-0.2953,0.0504,0.0235,-0.0026,-2.5971,1.4624,-3.0578
2024-10-11T12:06:57.977Z,-0.0122,-1.0631,0.1385,0.0303,0.6783,-0.2855,0.0469,0.0318,-0.0108,-2.5958,1.4608,-3.0588
2024-10-11T12:06:57.987Z,-0.0403,-1.0618,0.1256,0.0303,0.6783,-0.2855,0.0461,0.0394,-0.0177,-2.5958,1.4608,-3.0588
2024-10-11T12:06:57.998Z,-0.0551,-1.0555,0.1103,0.0303,0.6783,-0.2855,0.0468,0.0513,-0.0237,-2.5958,1.4608,-3.0588
2024-10-11T12:06:58.008Z,-0.0494,-1.0492,0.1013,0.4002,0.5433,0.0938,0.0441,0.0659,-0.0322,-2.5889,1.4594,-3.0643
2024-10-11T12:06:58.018Z,-0.0530,-1.0527,0.0943,0.4002,0.5433,0.0938,0.0449,0.0808,-0.0376,-2.5889,1.4594,-3.0643
2024-10-11T12:06:58.027Z,-0.0581,-1.0710,0.0833,0.4002,0.5433,0.0938,0.0465,0.0959,-0.0476,-2.5889,1.4594,-3.0643
2024-10-11T12:06:58.040Z,-0.0550,-1.0891,0.0651,0.4650,0.9363,0.4627,0.0519,0.1049,-0.0505,-2.5768,1.4581,-3.0739
2024-10-11T12:06:58.048Z,-0.0439,-1.0946,0.0664,0.4650,0.9363,0.4627,0.0506,0.1046,-0.0581,-2.5768,1.4581,-3.0739
2024-10-11T12:06:58.058Z,-0.0567,-1.0806,0.0880,0.4650,0.9363,0.4627,0.0425,0.1078,-0.0654,-2.5768,1.4581,-3.0739
2024-10-11T12:06:58.068Z,-0.0535,-1.0687,0.1012,0.4652,0.7375,0.1210,0.0398,0.1036,-0.0707,-2.5598,1.4569,-3.0879
2024-10-11T12:06:58.077Z,-0.0139,-1.0650,0.0901,0.4652,0.7375,0.1210,0.0381,0.0929,-0.0696,-2.5598,1.4569,-3.0879
2024-10-11T12:06:58.087Z,0.0092,-1.0699,0.0959,0.4652,0.7375,0.1210,0.0356,0.0793,-0.0695,-2.5598,1.4569,-3.0879
2024-10-11T12:06:58.098Z,0.0134,-1.0666,0.1070,-0.1747,0.7184,0.0747,0.0330,0.0715,-0.0642,-2.5418,1.4559,-3.1035
2024-10-11T12:06:58.108Z,0.0238,-1.0557,0.1357,-0.1747,0.7184,0.0747,0.0244,0.0604,-0.0637,-2.5418,1.4559,-3.1035
2024-10-11T12:06:58.117Z,0.0238,-1.0557,0.1357,-0.1747,0.7184,0.0747,0.0223,0.0453,-0.0600,-2.5418,1.4559,-3.1035
2024-10-11T12:06:58.128Z,0.0293,-1.0427,0.1364,-0.3830,0.4556,-0.1695,0.0172,0.0352,-0.0554,-2.5258,1.4552,-3.1181
2024-10-11T12:06:58.138Z,0.0363,-1.0398,0.1326,-0.3830,0.4556,-0.1695,0.0186,0.0244,-0.0519,-2.5258,1.4552,-3.1181
2024-10-11T12:06:58.148Z,0.0543,-1.0351,0.1413,-0.3830,0.4556,-0.1695,0.0137,0.0181,-0.0487,-2.5258,1.4552,-3.1181
2024-10-11T12:06:58.159Z,0.0543,-1.0351,0.1413,-0.4179,0.3882,-0.2095,0.0104,0.0032,-0.0476,-2.5125,1.4548,-3.1310
2024-10-11T12:06:58.168Z,0.0349,-1.0303,0.1374,-0.4179,0.3882,-0.2095,0.0061,-0.0065,-0.0481,-2.5125,1.4548,-3.1310
2024-10-11T12:06:58.178Z,0.0483,-1.0249,0.1424,-0.4179,0.3882,-0.2095,0.0019,-0.0172,-0.0426,-2.5125,1.4548,-3.1310
2024-10-11T12:06:58.188Z,0.0483,-1.0249,0.1424,-0.4649,0.2349,-0.2483,0.0019,-0.0172,-0.0426,-2.5015,1.4547,3.1405
2024-10-11T12:06:58.198Z,0.0410,-1.0080,0.1289,-0.4649,0.2349,-0.2483,-0.0014,-0.0459,-0.0348,-2.5015,1.4547,3.1405
2024-10-11T12:06:58.208Z,0.0410,-1.0080,0.1289,-0.4649,0.2349,-0.2483,-0.0004,-0.0631,-0.0293,-2.5015,1.4547,3.1405
2024-10-11T12:06:58.218Z,0.0241,-0.9947,0.1217,-0.1954,-0.1076,-0.1501,-0.0009,-0.0686,-0.0296,-2.4933,1.4547,3.1303
2024-10-11T12:06:58.228Z,0.0139,-0.9672,0.1284,-0.1954,-0.1076,-0.1501,-0.0035,-0.0803,-0.0295,-2.4933,1.4547,3.1303
2024-10-11T12:06:58.238Z,0.0139,-0.9672,0.1284,-0.1954,-0.1076,-0.1501,-0.0045,-0.0826,-0.0333,-2.4933,1.4547,3.1303
2024-10-11T12:06:58.248Z,-0.0061,-0.9520,0.1342,0.2402,-0.4580,-0.1876,-0.0089,-0.0848,-0.0343,-2.4853,1.4548,3.1197
2024-10-11T12:06:58.258Z,-0.0130,-0.9542,0.1449,0.2402,-0.4580,-0.1876,-0.0121,-0.0789,-0.0342,-2.4853,1.4548,3.1197
2024-10-11T12:06:58.268Z,-0.0008,-0.9571,0.1498,0.2402,-0.4580,-0.1876,-0.0136,-0.0661,-0.0333,-2.4853,1.4548,3.1197
2024-10-11T12:06:58.279Z,-0.0008,-0.9571,0.1498,-0.0239,-0.3134,-0.2343,-0.0128,-0.0585,-0.0275,-2.4774,1.4552,3.1095
2024-10-11T12:06:58.288Z,0.0061,-0.9614,0.1391,-0.0239,-0.3134,-0.2343,-0.0142,-0.0487,-0.0226,-2.4774,1.4552,3.1095
2024-10-11T12:06:58.298Z,-0.0012,-0.9720,0.1482,-0.0239,-0.3134,-0.2343,-0.0172,-0.0345,-0.0217,-2.4774,1.4552,3.1095
2024-10-11T12:06:58.308Z,-0.0012,-0.9720,0.1482,0.3038,-0.2762,-0.3954,-0.0161,-0.0201,-0.0195,-2.4714,1.4557,3.1023
2024-10-11T12:06:58.318Z,-0.0422,-0.9509,0.1589,0.3038,-0.2762,-0.3954,-0.0167,-0.0049,-0.0222,-2.4714,1.4557,3.1023
2024-10-11T12:06:58.328Z,-0.0343,-0.9372,0.1547,0.3038,-0.2762,-0.3954,-0.0159,0.0060,-0.0247,-2.4714,1.4557,3.1023
2024-10-11T12:06:58.339Z,-0.0343,-0.9372,0.1547,0.3638,-0.6871,-0.3539,-0.0137,0.0169,-0.0214,-2.4656,1.4561,3.0964
2024-10-11T12:06:58.348Z,-0.0340,-0.9209,0.1488,0.3638,-0.6871,-0.3539,-0.0099,0.0239,-0.0227,-2.4656,1.4561,3.0964
2024-10-11T12:06:58.358Z,-0.0360,-0.9199,0.1368,0.3638,-0.6871,-0.3539,-0.0030,0.0307,-0.0204,-2.4656,1.4561,3.0964
2024-10-11T12:06:58.368Z,-0.0360,-0.9199,0.1368,0.2686,-0.7279,-0.0388,0.0013,0.0390,-0.0158,-2.4607,1.4562,3.0922
2024-10-11T12:06:58.378Z,-0.0002,-0.9234,0.1099,0.2686,-0.7279,-0.0388,0.0068,0.0445,-0.0087,-2.4607,1.4562,3.0922
2024-10-11T12:06:58.389Z,0.0170,-0.9332,0.1136,0.2686,-0.7279,-0.0388,0.0088,0.0540,-0.0000,-2.4607,1.4562,3.0922
2024-10-11T12:06:58.398Z,0.0203,-0.9439,0.1215,-0.1444,-0.4859,-0.0688,0.0090,0.0657,0.0056,-2.4599,1.4559,3.0928
2024-10-11T12:06:58.408Z,0.0337,-0.9487,0.1285,-0.1444,-0.4859,-0.0688,0.0065,0.0816,0.0133,-2.4599,1.4559,3.0928
2024-10-11T12:06:58.418Z,0.0410,-0.9532,0.1386,-0.1444,-0.4859,-0.0688,0.0059,0.0920,0.0238,-2.4599,1.4559,3.0928
2024-10-11T12:06:58.428Z,0.0410,-0.9532,0.1386,-0.2825,-0.3328,-0.2087,0.0026,0.0970,0.0310,-2.4661,1.4557,3.1011
2024-10-11T12:06:58.439Z,0.0238,-0.9644,0.1439,-0.2825,-0.3328,-0.2087,0.0012,0.1002,0.0351,-2.4661,1.4557,3.1011
2024-10-11T12:06:58.448Z,0.0154,-0.9705,0.1405,-0.2825,-0.3328,-0.2087,0.0015,0.1022,0.0395,-2.4661,1.4557,3.1011
2024-10-11T12:06:58.458Z,0.0154,-0.9705,0.1405,-0.0749,-0.2265,-0.2051,-0.0010,0.1018,0.0406,-2.4762,1.4557,3.1139
2024-10-11T12:06:58.468Z,-0.0004,-0.9557,0.1380,-0.0749,-0.2265,-0.2051,-0.0020,0.0940,0.0394,-2.4762,1.4557,3.1139
2024-10-11T12:06:58.478Z,0.0006,-0.9435,0.1436,-0.0749,-0.2265,-0.2051,-0.0036,0.0859,0.0460,-2.4762,1.4557,3.1139
2024-10-11T12:06:58.489Z,0.0006,-0.9435,0.1436,-0.0686,-0.5570,-0.3308,-0.0066,0.0741,0.0466,-2.4878,1.4558,3.1277
2024-10-11T12:06:58.498Z,0.0220,-0.9377,0.1319,-0.0686,-0.5570,-0.3308,-0.0061,0.0557,0.0530,-2.4878,1.4558,3.1277
2024-10-11T12:06:58.508Z,0.0353,-0.9331,0.1144,-0.0686,-0.5570,-0.3308,-0.0002,0.0422,0.0574,-2.4878,1.4558,3.1277
2024-10-11T12:06:58.518Z,0.0347,-0.9160,0.1166,-0.3433,-0.7589,-0.0179,-0.0013,0.0372,0.0630,-2.5027,1.4558,-3.1394
2024-10-11T12:06:58.527Z,0.0404,-0.8971,0.1268,-0.3433,-0.7589,-0.0179,-0.0013,0.0316,0.0718,-2.5027,1.4558,-3.1394
2024-10-11T12:06:58.539Z,0.0517,-0.9055,0.1219,-0.3433,-0.7589,-0.0179,0.0088,0.0227,0.0784,-2.5027,1.4558,-3.1394
2024-10-11T12:06:58.549Z,0.0424,-0.9383,0.0811,-0.4413,-0.5405,0.3327,0.0142,0.0129,0.0806,-2.5225,1.4555,-3.1193
2024-10-11T12:06:58.558Z,0.0391,-0.9610,0.0552,-0.4413,-0.5405,0.3327,0.0226,0.0081,0.0838,-2.5225,1.4555,-3.1193
2024-10-11T12:06:58.568Z,0.0171,-0.9673,0.0729,-0.4413,-0.5405,0.3327,0.0213,-0.0051,0.0816,-2.5225,1.4555,-3.1193
2024-10-11T12:06:58.578Z,-0.0005,-0.9658,0.0900,-0.0437,-0.2698,0.2519,0.0211,-0.0096,0.0792,-2.5435,1.4548,-3.0985
2024-10-11T12:06:58.588Z,-0.0061,-0.9565,0.0893,-0.0437,-0.2698,0.2519,0.0126,-0.0014,0.0727,-2.5435,1.4548,-3.0985
2024-10-11T12:06:58.598Z,-0.0018,-0.9542,0.0891,-0.0437,-0.2698,0.2519,0.0081,-0.0100,0.0695,-2.5435,1.4548,-3.0985
2024-10-11T12:06:58.608Z,-0.0018,-0.9542,0.0891,-0.1484,-0.3296,0.2491,-0.0003,-0.0157,0.0665,-2.5616,1.4543,-3.0811
2024-10-11T12:06:58.618Z,0.0199,-0.9681,0.0856,-0.1484,-0.3296,0.2491,-0.0028,-0.0286,0.0660,-2.5616,1.4543,-3.0811
2024-10-11T12:06:58.628Z,0.0217,-0.9658,0.0648,-0.1484,-0.3296,0.2491,-0.0079,-0.0398,0.0646,-2.5616,1.4543,-3.0811
2024-10-11T12:06:58.639Z,0.0217,-0.9658,0.0648,-0.1207,-0.3665,0.6731,-0.0107,-0.0506,0.0614,-2.5787,1.4543,-3.0656
2024-10-11T12:06:58.648Z,-0.0015,-0.9445,0.0468,-0.1207,-0.3665,0.6731,-0.0085,-0.0687,0.0576,-2.5787,1.4543,-3.0656
2024-10-11T12:06:58.658Z,0.0037,-0.9506,0.0441,-0.1207,-0.3665,0.6731,-0.0047,-0.0833,0.0553,-2.5787,1.4543,-3.0656
2024-10-11T12:06:58.668Z,0.0120,-0.9788,0.0271,-0.2188,-0.1417,0.8700,0.0025,-0.0926,0.0563,-2.5938,1.4543,-3.0532
2024-10-11T12:06:58.678Z,0.0004,-0.9872,0.0321,-0.2188,-0.1417,0.8700,0.0070,-0.0941,0.0499,-2.5938,1.4543,-3.0532
2024-10-11T12:06:58.689Z,-0.0099,-0.9690,0.0642,-0.2188,-0.1417,0.8700,0.0125,-0.0977,0.0461,-2.5938,1.4543,-3.0532
2024-10-11T12:06:58.698Z,-0.0194,-0.9469,0.0841,0.0799,-0.4537,0.3148,0.0171,-0.1014,0.0381,-2.6058,1.4538,-3.0447
2024-10-11T12:06:58.707Z,-0.0167,-0.9315,0.0905,0.0799,-0.4537,0.3148,0.0230,-0.1113,0.0356,-2.6058,1.4538,-3.0447
2024-10-11T12:06:58.718Z,-0.0288,-0.9245,0.0991,0.0799,-0.4537,0.3148,0.0333,-0.1234,0.0299,-2.6058,1.4538,-3.0447
2024-10-11T12:06:58.728Z,-0.0402,-0.9286,0.1068,0.2791,-0.6323,0.1016,0.0412,-0.1345,0.0221,-2.6127,1.4528,-3.0415
2024-10-11T12:06:58.738Z,-0.0265,-0.9329,0.1070,0.2791,-0.6323,0.1016,0.0501,-0.1331,0.0149,-2.6127,1.4528,-3.0415
2024-10-11T12:06:58.748Z,-0.0113,-0.9333,0.0997,0.2791,-0.6323,0.1016,0.0620,-0.1379,0.0168,-2.6127,1.4528,-3.0415
2024-10-11T12:06:58.758Z,-0.0113,-0.9333,0.0997,-0.1110,-0.5220,0.1111,0.0671,-0.1416,0.0107,-2.6151,1.4510,-3.0435
2024-10-11T12:06:58.768Z,-0.0025,-0.9451,0.1129,-0.1110,-0.5220,0.1111,0.0726,-0.1437,0.0090,-2.6151,1.4510,-3.0435
2024-10-11T12:06:58.778Z,0.0017,-0.9478,0.1037,-0.1110,-0.5220,0.1111,0.0739,-0.1345,0.0072,-2.6151,1.4510,-3.0435
2024-10-11T12:06:58.788Z,0.0017,-0.9478,0.1037,-0.3146,-0.3523,0.4206,0.0791,-0.1338,0.0031,-2.6155,1.4488,-3.0473
2024-10-11T12:06:58.798Z,0.0136,-0.9724,0.0527,-0.3146,-0.3523,0.4206,0.0808,-0.1305,0.0001,-2.6155,1.4488,-3.0473
2024-10-11T12:06:58.807Z,0.0078,-0.9694,0.0623,-0.3146,-0.3523,0.4206,0.0771,-0.1340,-0.0012,-2.6155,1.4488,-3.0473
2024-10-11T12:06:58.818Z,0.0175,-0.9659,0.0783,-0.2788,-0.2588,0.4444,0.0731,-0.1413,-0.0034,-2.6138,1.4464,-3.0534
2024-10-11T12:06:58.828Z,0.0131,-0.9731,0.1003,-0.2788,-0.2588,0.4444,0.0667,-0.1498,-0.0082,-2.6138,1.4464,-3.0534
2024-10-11T12:06:58.837Z,0.0074,-0.9814,0.0982,-0.2788,-0.2588,0.4444,0.0602,-0.1603,-0.0106,-2.6138,1.4464,-3.0534
2024-10-11T12:06:58.848Z,0.0003,-0.9899,0.1024,-0.1009,-0.0211,0.2257,0.0500,-0.1665,-0.0166,-2.6103,1.4446,-3.0618
2024-10-11T12:06:58.858Z,-0.0027,-0.9968,0.1129,-0.1009,-0.0211,0.2257,0.0418,-0.1753,-0.0208,-2.6103,1.4446,-3.0618
2024-10-11T12:06:58.868Z,0.0095,-1.0194,0.1435,-0.1009,-0.0211,0.2257,0.0339,-0.1813,-0.0219,-2.6103,1.4446,-3.0618
2024-10-11T12:06:58.878Z,0.0050,-1.0378,0.1549,-0.1351,0.4502,-0.2783,0.0278,-0.1867,-0.0249,-2.6052,1.4436,-3.0725
2024-10-11T12:06:58.888Z,0.0129,-1.0530,0.1474,-0.1351,0.4502,-0.2783,0.0216,-0.1899,-0.0259,-2.6052,1.4436,-3.0725
2024-10-11T12:06:58.898Z,0.0136,-1.0457,0.1433,-0.1351,0.4502,-0.2783,0.0207,-0.1932,-0.0295,-2.6052,1.4436,-3.0725
2024-10-11T12:06:58.908Z,-0.0028,-1.0414,0.1448,-0.0422,0.4859,-0.1726,0.0192,-0.2043,-0.0345,-2.5982,1.4430,-3.0855
2024-10-11T12:06:58.919Z,-0.0148,-1.0414,0.1314,-0.0422,0.4859,-0.1726,0.0280,-0.2208,-0.0357,-2.5982,1.4430,-3.0855
2024-10-11T12:06:58.928Z,-0.0023,-1.0440,0.1044,-0.0422,0.4859,-0.1726,0.0311,-0.2316,-0.0396,-2.5982,1.4430,-3.0855
2024-10-11T12:06:58.938Z,-0.0023,-1.0440,0.1044,-0.2074,0.4496,0.2478,0.0340,-0.2401,-0.0362,-2.5893,1.4421,-3.1015
2024-10-11T12:06:58.948Z,0.0283,-1.0406,0.1149,-0.2074,0.4496,0.2478,0.0339,-0.2435,-0.0366,-2.5893,1.4421,-3.1015
2024-10-11T12:06:58.957Z,0.0182,-1.0546,0.1157,-0.2074,0.4496,0.2478,0.0308,-0.2421,-0.0323,-2.5893,1.4421,-3.1015
2024-10-11T12:06:58.968Z,0.0155,-1.0785,0.0769,-0.1845,0.8521,0.5134,0.0345,-0.2367,-0.0279,-2.5818,1.4411,-3.1164
2024-10-11T12:06:58.978Z,0.0115,-1.0899,0.0507,-0.1845,0.8521,0.5134,0.0383,-0.2294,-0.0255,-2.5818,1.4411,-3.1164
2024-10-11T12:06:58.988Z,0.0003,-1.0974,0.0407,-0.1845,0.8521,0.5134,0.0393,-0.2230,-0.0225,-2.5818,1.4411,-3.1164
2024-10-11T12:06:58.998Z,-0.0097,-1.0985,0.0459,0.0787,1.0501,0.8299,0.0411,-0.2015,-0.0256,-2.5762,1.4399,-3.1287
2024-10-11T12:06:59.008Z,-0.0353,-1.0865,0.0672,0.0787,1.0501,0.8299,0.0349,-0.1807,-0.0262,-2.5762,1.4399,-3.1287
2024-10-11T12:06:59.018Z,-0.0423,-1.0686,0.1085,0.0787,1.0501,0.8299,0.0280,-0.1597,-0.0253,-2.5762,1.4399,-3.1287
2024-10-11T12:06:59.028Z,-0.0237,-1.0437,0.1372,0.2298,0.5139,-0.0566,0.0206,-0.1373,-0.0243,-2.5705,1.4390,-3.1397
2024-10-11T12:06:59.038Z,-0.0241,-1.0266,0.1419,0.2298,0.5139,-0.0566,0.0071,-0.1143,-0.0206,-2.5705,1.4390,-3.1397
2024-10-11T12:06:59.048Z,-0.0182,-1.0135,0.1515,0.2298,0.5139,-0.0566,-0.0009,-0.0912,-0.0144,-2.5705,1.4390,-3.1397
2024-10-11T12:06:59.058Z,-0.0182,-1.0135,0.1515,0.2324,0.0975,-0.4846,-0.0154,-0.0679,-0.0076,-2.5668,1.4390,3.1366
2024-10-11T12:06:59.067Z,-0.0163,-0.9938,0.2090,0.2324,0.0975,-0.4846,-0.0290,-0.0421,-0.0040,-2.5668,1.4390,3.1366
2024-10-11T12:06:59.078Z,-0.0173,-1.0012,0.2068,0.2324,0.0975,-0.4846,-0.0350,-0.0156,0.0001,-2.5668,1.4390,3.1366
2024-10-11T12:06:59.089Z,-0.0270,-1.0118,0.1745,0.2730,0.1994,-0.4316,-0.0397,0.0039,0.0027,-2.5666,1.4399,3.1354
2024-10-11T12:06:59.097Z,-0.0310,-0.9995,0.1621,0.2730,0.1994,-0.4316,-0.0452,0.0298,0.0026,-2.5666,1.4399,3.1354
2024-10-11T12:06:59.108Z,-0.0402,-0.9749,0.1572,0.2730,0.1994,-0.4316,-0.0478,0.0421,0.0041,-2.5666,1.4399,3.1354
2024-10-11T12:06:59.118Z,-0.0414,-0.9581,0.1554,0.4116,-0.3285,-0.2582,-0.0526,0.0573,0.0041,-2.5674,1.4414,3.1372
2024-10-11T12:06:59.128Z,-0.0494,-0.9493,0.1445,0.4116,-0.3285,-0.2582,-0.0520,0.0505,0.0026,-2.5674,1.4414,3.1372
2024-10-11T12:06:59.139Z,-0.0627,-0.9485,0.1368,0.4116,-0.3285,-0.2582,-0.0527,0.0467,0.0022,-2.5674,1.4414,3.1372
2024-10-11T12:06:59.148Z,-0.0553,-0.9457,0.1348,0.5452,-0.4528,-0.0713,-0.0509,0.0422,-0.0009,-2.5680,1.4429,3.1391
2024-10-11T12:06:59.158Z,-0.0528,-0.9477,0.1241,0.5452,-0.4528,-0.0713,-0.0495,0.0387,-0.0036,-2.5680,1.4429,3.1391
2024-10-11T12:06:59.168Z,-0.0589,-0.9499,0.1092,0.5452,-0.4528,-0.0713,-0.0436,0.0375,-0.0085,-2.5680,1.4429,3.1391
2024-10-11T12:06:59.178Z,-0.0425,-0.9517,0.1151,0.4206,-0.3951,0.1087,-0.0398,0.0434,-0.0128,-2.5666,1.4443,3.1388
2024-10-11T12:06:59.188Z,-0.0336,-0.9529,0.1276,0.4206,-0.3951,0.1087,-0.0343,0.0455,-0.0145,-2.5666,1.4443,3.1388
2024-10-11T12:06:59.198Z,-0.0136,-0.9637,0.1505,0.4206,-0.3951,0.1087,-0.0341,0.0529,-0.0191,-2.5666,1.4443,3.1388
2024-10-11T12:06:59.209Z,-0.0099,-0.9644,0.1635,0.1037,-0.2717,-0.3767,-0.0325,0.0555,-0.0176,-2.5630,1.4454,3.1366
2024-10-11T12:06:59.218Z,-0.0059,-0.9519,0.1590,0.1037,-0.2717,-0.3767,-0.0340,0.0531,-0.0195,-2.5630,1.4454,3.1366
2024-10-11T12:06:59.228Z,0.0017,-0.9289,0.1569,0.1037,-0.2717,-0.3767,-0.0345,0.0438,-0.0207,-2.5630,1.4454,3.1366
2024-10-11T12:06:59.238Z,0.0050,-0.9253,0.1513,-0.0384,-0.6571,-0.2666,-0.0328,0.0374,-0.0252,-2.5583,1.4463,3.1329
2024-10-11T12:06:59.247Z,-0.0098,-0.9361,0.1593,-0.0384,-0.6571,-0.2666,-0.0321,0.0283,-0.0298,-2.5583,1.4463,3.1329
2024-10-11T12:06:59.258Z,-0.0197,-0.9475,0.1573,-0.0384,-0.6571,-0.2666,-0.0297,0.0217,-0.0387,-2.5583,1.4463,3.1329
2024-10-11T12:06:59.268Z,0.0034,-0.9514,0.1451,-0.0141,-0.4023,-0.2134,-0.0292,0.0197,-0.0407,-2.5502,1.4472,3.1254
2024-10-11T12:06:59.278Z,0.0164,-0.9546,0.1281,-0.0141,-0.4023,-0.2134,-0.0228,0.0094,-0.0432,-2.5502,1.4472,3.1254
2024-10-11T12:06:59.288Z,0.0183,-0.9641,0.1109,-0.0141,-0.4023,-0.2134,-0.0197,0.0140,-0.0459,-2.5502,1.4472,3.1254
2024-10-11T12:06:59.298Z,0.0331,-0.9691,0.1065,-0.2928,-0.2287,0.1593,-0.0158,0.0090,-0.0436,-2.5396,1.4477,3.1150
2024-10-11T12:06:59.308Z,0.0501,-0.9800,0.1156,-0.2928,-0.2287,0.1593,-0.0146,0.0083,-0.0418,-2.5396,1.4477,3.1150
2024-10-11T12:06:59.318Z,0.0465,-0.9858,0.1212,-0.2928,-0.2287,0.1593,-0.0114,0.0060,-0.0389,-2.5396,1.4477,3.1150
2024-10-11T12:06:59.329Z,0.0579,-0.9933,0.1222,-0.5250,0.0078,0.0017,-0.0131,0.0051,-0.0329,-2.5303,1.4480,3.1057
2024-10-11T12:06:59.339Z,0.0664,-0.9839,0.1243,-0.5250,0.0078,0.0017,-0.0155,0.0103,-0.0252,-2.5303,1.4480,3.1057
2024-10-11T12:06:59.348Z,0.0732,-0.9747,0.1253,-0.5250,0.0078,0.0017,-0.0127,0.0067,-0.0182,-2.5303,1.4480,3.1057
2024-10-11T12:06:59.358Z,0.0610,-0.9667,0.1223,-0.5492,-0.2530,-0.0023,-0.0150,0.0117,-0.0174,-2.5253,1.4483,3.1006
2024-10-11T12:06:59.368Z,0.0385,-0.9709,0.1362,-0.5492,-0.2530,-0.0023,-0.0142,0.0113,-0.0123,-2.5253,1.4483,3.1006
2024-10-11T12:06:59.378Z,0.0307,-0.9764,0.1568,-0.5492,-0.2530,-0.0023,-0.0214,0.0183,-0.0095,-2.5253,1.4483,3.1006
2024-10-11T12:06:59.389Z,0.0326,-0.9819,0.1620,-0.2675,-0.1045,-0.3972,-0.0245,0.0215,-0.0095,-2.5224,1.4489,3.0978
2024-10-11T12:06:59.398Z,0.0292,-0.9786,0.1610,-0.2675,-0.1045,-0.3972,-0.0281,0.0237,-0.0086,-2.5224,1.4489,3.0978
2024-10-11T12:06:59.408Z,0.0266,-0.9782,0.1441,-0.2675,-0.1045,-0.3972,-0.0369,0.0245,-0.0061,-2.5224,1.4489,3.0978
2024-10-11T12:06:59.418Z,0.0381,-0.9749,0.1303,-0.3201,-0.1740,-0.0952,-0.0362,0.0253,0.0001,-2.5205,1.4498,3.0962
2024-10-11T12:06:59.428Z,0.0492,-0.9727,0.1349,-0.3201,-0.1740,-0.0952,-0.0433,0.0253,0.0039,-2.5205,1.4498,3.0962
2024-10-11T12:06:59.438Z,0.0563,-0.9690,0.1429,-0.3201,-0.1740,-0.0952,-0.0507,0.0310,0.0100,-2.5205,1.4498,3.0962
2024-10-11T12:06:59.448Z,0.0612,-0.9730,0.1425,-0.5495,-0.1948,-0.2296,-0.0567,0.0286,0.0178,-2.5219,1.4513,3.0985
2024-10-11T12:06:59.458Z,0.0684,-0.9794,0.1399,-0.5495,-0.1948,-0.2296,-0.0634,0.0272,0.0255,-2.5219,1.4513,3.0985
2024-10-11T12:06:59.468Z,0.0576,-0.9702,0.1293,-0.5495,-0.1948,-0.2296,-0.0650,0.0242,0.0346,-2.5219,1.4513,3.0985
2024-10-11T12:06:59.478Z,0.0693,-0.9638,0.1143,-0.6390,-0.2872,0.0293,-0.0639,0.0202,0.0417,-2.5291,1.4531,3.1062
2024-10-11T12:06:59.489Z,0.0785,-0.9621,0.1046,-0.6390,-0.2872,0.0293,-0.0625,0.0123,0.0521,-2.5291,1.4531,3.1062
2024-10-11T12:06:59.498Z,0.0724,-0.9765,0.1037,-0.6390,-0.2872,0.0293,-0.0528,-0.0056,0.0607,-2.5291,1.4531,3.1062
2024-10-11T12:06:59.509Z,0.0595,-0.9903,0.1029,-0.5597,-0.0296,0.1262,-0.0478,-0.0214,0.0674,-2.5436,1.4548,3.1203
2024-10-11T12:06:59.517Z,0.0470,-0.9919,0.1008,-0.5597,-0.0296,0.1262,-0.0431,-0.0312,0.0687,-2.5436,1.4548,3.1203
2024-10-11T12:06:59.528Z,0.0320,-0.9828,0.1098,-0.5597,-0.0296,0.1262,-0.0344,-0.0486,0.0767,-2.5436,1.4548,3.1203
2024-10-11T12:06:59.539Z,0.0338,-0.9760,0.1153,-0.3275,-0.1709,-0.0060,-0.0274,-0.0513,0.0797,-2.5631,1.4559,3.1383
2024-10-11T12:06:59.548Z,0.0360,-0.9737,0.1130,-0.3275,-0.1709,-0.0060,-0.0228,-0.0502,0.0856,-2.5631,1.4559,3.1383
2024-10-11T12:06:59.558Z,0.0335,-0.9714,0.1135,-0.3275,-0.1709,-0.0060,-0.0176,-0.0447,0.0872,-2.5631,1.4559,3.1383
2024-10-11T12:06:59.568Z,0.0070,-0.9870,0.1164,-0.0886,-0.0638,-0.0216,-0.0112,-0.0433,0.0874,-2.5859,1.4564,-3.1240
2024-10-11T12:06:59.579Z,-0.0165,-1.0121,0.1214,-0.0886,-0.0638,-0.0216,0.0012,-0.0478,0.0845,-2.5859,1.4564,-3.1240
2024-10-11T12:06:59.590Z,-0.0127,-1.0245,0.1177,-0.0886,-0.0638,-0.0216,0.0119,-0.0418,0.0821,-2.5859,1.4564,-3.1240
2024-10-11T12:06:59.598Z,-0.0142,-1.0268,0.1082,0.0966,0.3273,0.0609,0.0189,-0.0308,0.0810,-2.6076,1.4561,-3.1037
2024-10-11T12:06:59.608Z,-0.0189,-1.0296,0.0989,0.0966,0.3273,0.0609,0.0299,-0.0129,0.0774,-2.6076,1.4561,-3.1037
2024-10-11T12:06:59.618Z,-0.0195,-1.0375,0.0942,0.0966,0.3273,0.0609,0.0354,0.0109,0.0721,-2.6076,1.4561,-3.1037
2024-10-11T12:06:59.628Z,-0.0345,-1.0408,0.0942,0.2743,0.4657,0.2080,0.0400,0.0254,0.0688,-2.6266,1.4550,-3.0851
2024-10-11T12:06:59.640Z,-0.0266,-1.0358,0.1058,0.2743,0.4657,0.2080,0.0362,0.0436,0.0602,-2.6266,1.4550,-3.0851
2024-10-11T12:06:59.648Z,-0.0300,-1.0344,0.1105,0.2743,0.4657,0.2080,0.0342,0.0519,0.0542,-2.6266,1.4550,-3.0851
2024-10-11T12:06:59.658Z,-0.0356,-1.0437,0.1017,0.2669,0.4958,0.1443,0.0333,0.0662,0.0513,-2.6412,1.4538,-3.0694
2024-10-11T12:06:59.668Z,-0.0310,-1.0611,0.0862,0.2669,0.4958,0.1443,0.0313,0.0687,0.0484,-2.6412,1.4538,-3.0694
2024-10-11T12:06:59.678Z,-0.0369,-1.0814,0.0840,0.2669,0.4958,0.1443,0.0307,0.0635,0.0443,-2.6412,1.4538,-3.0694
2024-10-11T12:06:59.689Z,-0.0490,-1.0903,0.0975,0.3831,0.9546,0.1950,0.0237,0.0564,0.0408,-2.6521,1.4528,-3.0568
2024-10-11T12:06:59.698Z,-0.0549,-1.1060,0.1127,0.3831,0.9546,0.1950,0.0154,0.0503,0.0357,-2.6521,1.4528,-3.0568
2024-10-11T12:06:59.708Z,-0.0616,-1.1291,0.1286,0.3831,0.9546,0.1950,0.0018,0.0423,0.0279,-2.6521,1.4528,-3.0568
2024-10-11T12:06:59.718Z,-0.0587,-1.1512,0.1394,0.4681,1.5517,-0.2146,-0.0077,0.0398,0.0255,-2.6596,1.4525,-3.0483
2024-10-11T12:06:59.728Z,-0.0351,-1.1714,0.1301,0.4681,1.5517,-0.2146,-0.0160,0.0265,0.0176,-2.6596,1.4525,-3.0483
2024-10-11T12:06:59.739Z,-0.0331,-1.1703,0.1143,0.4681,1.5517,-0.2146,-0.0254,0.0246,0.0113,-2.6596,1.4525,-3.0483
2024-10-11T12:06:59.748Z,-0.0492,-1.1533,0.1003,0.3701,1.5719,0.1618,-0.0383,0.0148,-0.0001,-2.6634,1.4531,-3.0440
2024-10-11T12:06:59.758Z,-0.0428,-1.1310,0.1143,0.3701,1.5719,0.1618,-0.0436,0.0044,-0.0090,-2.6634,1.4531,-3.0440
2024-10-11T12:06:59.768Z,-0.0365,-1.1207,0.1164,0.3701,1.5719,0.1618,-0.0466,-0.0195,-0.0188,-2.6634,1.4531,-3.0440
2024-10-11T12:06:59.778Z,-0.0265,-1.1137,0.0923,0.1522,1.1819,0.2274,-0.0510,-0.0325,-0.0276,-2.6611,1.4545,-3.0471
2024-10-11T12:06:59.789Z,-0.0191,-1.0926,0.0748,0.1522,1.1819,0.2274,-0.0452,-0.0524,-0.0365,-2.6611,1.4545,-3.0471
2024-10-11T12:06:59.798Z,-0.0193,-1.0707,0.0665,0.1522,1.1819,0.2274,-0.0401,-0.0724,-0.0469,-2.6611,1.4545,-3.0471
2024-10-11T12:06:59.808Z,-0.0295,-1.0548,0.0790,0.1970,0.6021,0.3470,-0.0352,-0.1026,-0.0567,-2.6508,1.4558,-3.0598
2024-10-11T12:06:59.818Z,-0.0161,-1.0398,0.0887,0.1970,0.6021,0.3470,-0.0346,-0.1322,-0.0636,-2.6508,1.4558,-3.0598
2024-10-11T12:06:59.828Z,0.0129,-1.0360,0.0962,0.1970,0.6021,0.3470,-0.0300,-0.1653,-0.0655,-2.6508,1.4558,-3.0598
2024-10-11T12:06:59.838Z,0.0442,-1.0384,0.0930,-0.5012,0.4406,0.2021,-0.0265,-0.2027,-0.0623,-2.6349,1.4568,-3.0807
2024-10-11T12:06:59.848Z,0.0634,-1.0372,0.0875,-0.5012,0.4406,0.2021,-0.0239,-0.2381,-0.0546,-2.6349,1.4568,-3.0807
2024-10-11T12:06:59.858Z,0.0704,-1.0302,0.0846,-0.5012,0.4406,0.2021,-0.0286,-0.2608,-0.0490,-2.6349,1.4568,-3.0807
2024-10-11T12:06:59.868Z,0.0782,-1.0212,0.1003,-0.8120,0.2708,0.1229,-0.0304,-0.2739,-0.0409,-2.6223,1.4576,-3.1010
2024-10-11T12:06:59.878Z,0.0674,-1.0141,0.1065,-0.8120,0.2708,0.1229,-0.0307,-0.2786,-0.0409,-2.6223,1.4576,-3.1010
2024-10-11T12:06:59.888Z,0.0555,-1.0114,0.1120,-0.8120,0.2708,0.1229,-0.0295,-0.2809,-0.0394,-2.6223,1.4576,-3.1010
2024-10-11T12:06:59.898Z,0.0509,-1.0108,0.1017,-0.5233,0.1680,0.1006,-0.0303,-0.2788,-0.0360,-2.6123,1.4586,-3.1194
2024-10-11T12:06:59.908Z,0.0491,-1.0019,0.1046,-0.5233,0.1680,0.1006,-0.0324,-0.2820,-0.0356,-2.6123,1.4586,-3.1194
2024-10-11T12:06:59.918Z,0.0337,-0.9877,0.1114,-0.5233,0.1680,0.1006,-0.0291,-0.2867,-0.0318,-2.6123,1.4586,-3.1194
2024-10-11T12:06:59.928Z,0.0117,-0.9817,0.1061,-0.1191,-0.1189,0.0492,-0.0226,-0.2809,-0.0363,-2.6030,1.4594,-3.1372
2024-10-11T12:06:59.938Z,0.0113,-0.9725,0.1146,-0.1191,-0.1189,0.0492,-0.0216,-0.2757,-0.0383,-2.6030,1.4594,-3.1372
2024-10-11T12:06:59.948Z,0.0138,-0.9601,0.1349,-0.1191,-0.1189,0.0492,-0.0243,-0.2619,-0.0372,-2.6030,1.4594,-3.1372
2024-10-11T12:06:59.958Z,0.0042,-0.9567,0.1584,-0.0262,-0.3645,-0.4708,-0.0219,-0.2490,-0.0388,-2.5928,1.4602,3.1277
2024-10-11T12:06:59.968Z,-0.0061,-0.9644,0.1688,-0.0262,-0.3645,-0.4708,-0.0236,-0.2319,-0.0412,-2.5928,1.4602,3.1277
2024-10-11T12:06:59.978Z,-0.0063,-0.9667,0.1709,-0.0262,-0.3645,-0.4708,-0.0222,-0.2100,-0.0414,-2.5928,1.4602,3.1277
2024-10-11T12:06:59.988Z,0.0000,-0.9704,0.1762,0.0334,-0.2308,-0.6518,-0.0220,-0.1875,-0.0373,-2.5823,1.4608,3.1105
2024-10-11T12:06:59.998Z,0.0054,-0.9669,0.1893,0.0334,-0.2308,-0.6518,-0.0221,-0.1684,-0.0309,-2.5823,1.4608,3.1105
2024-10-11T12:07:00.007Z,0.0041,-0.9638,0.1986,0.0334,-0.2308,-0.6518,-0.0233,-0.1451,-0.0272,-2.5823,1.4608,3.1105
2024-10-11T12:07:00.018Z,-0.0068,-0.9643,0.1949,0.1135,-0.2917,-0.8421,-0.0262,-0.1332,-0.0245,-2.5742,1.4614,3.0976
2024-10-11T12:07:00.028Z,-0.0217,-0.9710,0.1767,0.1135,-0.2917,-0.8421,-0.0280,-0.1244,-0.0197,-2.5742,1.4614,3.0976
2024-10-11T12:07:00.038Z,-0.0260,-0.9771,0.1630,0.1135,-0.2917,-0.8421,-0.0245,-0.1216,-0.0171,-2.5742,1.4614,3.0976
2024-10-11T12:07:00.048Z,-0.0358,-0.9878,0.1613,0.4080,-0.0616,-0.5197,-0.0274,-0.1238,-0.0142,-2.5692,1.4621,3.0886
2024-10-11T12:07:00.057Z,-0.0563,-0.9866,0.1716,0.4080,-0.0616,-0.5197,-0.0249,-0.1225,-0.0152,-2.5692,1.4621,3.0886
2024-10-11T12:07:00.068Z,-0.0774,-0.9767,0.1730,0.4080,-0.0616,-0.5197,-0.0218,-0.1236,-0.0153,-2.5692,1.4621,3.0886
2024-10-11T12:07:00.078Z,-0.0701,-0.9710,0.1745,0.7533,-0.2270,-0.6560,-0.0218,-0.1154,-0.0170,-2.5641,1.4627,3.0797
2024-10-11T12:07:00.088Z,-0.0561,-0.9716,0.1730,0.7533,-0.2270,-0.6560,-0.0175,-0.1060,-0.0182,-2.5641,1.4627,3.0797
2024-10-11T12:07:00.098Z,-0.0466,-0.9777,0.1672,0.7533,-0.2270,-0.6560,-0.0141,-0.1030,-0.0207,-2.5641,1.4627,3.0797
2024-10-11T12:07:00.107Z,-0.0504,-0.9721,0.1697,0.5680,-0.2174,-0.6138,-0.0181,-0.0850,-0.0165,-2.5590,1.4632,3.0715
2024-10-11T12:07:00.118Z,-0.0466,-0.9682,0.1758,0.5680,-0.2174,-0.6138,-0.0218,-0.0770,-0.0184,-2.5590,1.4632,3.0715
2024-10-11T12:07:00.128Z,-0.0347,-0.9712,0.1657,0.5680,-0.2174,-0.6138,-0.0245,-0.0679,-0.0147,-2.5590,1.4632,3.0715
2024-10-11T12:07:00.138Z,-0.0351,-0.9805,0.1456,0.4245,-0.1356,-0.3849,-0.0244,-0.0646,-0.0124,-2.5543,1.4639,3.0645
2024-10-11T12:07:00.148Z,-0.0080,-0.9853,0.1324,0.4245,-0.1356,-0.3849,-0.0272,-0.0547,-0.0080,-2.5543,1.4639,3.0645
2024-10-11T12:07:00.157Z,0.0122,-0.9876,0.1261,0.4245,-0.1356,-0.3849,-0.0277,-0.0601,-0.0002,-2.5543,1.4639,3.0645
