time,gFx,gFy,gFz,ax,ay,az,wx,wy,wz,yaw,pitch,roll
2024-10-11T12:10:55.807Z,-0.0314,-0.9765,0.1634,0.1412,-0.0830,0.0682,-0.0275,-0.0193,0.0064,-2.6986,1.4010,-3.0496
2024-10-11T12:10:55.814Z,-0.0285,-0.9883,0.1657,0.1412,-0.0830,0.0682,-0.0258,-0.0199,0.0043,-2.6986,1.4010,-3.0496
2024-10-11T12:10:55.824Z,-0.0283,-0.9922,0.1602,0.1256,0.0659,0.0574,-0.0271,-0.0210,0.0004,-2.7002,1.4017,-3.0487
2024-10-11T12:10:55.834Z,-0.0299,-0.9895,0.1598,0.1256,0.0659,0.0574,-0.0265,-0.0215,0.0024,-2.7002,1.4017,-3.0487
2024-10-11T12:10:55.843Z,-0.0309,-0.9850,0.1592,0.1256,0.0659,0.0574,-0.0254,-0.0211,-0.0025,-2.7002,1.4017,-3.0487
2024-10-11T12:10:55.854Z,-0.0338,-0.9845,0.1591,0.1797,-0.0161,0.0692,-0.0265,-0.0214,-0.0031,-2.7010,1.4024,-3.0488
2024-10-11T12:10:55.864Z,-0.0266,-0.9893,0.1507,0.1797,-0.0161,0.0692,-0.0245,-0.0179,-0.0049,-2.7010,1.4024,-3.0488
2024-10-11T12:10:55.874Z,-0.0233,-0.9922,0.1436,0.1797,-0.0161,0.0692,-0.0231,-0.0195,-0.0062,-2.7010,1.4024,-3.0488
2024-10-11T12:10:55.884Z,-0.0237,-0.9915,0.1483,0.0741,0.0514,0.1737,-0.0224,-0.0206,-0.0092,-2.7016,1.4031,-3.0491
2024-10-11T12:10:55.894Z,-0.0298,-0.9928,0.1441,0.0741,0.0514,0.1737,-0.0185,-0.0216,-0.0055,-2.7016,1.4031,-3.0491
2024-10-11T12:10:55.904Z,-0.0306,-0.9946,0.1443,0.0741,0.0514,0.1737,-0.0179,-0.0198,-0.0083,-2.7016,1.4031,-3.0491
2024-10-11T12:10:55.914Z,-0.0273,-0.9963,0.1496,0.1224,0.0981,0.1629,-0.0135,-0.0169,-0.0103,-2.7017,1.4037,-3.0498
2024-10-11T12:10:55.924Z,-0.0214,-0.9957,0.1513,0.1224,0.0981,0.1629,-0.0149,-0.0132,-0.0096,-2.7017,1.4037,-3.0498
2024-10-11T12:10:55.934Z,-0.0185,-0.9946,0.1642,0.1224,0.0981,0.1629,-0.0174,-0.0083,-0.0085,-2.7017,1.4037,-3.0498
2024-10-11T12:10:55.944Z,-0.0185,-0.9973,0.1725,0.0332,0.1103,-0.0648,-0.0171,-0.0061,-0.0104,-2.7012,1.4042,-3.0509
2024-10-11T12:10:55.954Z,-0.0263,-0.9926,0.1732,0.0332,0.1103,-0.0648,-0.0211,-0.0060,-0.0102,-2.7012,1.4042,-3.0509
2024-10-11T12:10:55.964Z,-0.0358,-0.9889,0.1749,0.0332,0.1103,-0.0648,-0.0250,-0.0066,-0.0144,-2.7012,1.4042,-3.0509
2024-10-11T12:10:55.974Z,-0.0363,-0.9864,0.1869,0.2131,-0.0067,-0.1995,-0.0276,-0.0080,-0.0153,-2.7000,1.4050,-3.0525
2024-10-11T12:10:55.984Z,-0.0361,-0.9884,0.1910,0.2131,-0.0067,-0.1995,-0.0312,-0.0055,-0.0177,-2.7000,1.4050,-3.0525
2024-10-11T12:10:55.994Z,-0.0242,-0.9909,0.1832,0.2131,-0.0067,-0.1995,-0.0354,-0.0013,-0.0150,-2.7000,1.4050,-3.0525
2024-10-11T12:10:56.004Z,-0.0213,-0.9879,0.1793,0.0635,0.0221,-0.1557,-0.0362,0.0000,-0.0156,-2.6983,1.4061,-3.0546
2024-10-11T12:10:56.013Z,-0.0241,-0.9871,0.1659,0.0635,0.0221,-0.1557,-0.0386,0.0085,-0.0162,-2.6983,1.4061,-3.0546
2024-10-11T12:10:56.024Z,-0.0194,-0.9830,0.1629,0.0635,0.0221,-0.1557,-0.0375,0.0101,-0.0152,-2.6983,1.4061,-3.0546
2024-10-11T12:10:56.034Z,-0.0199,-0.9770,0.1633,0.0495,-0.0803,0.0013,-0.0409,0.0136,-0.0162,-2.6964,1.4072,-3.0564
2024-10-11T12:10:56.044Z,-0.0216,-0.9767,0.1607,0.0495,-0.0803,0.0013,-0.0389,0.0178,-0.0133,-2.6964,1.4072,-3.0564
2024-10-11T12:10:56.054Z,-0.0260,-0.9781,0.1529,0.0495,-0.0803,0.0013,-0.0400,0.0202,-0.0145,-2.6964,1.4072,-3.0564
2024-10-11T12:10:56.064Z,-0.0335,-0.9878,0.1427,0.1866,-0.0069,0.1585,-0.0352,0.0277,-0.0153,-2.6952,1.4082,-3.0572
2024-10-11T12:10:56.074Z,-0.0268,-0.9950,0.1319,0.1866,-0.0069,0.1585,-0.0324,0.0248,-0.0166,-2.6952,1.4082,-3.0572
2024-10-11T12:10:56.084Z,-0.0245,-0.9999,0.1284,0.1866,-0.0069,0.1585,-0.0290,0.0360,-0.0155,-2.6952,1.4082,-3.0572
2024-10-11T12:10:56.095Z,-0.0212,-1.0006,0.1301,0.0979,0.1390,0.3170,-0.0260,0.0342,-0.0140,-2.6933,1.4090,-3.0585
2024-10-11T12:10:56.104Z,-0.0167,-0.9989,0.1402,0.0979,0.1390,0.3170,-0.0236,0.0323,-0.0169,-2.6933,1.4090,-3.0585
2024-10-11T12:10:56.115Z,-0.0113,-0.9947,0.1491,0.0979,0.1390,0.3170,-0.0212,0.0391,-0.0132,-2.6933,1.4090,-3.0585
2024-10-11T12:10:56.124Z,-0.0017,-0.9890,0.1456,-0.0871,0.0445,0.1377,-0.0220,0.0436,-0.0086,-2.6916,1.4097,-3.0593
2024-10-11T12:10:56.133Z,-0.0089,-0.9797,0.1517,-0.0871,0.0445,0.1377,-0.0190,0.0515,-0.0081,-2.6916,1.4097,-3.0593
2024-10-11T12:10:56.144Z,-0.0157,-0.9713,0.1546,-0.0871,0.0445,0.1377,-0.0224,0.0513,-0.0058,-2.6916,1.4097,-3.0593
2024-10-11T12:10:56.154Z,-0.0181,-0.9655,0.1628,0.0389,-0.2098,-0.0304,-0.0203,0.0493,-0.0033,-2.6920,1.4104,-3.0577
2024-10-11T12:10:56.164Z,-0.0228,-0.9702,0.1626,0.0389,-0.2098,-0.0304,-0.0224,0.0508,-0.0018,-2.6920,1.4104,-3.0577
2024-10-11T12:10:56.174Z,-0.0263,-0.9792,0.1564,0.0389,-0.2098,-0.0304,-0.0226,0.0531,-0.0025,-2.6920,1.4104,-3.0577
2024-10-11T12:10:56.184Z,-0.0246,-0.9858,0.1525,0.1200,-0.0239,0.0494,-0.0214,0.0537,-0.0046,-2.6925,1.4113,-3.0559
2024-10-11T12:10:56.194Z,-0.0220,-0.9876,0.1513,0.1200,-0.0239,0.0494,-0.0196,0.0538,-0.0052,-2.6925,1.4113,-3.0559
2024-10-11T12:10:56.204Z,-0.0193,-0.9848,0.1483,0.1200,-0.0239,0.0494,-0.0182,0.0581,-0.0042,-2.6925,1.4113,-3.0559
2024-10-11T12:10:56.214Z,-0.0201,-0.9877,0.1342,0.0545,0.0037,0.2001,-0.0178,0.0568,-0.0033,-2.6918,1.4120,-3.0551
2024-10-11T12:10:56.224Z,-0.0232,-0.9841,0.1333,0.0545,0.0037,0.2001,-0.0146,0.0608,-0.0033,-2.6918,1.4120,-3.0551
2024-10-11T12:10:56.234Z,-0.0228,-0.9801,0.1292,0.0545,0.0037,0.2001,-0.0131,0.0599,-0.0010,-2.6918,1.4120,-3.0551
2024-10-11T12:10:56.244Z,-0.0238,-0.9736,0.1329,0.0935,-0.1375,0.2229,-0.0085,0.0566,-0.0055,-2.6918,1.4123,-3.0537
2024-10-11T12:10:56.254Z,-0.0240,-0.9720,0.1292,0.0935,-0.1375,0.2229,-0.0061,0.0529,-0.0031,-2.6918,1.4123,-3.0537
2024-10-11T12:10:56.264Z,-0.0225,-0.9708,0.1371,0.0935,-0.1375,0.2229,-0.0065,0.0535,-0.0035,-2.6918,1.4123,-3.0537
2024-10-11T12:10:56.274Z,-0.0201,-0.9728,0.1418,0.0728,-0.1564,0.1694,-0.0073,0.0561,-0.0036,-2.6919,1.4125,-3.0521
2024-10-11T12:10:56.284Z,-0.0173,-0.9793,0.1386,0.0728,-0.1564,0.1694,-0.0049,0.0554,-0.0027,-2.6919,1.4125,-3.0521
2024-10-11T12:10:56.295Z,-0.0185,-0.9837,0.1339,0.0728,-0.1564,0.1694,-0.0004,0.0537,-0.0045,-2.6919,1.4125,-3.0521
2024-10-11T12:10:56.304Z,-0.0170,-0.9841,0.1361,0.0464,-0.0337,0.2206,0.0017,0.0525,-0.0019,-2.6919,1.4127,-3.0507
2024-10-11T12:10:56.314Z,-0.0079,-0.9853,0.1385,0.0464,-0.0337,0.2206,0.0033,0.0533,-0.0017,-2.6919,1.4127,-3.0507
2024-10-11T12:10:56.325Z,-0.0045,-0.9883,0.1487,0.0464,-0.0337,0.2206,0.0037,0.0551,-0.0002,-2.6919,1.4127,-3.0507
2024-10-11T12:10:56.335Z,-0.0089,-0.9930,0.1465,-0.0758,0.0403,0.0983,0.0024,0.0536,0.0017,-2.6926,1.4128,-3.0487
2024-10-11T12:10:56.344Z,-0.0174,-0.9979,0.1499,-0.0758,0.0403,0.0983,0.0038,0.0550,0.0013,-2.6926,1.4128,-3.0487
2024-10-11T12:10:56.354Z,-0.0153,-0.9941,0.1654,-0.0758,0.0403,0.0983,0.0023,0.0539,0.0039,-2.6926,1.4128,-3.0487
2024-10-11T12:10:56.363Z,-0.0170,-0.9852,0.1704,0.0061,0.0019,-0.1116,-0.0008,0.0591,-0.0014,-2.6934,1.4128,-3.0465
2024-10-11T12:10:56.374Z,-0.0236,-0.9841,0.1718,0.0061,0.0019,-0.1116,-0.0071,0.0560,-0.0016,-2.6934,1.4128,-3.0465
2024-10-11T12:10:56.384Z,-0.0252,-0.9845,0.1781,0.0061,0.0019,-0.1116,-0.0080,0.0534,-0.0034,-2.6934,1.4128,-3.0465
2024-10-11T12:10:56.394Z,-0.0252,-0.9840,0.1799,0.0966,-0.0357,-0.2404,-0.0110,0.0479,-0.0035,-2.6934,1.4132,-3.0451
2024-10-11T12:10:56.404Z,-0.0239,-0.9879,0.1821,0.0966,-0.0357,-0.2404,-0.0118,0.0441,-0.0048,-2.6934,1.4132,-3.0451
2024-10-11T12:10:56.414Z,-0.0180,-0.9890,0.1754,0.0966,-0.0357,-0.2404,-0.0123,0.0453,-0.0052,-2.6934,1.4132,-3.0451
2024-10-11T12:10:56.424Z,-0.0125,-0.9894,0.1728,-0.0137,0.0099,-0.1803,-0.0158,0.0477,-0.0066,-2.6926,1.4137,-3.0449
2024-10-11T12:10:56.434Z,-0.0094,-0.9893,0.1691,-0.0137,0.0099,-0.1803,-0.0157,0.0494,-0.0033,-2.6926,1.4137,-3.0449
2024-10-11T12:10:56.444Z,-0.0015,-0.9902,0.1612,-0.0137,0.0099,-0.1803,-0.0170,0.0483,-0.0060,-2.6926,1.4137,-3.0449
2024-10-11T12:10:56.454Z,-0.0052,-0.9883,0.1615,-0.1140,-0.0002,-0.0713,-0.0167,0.0535,-0.0019,-2.6922,1.4140,-3.0440
2024-10-11T12:10:56.463Z,-0.0103,-0.9890,0.1562,-0.1140,-0.0002,-0.0713,-0.0157,0.0531,-0.0051,-2.6922,1.4140,-3.0440
2024-10-11T12:10:56.474Z,-0.0150,-0.9900,0.1554,-0.1140,-0.0002,-0.0713,-0.0156,0.0514,-0.0041,-2.6922,1.4140,-3.0440
2024-10-11T12:10:56.484Z,-0.0086,-0.9866,0.1516,-0.0486,0.0007,0.0178,-0.0172,0.0461,-0.0046,-2.6921,1.4143,-3.0428
2024-10-11T12:10:56.494Z,-0.0146,-0.9821,0.1490,-0.0486,0.0007,0.0178,-0.0171,0.0426,-0.0074,-2.6921,1.4143,-3.0428
2024-10-11T12:10:56.504Z,-0.0205,-0.9871,0.1436,-0.0486,0.0007,0.0178,-0.0116,0.0396,-0.0078,-2.6921,1.4143,-3.0428
2024-10-11T12:10:56.513Z,-0.0130,-0.9911,0.1454,-0.0013,0.0254,0.1061,-0.0099,0.0368,-0.0064,-2.6912,1.4146,-3.0427
2024-10-11T12:10:56.524Z,-0.0040,-0.9893,0.1471,-0.0013,0.0254,0.1061,-0.0080,0.0368,-0.0066,-2.6912,1.4146,-3.0427
2024-10-11T12:10:56.534Z,-0.0063,-0.9881,0.1493,-0.0013,0.0254,0.1061,-0.0053,0.0349,-0.0059,-2.6912,1.4146,-3.0427
2024-10-11T12:10:56.545Z,-0.0087,-0.9840,0.1501,-0.0713,-0.0280,0.0609,-0.0027,0.0313,-0.0065,-2.6896,1.4148,-3.0435
2024-10-11T12:10:56.555Z,-0.0070,-0.9824,0.1555,-0.0713,-0.0280,0.0609,-0.0007,0.0273,-0.0112,-2.6896,1.4148,-3.0435
2024-10-11T12:10:56.563Z,-0.0098,-0.9796,0.1575,-0.0713,-0.0280,0.0609,-0.0011,0.0269,-0.0092,-2.6896,1.4148,-3.0435
2024-10-11T12:10:56.574Z,-0.0113,-0.9795,0.1597,-0.0376,-0.0882,-0.0351,-0.0015,0.0224,-0.0105,-2.6879,1.4149,-3.0446
2024-10-11T12:10:56.584Z,-0.0156,-0.9831,0.1609,-0.0376,-0.0882,-0.0351,-0.0002,0.0206,-0.0103,-2.6879,1.4149,-3.0446
2024-10-11T12:10:56.594Z,-0.0201,-0.9917,0.1536,-0.0376,-0.0882,-0.0351,0.0058,0.0144,-0.0134,-2.6879,1.4149,-3.0446
2024-10-11T12:10:56.604Z,-0.0235,-0.9947,0.1500,0.0876,0.0741,0.0382,0.0060,0.0089,-0.0158,-2.6855,1.4149,-3.0468
2024-10-11T12:10:56.613Z,-0.0212,-0.9881,0.1513,0.0876,0.0741,0.0382,0.0074,0.0023,-0.0202,-2.6855,1.4149,-3.0468
2024-10-11T12:10:56.623Z,-0.0187,-0.9833,0.1588,0.0876,0.0741,0.0382,0.0106,0.0007,-0.0217,-2.6855,1.4149,-3.0468
2024-10-11T12:10:56.634Z,-0.0096,-0.9825,0.1579,-0.0166,-0.0492,-0.0312,0.0087,-0.0002,-0.0220,-2.6812,1.4147,-3.0512
2024-10-11T12:10:56.644Z,-0.0084,-0.9785,0.1592,-0.0166,-0.0492,-0.0312,0.0083,-0.0010,-0.0221,-2.6812,1.4147,-3.0512
2024-10-11T12:10:56.654Z,-0.0128,-0.9736,0.1598,-0.0166,-0.0492,-0.0312,0.0066,-0.0060,-0.0241,-2.6812,1.4147,-3.0512
2024-10-11T12:10:56.663Z,-0.0204,-0.9742,0.1560,0.0620,-0.1258,-0.0242,0.0050,-0.0064,-0.0274,-2.6764,1.4145,-3.0562
2024-10-11T12:10:56.674Z,-0.0199,-0.9756,0.1605,0.0620,-0.1258,-0.0242,0.0053,-0.0075,-0.0278,-2.6764,1.4145,-3.0562
2024-10-11T12:10:56.684Z,-0.0105,-0.9799,0.1566,0.0620,-0.1258,-0.0242,0.0082,-0.0122,-0.0286,-2.6764,1.4145,-3.0562
2024-10-11T12:10:56.694Z,-0.0052,-0.9840,0.1585,-0.0710,-0.0490,-0.0241,0.0076,-0.0082,-0.0270,-2.6716,1.4143,-3.0616
2024-10-11T12:10:56.704Z,-0.0060,-0.9924,0.1525,-0.0710,-0.0490,-0.0241,0.0130,-0.0102,-0.0276,-2.6716,1.4143,-3.0616
2024-10-11T12:10:56.714Z,-0.0011,-0.9958,0.1435,-0.0710,-0.0490,-0.0241,0.0138,-0.0097,-0.0286,-2.6716,1.4143,-3.0616
2024-10-11T12:10:56.723Z,-0.0042,-0.9956,0.1408,-0.0816,0.0779,0.1539,0.0187,-0.0079,-0.0257,-2.6663,1.4140,-3.0673
2024-10-11T12:10:56.734Z,-0.0031,-0.9919,0.1434,-0.0816,0.0779,0.1539,0.0197,-0.0071,-0.0264,-2.6663,1.4140,-3.0673
2024-10-11T12:10:56.747Z,-0.0010,-0.9906,0.1529,-0.1279,0.0405,0.0074,0.0192,-0.0020,-0.0255,-2.6619,1.4134,-3.0721
2024-10-11T12:10:56.754Z,0.0038,-0.9920,0.1557,-0.1279,0.0405,0.0074,0.0190,-0.0030,-0.0238,-2.6619,1.4134,-3.0721
2024-10-11T12:10:56.764Z,0.0002,-0.9904,0.1546,-0.1279,0.0405,0.0074,0.0181,0.0006,-0.0201,-2.6619,1.4134,-3.0721
2024-10-11T12:10:56.773Z,-0.0036,-0.9890,0.1583,-0.1279,0.0405,0.0074,0.0183,0.0017,-0.0178,-2.6619,1.4134,-3.0721
2024-10-11T12:10:56.784Z,-0.0071,-0.9825,0.1634,-0.0397,-0.0406,-0.0444,0.0161,0.0067,-0.0161,-2.6580,1.4129,-3.0761
2024-10-11T12:10:56.794Z,-0.0122,-0.9794,0.1699,-0.0397,-0.0406,-0.0444,0.0121,0.0122,-0.0154,-2.6580,1.4129,-3.0761
2024-10-11T12:10:56.804Z,-0.0093,-0.9780,0.1819,-0.0397,-0.0406,-0.0444,0.0085,0.0127,-0.0149,-2.6580,1.4129,-3.0761
2024-10-11T12:10:56.814Z,-0.0082,-0.9808,0.1823,-0.0209,-0.0740,-0.2456,0.0032,0.0125,-0.0128,-2.6546,1.4127,-3.0794
2024-10-11T12:10:56.824Z,-0.0117,-0.9825,0.1825,-0.0209,-0.0740,-0.2456,0.0016,0.0139,-0.0155,-2.6546,1.4127,-3.0794
2024-10-11T12:10:56.835Z,-0.0069,-0.9848,0.1743,-0.0209,-0.0740,-0.2456,-0.0026,0.0154,-0.0130,-2.6546,1.4127,-3.0794
2024-10-11T12:10:56.844Z,0.0004,-0.9868,0.1707,-0.0859,-0.0041,-0.1532,-0.0026,0.0154,-0.0130,-2.6514,1.4127,-3.0824
2024-10-11T12:10:56.854Z,0.0065,-0.9894,0.1729,-0.0859,-0.0041,-0.1532,-0.0009,0.0156,-0.0106,-2.6514,1.4127,-3.0824
2024-10-11T12:10:56.863Z,0.0030,-0.9914,0.1668,-0.0859,-0.0041,-0.1532,-0.0048,0.0205,-0.0065,-2.6514,1.4127,-3.0824
2024-10-11T12:10:56.875Z,-0.0034,-0.9911,0.1616,-0.0643,0.0444,-0.0810,-0.0065,0.0224,-0.0028,-2.6498,1.4127,-3.0837
2024-10-11T12:10:56.884Z,0.0001,-0.9861,0.1553,-0.0643,0.0444,-0.0810,-0.0065,0.0224,-0.0028,-2.6498,1.4127,-3.0837
2024-10-11T12:10:56.894Z,-0.0029,-0.9778,0.1546,-0.0643,0.0444,-0.0810,-0.0038,0.0250,-0.0030,-2.6498,1.4127,-3.0837
2024-10-11T12:10:56.905Z,-0.0028,-0.9749,0.1533,-0.0614,-0.1244,0.0154,-0.0022,0.0199,0.0001,-2.6492,1.4127,-3.0838
2024-10-11T12:10:56.914Z,-0.0076,-0.9776,0.1467,-0.0614,-0.1244,0.0154,-0.0022,0.0199,0.0001,-2.6492,1.4127,-3.0838
2024-10-11T12:10:56.925Z,-0.0080,-0.9813,0.1435,-0.0614,-0.1244,0.0154,0.0017,0.0191,0.0025,-2.6492,1.4127,-3.0838
2024-10-11T12:10:56.935Z,-0.0029,-0.9870,0.1451,-0.0565,-0.0274,0.1105,0.0025,0.0199,0.0036,-2.6489,1.4125,-3.0838
2024-10-11T12:10:56.944Z,0.0001,-0.9905,0.1488,-0.0565,-0.0274,0.1105,0.0025,0.0199,0.0036,-2.6489,1.4125,-3.0838
2024-10-11T12:10:56.955Z,0.0033,-0.9922,0.1575,-0.0565,-0.0274,0.1105,0.0039,0.0247,0.0074,-2.6489,1.4125,-3.0838
2024-10-11T12:10:56.965Z,0.0067,-0.9926,0.1654,-0.1414,0.0500,-0.0387,0.0019,0.0217,0.0091,-2.6493,1.4124,-3.0830
2024-10-11T12:10:56.974Z,0.0026,-0.9920,0.1727,-0.1414,0.0500,-0.0387,0.0019,0.0217,0.0091,-2.6493,1.4124,-3.0830
2024-10-11T12:10:56.983Z,-0.0064,-0.9913,0.1763,-0.1414,0.0500,-0.0387,0.0005,0.0223,0.0101,-2.6493,1.4124,-3.0830
2024-10-11T12:10:56.995Z,-0.0105,-0.9890,0.1737,0.0074,0.0253,-0.1558,-0.0027,0.0216,0.0109,-2.6509,1.4123,-3.0810
2024-10-11T12:10:57.005Z,-0.0058,-0.9872,0.1676,0.0074,0.0253,-0.1558,-0.0037,0.0200,0.0094,-2.6509,1.4123,-3.0810
2024-10-11T12:10:57.013Z,-0.0066,-0.9879,0.1697,0.0074,0.0253,-0.1558,-0.0037,0.0200,0.0094,-2.6509,1.4123,-3.0810
2024-10-11T12:10:57.025Z,-0.0114,-0.9904,0.1730,0.0050,0.0236,-0.1515,-0.0040,0.0175,0.0129,-2.6529,1.4125,-3.0787
2024-10-11T12:10:57.035Z,-0.0106,-0.9970,0.1652,0.0050,0.0236,-0.1515,-0.0028,0.0165,0.0099,-2.6529,1.4125,-3.0787
2024-10-11T12:10:57.046Z,-0.0091,-0.9993,0.1649,0.0025,0.0916,-0.0759,-0.0028,0.0165,0.0099,-2.6545,1.4126,-3.0769
2024-10-11T12:10:57.055Z,-0.0093,-0.9959,0.1655,0.0025,0.0916,-0.0759,-0.0036,0.0137,0.0106,-2.6545,1.4126,-3.0769
2024-10-11T12:10:57.065Z,-0.0087,-0.9948,0.1651,0.0025,0.0916,-0.0759,-0.0038,0.0096,0.0102,-2.6545,1.4126,-3.0769
2024-10-11T12:10:57.075Z,-0.0129,-0.9913,0.1640,0.0025,0.0916,-0.0759,-0.0055,0.0073,0.0090,-2.6545,1.4126,-3.0769
2024-10-11T12:10:57.083Z,-0.0197,-0.9937,0.1603,0.0735,0.0577,-0.0381,-0.0055,0.0073,0.0090,-2.6566,1.4126,-3.0748
2024-10-11T12:10:57.094Z,-0.0226,-0.9960,0.1655,0.0735,0.0577,-0.0381,-0.0056,0.0077,0.0058,-2.6566,1.4126,-3.0748
2024-10-11T12:10:57.105Z,-0.0190,-0.9972,0.1639,0.0735,0.0577,-0.0381,-0.0086,0.0015,0.0044,-2.6566,1.4126,-3.0748
2024-10-11T12:10:57.115Z,-0.0183,-0.9989,0.1591,0.0803,0.1023,-0.0457,-0.0070,-0.0002,0.0034,-2.6580,1.4127,-3.0735
2024-10-11T12:10:57.125Z,-0.0122,-1.0033,0.1549,0.0803,0.1023,-0.0457,-0.0050,-0.0017,0.0019,-2.6580,1.4127,-3.0735
2024-10-11T12:10:57.135Z,-0.0098,-1.0040,0.1525,0.0803,0.1023,-0.0457,-0.0052,0.0002,0.0039,-2.6580,1.4127,-3.0735
2024-10-11T12:10:57.145Z,-0.0094,-0.9935,0.1547,-0.0167,0.0897,0.0336,-0.0052,0.0002,0.0039,-2.6589,1.4128,-3.0729
2024-10-11T12:10:57.155Z,-0.0080,-0.9892,0.1566,-0.0167,0.0897,0.0336,-0.0068,0.0072,0.0058,-2.6589,1.4128,-3.0729
2024-10-11T12:10:57.164Z,0.0011,-0.9885,0.1586,-0.0167,0.0897,0.0336,-0.0083,0.0066,0.0016,-2.6589,1.4128,-3.0729
2024-10-11T12:10:57.174Z,-0.0015,-0.9907,0.1621,-0.1119,0.0279,-0.0517,-0.0093,0.0048,0.0024,-2.6601,1.4129,-3.0719
2024-10-11T12:10:57.184Z,-0.0099,-0.9868,0.1657,-0.1119,0.0279,-0.0517,-0.0107,0.0016,0.0038,-2.6601,1.4129,-3.0719
2024-10-11T12:10:57.197Z,-0.0138,-0.9831,0.1731,0.0282,-0.0353,-0.2084,-0.0107,0.0016,0.0038,-2.6613,1.4132,-3.0708
2024-10-11T12:10:57.205Z,-0.0155,-0.9852,0.1775,0.0282,-0.0353,-0.2084,-0.0171,0.0018,-0.0002,-2.6613,1.4132,-3.0708
2024-10-11T12:10:57.215Z,-0.0231,-0.9883,0.1778,0.0282,-0.0353,-0.2084,-0.0187,0.0043,-0.0021,-2.6613,1.4132,-3.0708
2024-10-11T12:10:57.225Z,-0.0174,-0.9875,0.1781,0.0282,-0.0353,-0.2084,-0.0239,0.0061,0.0006,-2.6613,1.4132,-3.0708
2024-10-11T12:10:57.233Z,-0.0083,-0.9890,0.1749,-0.0219,0.0024,-0.1845,-0.0239,0.0061,0.0006,-2.6616,1.4137,-3.0706
2024-10-11T12:10:57.247Z,-0.0141,-0.9927,0.1687,-0.0219,0.0024,-0.1845,-0.0281,0.0092,-0.0032,-2.6616,1.4137,-3.0706
2024-10-11T12:10:57.255Z,-0.0144,-0.9884,0.1699,-0.0219,0.0024,-0.1845,-0.0292,0.0083,-0.0048,-2.6616,1.4137,-3.0706
2024-10-11T12:10:57.265Z,-0.0117,-0.9792,0.1672,0.0103,-0.0718,-0.1218,-0.0319,0.0090,-0.0015,-2.6615,1.4145,-3.0708
2024-10-11T12:10:57.274Z,-0.0105,-0.9787,0.1679,0.0103,-0.0718,-0.1218,-0.0320,0.0072,-0.0040,-2.6615,1.4145,-3.0708
2024-10-11T12:10:57.284Z,-0.0070,-0.9830,0.1592,0.0103,-0.0718,-0.1218,-0.0316,0.0129,-0.0028,-2.6615,1.4145,-3.0708
2024-10-11T12:10:57.296Z,-0.0080,-0.9856,0.1554,-0.0267,-0.0254,-0.0050,-0.0278,0.0163,0.0008,-2.6619,1.4153,-3.0704
2024-10-11T12:10:57.304Z,-0.0095,-0.9819,0.1475,-0.0267,-0.0254,-0.0050,-0.0324,0.0205,-0.0036,-2.6619,1.4153,-3.0704
2024-10-11T12:10:57.314Z,-0.0152,-0.9771,0.1519,-0.0267,-0.0254,-0.0050,-0.0304,0.0185,-0.0027,-2.6619,1.4153,-3.0704
2024-10-11T12:10:57.324Z,-0.0141,-0.9738,0.1523,0.0360,-0.1404,0.0193,-0.0319,0.0157,-0.0048,-2.6622,1.4160,-3.0698
2024-10-11T12:10:57.335Z,-0.0120,-0.9836,0.1476,0.0360,-0.1404,0.0193,-0.0270,0.0136,-0.0051,-2.6622,1.4160,-3.0698
2024-10-11T12:10:57.347Z,-0.0136,-0.9873,0.1472,-0.0229,0.0058,0.1077,-0.0239,0.0148,-0.0011,-2.6622,1.4167,-3.0695
2024-10-11T12:10:57.354Z,-0.0063,-0.9889,0.1410,-0.0229,0.0058,0.1077,-0.0250,0.0178,0.0004,-2.6622,1.4167,-3.0695
2024-10-11T12:10:57.364Z,-0.0073,-0.9903,0.1444,-0.0229,0.0058,0.1077,-0.0222,0.0181,0.0042,-2.6622,1.4167,-3.0695
2024-10-11T12:10:57.374Z,-0.0104,-0.9929,0.1405,-0.0229,0.0058,0.1077,-0.0234,0.0205,-0.0017,-2.6622,1.4167,-3.0695
2024-10-11T12:10:57.384Z,-0.0113,-0.9897,0.1482,0.0005,0.0254,0.0523,-0.0218,0.0189,0.0025,-2.6625,1.4174,-3.0690
2024-10-11T12:10:57.395Z,-0.0067,-0.9849,0.1517,0.0005,0.0254,0.0523,-0.0218,0.0193,0.0005,-2.6625,1.4174,-3.0690
2024-10-11T12:10:57.406Z,-0.0119,-0.9801,0.1525,0.0556,-0.0915,0.0233,-0.0218,0.0193,0.0005,-2.6632,1.4180,-3.0680
2024-10-11T12:10:57.414Z,-0.0178,-0.9788,0.1485,0.0556,-0.0915,0.0233,-0.0185,0.0103,-0.0003,-2.6632,1.4180,-3.0680
2024-10-11T12:10:57.425Z,-0.0182,-0.9756,0.1512,0.0556,-0.0915,0.0233,-0.0178,0.0078,0.0003,-2.6632,1.4180,-3.0680
2024-10-11T12:10:57.435Z,-0.0170,-0.9766,0.1526,0.0556,-0.0915,0.0233,-0.0169,0.0095,-0.0006,-2.6632,1.4180,-3.0680
2024-10-11T12:10:57.447Z,-0.0157,-0.9812,0.1571,0.0496,-0.0879,-0.0636,-0.0142,0.0066,-0.0016,-2.6635,1.4185,-3.0676
2024-10-11T12:10:57.454Z,-0.0106,-0.9893,0.1522,0.0496,-0.0879,-0.0636,-0.0144,0.0061,-0.0004,-2.6635,1.4185,-3.0676
2024-10-11T12:10:57.465Z,-0.0125,-0.9951,0.1447,0.0496,-0.0879,-0.0636,-0.0129,0.0026,-0.0021,-2.6635,1.4185,-3.0676
2024-10-11T12:10:57.474Z,-0.0153,-0.9940,0.1515,0.0374,0.0558,0.0034,-0.0123,0.0023,-0.0009,-2.6635,1.4190,-3.0676
2024-10-11T12:10:57.484Z,-0.0115,-0.9917,0.1589,0.0374,0.0558,0.0034,-0.0087,-0.0056,-0.0026,-2.6635,1.4190,-3.0676
2024-10-11T12:10:57.497Z,-0.0184,-0.9889,0.1645,0.0838,-0.0009,-0.1102,-0.0140,-0.0042,-0.0022,-2.6638,1.4193,-3.0677
2024-10-11T12:10:57.504Z,-0.0197,-0.9890,0.1624,0.0838,-0.0009,-0.1102,-0.0159,-0.0019,-0.0058,-2.6638,1.4193,-3.0677
2024-10-11T12:10:57.514Z,-0.0183,-0.9901,0.1659,0.0838,-0.0009,-0.1102,-0.0131,-0.0049,-0.0058,-2.6638,1.4193,-3.0677
2024-10-11T12:10:57.525Z,-0.0097,-0.9891,0.1662,-0.0493,-0.0008,-0.1295,-0.0158,-0.0014,-0.0013,-2.6636,1.4197,-3.0682
2024-10-11T12:10:57.534Z,-0.0057,-0.9899,0.1614,-0.0493,-0.0008,-0.1295,-0.0164,-0.0012,0.0014,-2.6636,1.4197,-3.0682
2024-10-11T12:10:57.545Z,-0.0035,-0.9928,0.1578,-0.0493,-0.0008,-0.1295,-0.0137,0.0002,0.0020,-2.6636,1.4197,-3.0682
2024-10-11T12:10:57.555Z,0.0055,-0.9932,0.1589,-0.1487,0.0256,-0.0617,-0.0143,0.0029,0.0039,-2.6644,1.4201,-3.0676
2024-10-11T12:10:57.564Z,0.0024,-0.9904,0.1566,-0.1487,0.0256,-0.0617,-0.0142,0.0045,0.0091,-2.6644,1.4201,-3.0676
2024-10-11T12:10:57.574Z,-0.0029,-0.9889,0.1514,-0.1487,0.0256,-0.0617,-0.0129,0.0086,0.0108,-2.6644,1.4201,-3.0676
2024-10-11T12:10:57.586Z,-0.0002,-0.9903,0.1505,-0.1746,-0.0052,0.0125,-0.0144,0.0135,0.0126,-2.6667,1.4204,-3.0654
2024-10-11T12:10:57.594Z,0.0079,-0.9872,0.1511,-0.1746,-0.0052,0.0125,-0.0182,0.0187,0.0151,-2.6667,1.4204,-3.0654
2024-10-11T12:10:57.604Z,0.0055,-0.9849,0.1554,-0.1746,-0.0052,0.0125,-0.0154,0.0123,0.0170,-2.6667,1.4204,-3.0654
2024-10-11T12:10:57.615Z,-0.0025,-0.9849,0.1635,-0.0253,-0.0168,-0.1371,-0.0154,0.0123,0.0170,-2.6699,1.4207,-3.0622
2024-10-11T12:10:57.624Z,-0.0104,-0.9889,0.1626,-0.0253,-0.0168,-0.1371,-0.0193,0.0091,0.0158,-2.6699,1.4207,-3.0622
2024-10-11T12:10:57.633Z,-0.0136,-0.9906,0.1647,-0.0253,-0.0168,-0.1371,-0.0194,0.0062,0.0166,-2.6699,1.4207,-3.0622
2024-10-11T12:10:57.645Z,-0.0066,-0.9887,0.1701,-0.0934,-0.0149,-0.2051,-0.0214,0.0083,0.0155,-2.6731,1.4213,-3.0590
2024-10-11T12:10:57.654Z,-0.0038,-0.9870,0.1687,-0.0934,-0.0149,-0.2051,-0.0240,0.0116,0.0175,-2.6731,1.4213,-3.0590
2024-10-11T12:10:57.664Z,-0.0037,-0.9840,0.1650,-0.0934,-0.0149,-0.2051,-0.0283,0.0144,0.0170,-2.6731,1.4213,-3.0590
2024-10-11T12:10:57.675Z,-0.0048,-0.9802,0.1658,-0.0555,-0.1288,-0.1455,-0.0312,0.0136,0.0162,-2.6764,1.4219,-3.0557
2024-10-11T12:10:57.684Z,-0.0082,-0.9753,0.1615,-0.0555,-0.1288,-0.1455,-0.0283,0.0075,0.0164,-2.6764,1.4219,-3.0557
2024-10-11T12:10:57.694Z,-0.0108,-0.9773,0.1605,-0.0555,-0.1288,-0.1455,-0.0269,0.0051,0.0161,-2.6764,1.4219,-3.0557
2024-10-11T12:10:57.706Z,-0.0110,-0.9838,0.1453,-0.0643,-0.0093,0.0638,-0.0256,0.0030,0.0154,-2.6799,1.4226,-3.0523
2024-10-11T12:10:57.714Z,-0.0059,-0.9896,0.1393,-0.0643,-0.0093,0.0638,-0.0249,0.0025,0.0140,-2.6799,1.4226,-3.0523
2024-10-11T12:10:57.724Z,-0.0101,-0.9883,0.1372,-0.0643,-0.0093,0.0638,-0.0250,0.0010,0.0115,-2.6799,1.4226,-3.0523
2024-10-11T12:10:57.735Z,-0.0171,-0.9889,0.1309,0.0480,0.0082,0.1687,-0.0215,-0.0003,0.0091,-2.6827,1.4231,-3.0498
2024-10-11T12:10:57.744Z,-0.0170,-0.9898,0.1281,0.0480,0.0082,0.1687,-0.0193,-0.0040,0.0072,-2.6827,1.4231,-3.0498
2024-10-11T12:10:57.754Z,-0.0118,-0.9899,0.1243,0.0480,0.0082,0.1687,-0.0168,-0.0081,0.0086,-2.6827,1.4231,-3.0498
2024-10-11T12:10:57.765Z,-0.0109,-0.9880,0.1295,-0.0172,0.0070,0.1676,-0.0132,-0.0158,0.0061,-2.6843,1.4234,-3.0487
2024-10-11T12:10:57.773Z,-0.0100,-0.9897,0.1281,-0.0172,0.0070,0.1676,-0.0108,-0.0186,0.0072,-2.6843,1.4234,-3.0487
2024-10-11T12:10:57.784Z,-0.0064,-0.9873,0.1277,-0.0172,0.0070,0.1676,-0.0105,-0.0191,0.0060,-2.6843,1.4234,-3.0487
2024-10-11T12:10:57.795Z,-0.0079,-0.9796,0.1314,-0.0544,-0.1370,0.1067,-0.0089,-0.0211,0.0085,-2.6858,1.4237,-3.0479
2024-10-11T12:10:57.804Z,-0.0090,-0.9750,0.1354,-0.0544,-0.1370,0.1067,-0.0075,-0.0215,0.0109,-2.6858,1.4237,-3.0479
2024-10-11T12:10:57.814Z,-0.0119,-0.9767,0.1347,-0.0544,-0.1370,0.1067,-0.0064,-0.0240,0.0047,-2.6858,1.4237,-3.0479
2024-10-11T12:10:57.825Z,-0.0151,-0.9804,0.1356,0.0377,-0.0956,0.1099,-0.0041,-0.0317,0.0038,-2.6877,1.4240,-3.0471
2024-10-11T12:10:57.835Z,-0.0181,-0.9789,0.1369,0.0377,-0.0956,0.1099,-0.0031,-0.0377,0.0045,-2.6877,1.4240,-3.0471
2024-10-11T12:10:57.844Z,-0.0165,-0.9769,0.1467,0.0377,-0.0956,0.1099,-0.0037,-0.0439,0.0046,-2.6877,1.4240,-3.0471
2024-10-11T12:10:57.855Z,-0.0169,-0.9811,0.1498,-0.0278,-0.0318,0.0022,-0.0046,-0.0469,0.0027,-2.6888,1.4242,-3.0474
2024-10-11T12:10:57.865Z,-0.0108,-0.9866,0.1446,-0.0278,-0.0318,0.0022,-0.0024,-0.0434,0.0036,-2.6888,1.4242,-3.0474
2024-10-11T12:10:57.873Z,-0.0132,-0.9931,0.1457,-0.0278,-0.0318,0.0022,-0.0047,-0.0443,0.0046,-2.6888,1.4242,-3.0474
2024-10-11T12:10:57.885Z,-0.0128,-0.9968,0.1502,0.0525,0.0551,-0.0597,-0.0044,-0.0468,0.0025,-2.6897,1.4243,-3.0482
2024-10-11T12:10:57.894Z,-0.0222,-0.9948,0.1524,0.0525,0.0551,-0.0597,-0.0066,-0.0516,-0.0001,-2.6897,1.4243,-3.0482
2024-10-11T12:10:57.904Z,-0.0289,-0.9953,0.1477,0.0525,0.0551,-0.0597,-0.0021,-0.0599,-0.0028,-2.6897,1.4243,-3.0482
2024-10-11T12:10:57.914Z,-0.0304,-0.9894,0.1483,0.1857,-0.0209,-0.0047,-0.0021,-0.0599,-0.0028,-2.6900,1.4245,-3.0499
2024-10-11T12:10:57.924Z,-0.0320,-0.9864,0.1458,0.1857,-0.0209,-0.0047,-0.0010,-0.0730,-0.0079,-2.6900,1.4245,-3.0499
2024-10-11T12:10:57.934Z,-0.0314,-0.9900,0.1399,0.1857,-0.0209,-0.0047,0.0002,-0.0745,-0.0089,-2.6900,1.4245,-3.0499
2024-10-11T12:10:57.944Z,-0.0312,-0.9964,0.1386,0.1116,0.1160,0.0753,0.0031,-0.0707,-0.0079,-2.6891,1.4244,-3.0531
2024-10-11T12:10:57.954Z,-0.0212,-1.0016,0.1375,0.1116,0.1160,0.0753,0.0007,-0.0698,-0.0072,-2.6891,1.4244,-3.0531
2024-10-11T12:10:57.963Z,-0.0172,-1.0041,0.1413,0.1116,0.1160,0.0753,0.0045,-0.0737,-0.0063,-2.6891,1.4244,-3.0531
2024-10-11T12:10:57.975Z,-0.0104,-1.0073,0.1386,-0.0224,0.2091,0.0817,0.0074,-0.0716,-0.0064,-2.6883,1.4242,-3.0564
2024-10-11T12:10:57.983Z,-0.0128,-1.0107,0.1358,-0.0224,0.2091,0.0817,0.0100,-0.0721,-0.0020,-2.6883,1.4242,-3.0564
2024-10-11T12:10:57.994Z,-0.0155,-1.0084,0.1362,-0.0224,0.2091,0.0817,0.0080,-0.0701,-0.0007,-2.6883,1.4242,-3.0564
2024-10-11T12:10:58.004Z,-0.0112,-1.0044,0.1433,0.0387,0.1297,-0.0476,0.0078,-0.0644,-0.0032,-2.6880,1.4239,-3.0589
2024-10-11T12:10:58.014Z,-0.0173,-1.0029,0.1512,0.0387,0.1297,-0.0476,0.0035,-0.0592,-0.0047,-2.6880,1.4239,-3.0589
2024-10-11T12:10:58.024Z,-0.0156,-1.0000,0.1544,0.0387,0.1297,-0.0476,-0.0047,-0.0578,-0.0043,-2.6880,1.4239,-3.0589
2024-10-11T12:10:58.034Z,-0.0186,-0.9995,0.1500,0.0452,0.0946,-0.0746,-0.0047,-0.0578,-0.0043,-2.6876,1.4239,-3.0614
2024-10-11T12:10:58.044Z,-0.0155,-0.9987,0.1536,0.0452,0.0946,-0.0746,-0.0063,-0.0531,-0.0024,-2.6876,1.4239,-3.0614
2024-10-11T12:10:58.054Z,-0.0149,-0.9992,0.1575,0.0452,0.0946,-0.0746,-0.0122,-0.0517,-0.0034,-2.6876,1.4239,-3.0614
2024-10-11T12:10:58.066Z,-0.0117,-1.0000,0.1552,0.0100,0.0912,-0.1431,-0.0175,-0.0469,-0.0033,-2.6875,1.4241,-3.0633
2024-10-11T12:10:58.074Z,-0.0135,-0.9965,0.1587,0.0100,0.0912,-0.1431,-0.0208,-0.0414,-0.0014,-2.6875,1.4241,-3.0633
2024-10-11T12:10:58.084Z,-0.0118,-0.9928,0.1517,0.0100,0.0912,-0.1431,-0.0256,-0.0344,-0.0019,-2.6875,1.4241,-3.0633
2024-10-11T12:10:58.094Z,-0.0176,-0.9876,0.1476,0.1196,-0.0594,0.0150,-0.0285,-0.0276,-0.0033,-2.6877,1.4248,-3.0644
2024-10-11T12:10:58.104Z,-0.0223,-0.9827,0.1428,0.1196,-0.0594,0.0150,-0.0278,-0.0237,-0.0020,-2.6877,1.4248,-3.0644
2024-10-11T12:10:58.114Z,-0.0223,-0.9787,0.1333,0.1196,-0.0594,0.0150,-0.0285,-0.0168,-0.0079,-2.6877,1.4248,-3.0644
2024-10-11T12:10:58.124Z,-0.0235,-0.9763,0.1316,0.1045,-0.0939,0.1714,-0.0205,-0.0164,-0.0057,-2.6874,1.4255,-3.0656
2024-10-11T12:10:58.134Z,-0.0208,-0.9813,0.1255,0.1045,-0.0939,0.1714,-0.0197,-0.0119,-0.0050,-2.6874,1.4255,-3.0656
2024-10-11T12:10:58.144Z,-0.0183,-0.9860,0.1190,0.1045,-0.0939,0.1714,-0.0153,-0.0033,-0.0046,-2.6874,1.4255,-3.0656
2024-10-11T12:10:58.154Z,-0.0164,-0.9819,0.1113,0.0570,-0.1124,0.3681,-0.0109,0.0050,-0.0011,-2.6872,1.4260,-3.0662
2024-10-11T12:10:58.164Z,-0.0179,-0.9771,0.1071,0.0570,-0.1124,0.3681,-0.0110,0.0148,-0.0034,-2.6872,1.4260,-3.0662
2024-10-11T12:10:58.174Z,-0.0179,-0.9770,0.1146,0.0570,-0.1124,0.3681,-0.0119,0.0159,-0.0022,-2.6872,1.4260,-3.0662
2024-10-11T12:10:58.184Z,-0.0159,-0.9725,0.1212,0.0615,-0.2008,0.1951,-0.0065,0.0140,-0.0025,-2.6873,1.4263,-3.0661
2024-10-11T12:10:58.194Z,-0.0181,-0.9697,0.1244,0.0615,-0.2008,0.1951,-0.0071,0.0148,-0.0026,-2.6873,1.4263,-3.0661
2024-10-11T12:10:58.204Z,-0.0206,-0.9746,0.1201,0.0615,-0.2008,0.1951,-0.0047,0.0158,-0.0022,-2.6873,1.4263,-3.0661
2024-10-11T12:10:58.215Z,-0.0184,-0.9738,0.1190,0.1012,-0.1530,0.2224,-0.0055,0.0154,-0.0012,-2.6877,1.4265,-3.0654
2024-10-11T12:10:58.224Z,-0.0222,-0.9748,0.1198,0.1012,-0.1530,0.2224,-0.0006,0.0205,-0.0024,-2.6877,1.4265,-3.0654
2024-10-11T12:10:58.234Z,-0.0243,-0.9791,0.1178,0.1012,-0.1530,0.2224,-0.0005,0.0234,-0.0018,-2.6877,1.4265,-3.0654
2024-10-11T12:10:58.244Z,-0.0230,-0.9846,0.1149,0.1096,-0.0306,0.2411,-0.0012,0.0256,-0.0052,-2.6877,1.4266,-3.0651
2024-10-11T12:10:58.254Z,-0.0219,-0.9864,0.1180,0.1096,-0.0306,0.2411,0.0084,0.0198,-0.0041,-2.6877,1.4266,-3.0651
2024-10-11T12:10:58.264Z,-0.0164,-0.9870,0.1211,0.1096,-0.0306,0.2411,0.0074,0.0220,-0.0038,-2.6877,1.4266,-3.0651
2024-10-11T12:10:58.274Z,-0.0131,-0.9889,0.1257,0.0331,0.0033,0.1420,0.0100,0.0172,-0.0032,-2.6872,1.4265,-3.0652
2024-10-11T12:10:58.284Z,-0.0157,-0.9896,0.1284,0.0331,0.0033,0.1420,0.0060,0.0197,-0.0060,-2.6872,1.4265,-3.0652
2024-10-11T12:10:58.294Z,-0.0216,-0.9921,0.1380,0.0331,0.0033,0.1420,0.0081,0.0213,-0.0034,-2.6872,1.4265,-3.0652
2024-10-11T12:10:58.305Z,-0.0246,-0.9931,0.1402,0.1392,0.0162,-0.0234,0.0066,0.0253,-0.0049,-2.6866,1.4264,-3.0653
2024-10-11T12:10:58.315Z,-0.0266,-0.9903,0.1464,0.1392,0.0162,-0.0234,0.0039,0.0263,-0.0101,-2.6866,1.4264,-3.0653
2024-10-11T12:10:58.324Z,-0.0257,-0.9878,0.1455,0.1392,0.0162,-0.0234,0.0070,0.0242,-0.0089,-2.6866,1.4264,-3.0653
2024-10-11T12:10:58.334Z,-0.0219,-0.9906,0.1421,0.0822,0.0216,-0.0603,0.0080,0.0213,-0.0109,-2.6853,1.4262,-3.0662
2024-10-11T12:10:58.344Z,-0.0181,-0.9935,0.1512,0.0822,0.0216,-0.0603,0.0084,0.0164,-0.0110,-2.6853,1.4262,-3.0662
2024-10-11T12:10:58.354Z,-0.0119,-0.9965,0.1481,0.0822,0.0216,-0.0603,0.0118,0.0210,-0.0072,-2.6853,1.4262,-3.0662
2024-10-11T12:10:58.365Z,-0.0152,-0.9995,0.1482,-0.0008,0.0921,-0.0301,0.0090,0.0233,-0.0085,-2.6838,1.4260,-3.0673
2024-10-11T12:10:58.374Z,-0.0086,-0.9978,0.1493,-0.0008,0.0921,-0.0301,0.0088,0.0298,-0.0040,-2.6838,1.4260,-3.0673
2024-10-11T12:10:58.384Z,-0.0047,-0.9982,0.1514,-0.0008,0.0921,-0.0301,0.0108,0.0332,-0.0011,-2.6838,1.4260,-3.0673
2024-10-11T12:10:58.394Z,-0.0033,-0.9996,0.1579,-0.0729,0.1188,-0.1368,0.0090,0.0358,-0.0024,-2.6836,1.4257,-3.0668
2024-10-11T12:10:58.404Z,-0.0052,-1.0013,0.1576,-0.0729,0.1188,-0.1368,0.0073,0.0358,0.0007,-2.6836,1.4257,-3.0668
2024-10-11T12:10:58.414Z,-0.0101,-0.9973,0.1584,-0.0729,0.1188,-0.1368,0.0043,0.0348,0.0010,-2.6836,1.4257,-3.0668
2024-10-11T12:10:58.424Z,-0.0136,-0.9929,0.1669,0.0500,0.0021,-0.2346,0.0008,0.0390,0.0003,-2.6841,1.4255,-3.0654
2024-10-11T12:10:58.434Z,-0.0165,-0.9881,0.1702,0.0500,0.0021,-0.2346,-0.0045,0.0407,0.0018,-2.6841,1.4255,-3.0654
2024-10-11T12:10:58.444Z,-0.0140,-0.9845,0.1762,0.0500,0.0021,-0.2346,-0.0062,0.0444,0.0008,-2.6841,1.4255,-3.0654
2024-10-11T12:10:58.454Z,-0.0084,-0.9877,0.1710,-0.0237,0.0551,-0.2500,-0.0122,0.0467,-0.0007,-2.6845,1.4257,-3.0640
2024-10-11T12:10:58.464Z,-0.0094,-0.9971,0.1690,-0.0237,0.0551,-0.2500,-0.0119,0.0468,0.0039,-2.6845,1.4257,-3.0640
2024-10-11T12:10:58.474Z,-0.0073,-1.0029,0.1682,-0.0237,0.0551,-0.2500,-0.0116,0.0427,0.0009,-2.6845,1.4257,-3.0640
2024-10-11T12:10:58.485Z,-0.0136,-0.9980,0.1627,0.0386,0.0638,-0.2317,-0.0130,0.0390,-0.0001,-2.6852,1.4260,-3.0623
2024-10-11T12:10:58.494Z,-0.0163,-0.9953,0.1657,0.0386,0.0638,-0.2317,-0.0152,0.0397,-0.0003,-2.6852,1.4260,-3.0623
2024-10-11T12:10:58.504Z,-0.0116,-0.9916,0.1681,0.0386,0.0638,-0.2317,-0.0172,0.0402,-0.0013,-2.6852,1.4260,-3.0623
2024-10-11T12:10:58.516Z,-0.0086,-0.9883,0.1639,0.0106,-0.0660,-0.1685,-0.0187,0.0413,0.0032,-2.6856,1.4264,-3.0609
2024-10-11T12:10:58.524Z,-0.0147,-0.9827,0.1577,0.0106,-0.0660,-0.1685,-0.0163,0.0373,-0.0036,-2.6856,1.4264,-3.0609
2024-10-11T12:10:58.535Z,-0.0178,-0.9809,0.1478,0.0106,-0.0660,-0.1685,-0.0196,0.0366,-0.0068,-2.6856,1.4264,-3.0609
2024-10-11T12:10:58.544Z,-0.0179,-0.9763,0.1487,0.0552,-0.1195,-0.0243,-0.0167,0.0311,-0.0071,-2.6852,1.4268,-3.0605
2024-10-11T12:10:58.554Z,-0.0161,-0.9776,0.1432,0.0552,-0.1195,-0.0243,-0.0161,0.0272,-0.0091,-2.6852,1.4268,-3.0605
2024-10-11T12:10:58.564Z,-0.0125,-0.9812,0.1401,0.0552,-0.1195,-0.0243,-0.0107,0.0225,-0.0059,-2.6852,1.4268,-3.0605
2024-10-11T12:10:58.574Z,-0.0077,-0.9801,0.1371,-0.0777,-0.0880,0.0652,-0.0093,0.0181,-0.0081,-2.6840,1.4271,-3.0611
2024-10-11T12:10:58.583Z,-0.0043,-0.9811,0.1371,-0.0777,-0.0880,0.0652,-0.0078,0.0194,-0.0088,-2.6840,1.4271,-3.0611
2024-10-11T12:10:58.594Z,-0.0078,-0.9797,0.1363,-0.0777,-0.0880,0.0652,-0.0086,0.0203,-0.0078,-2.6840,1.4271,-3.0611
2024-10-11T12:10:58.604Z,-0.0056,-0.9778,0.1367,-0.0340,-0.1386,0.0635,-0.0049,0.0149,-0.0043,-2.6828,1.4273,-3.0621
2024-10-11T12:10:58.614Z,-0.0086,-0.9747,0.1393,-0.0340,-0.1386,0.0635,-0.0052,0.0107,-0.0063,-2.6828,1.4273,-3.0621
2024-10-11T12:10:58.624Z,-0.0074,-0.9751,0.1352,-0.0340,-0.1386,0.0635,-0.0008,0.0069,-0.0066,-2.6828,1.4273,-3.0621
2024-10-11T12:10:58.634Z,-0.0096,-0.9788,0.1320,0.0013,-0.0863,0.1358,0.0014,0.0047,-0.0075,-2.6820,1.4273,-3.0629
2024-10-11T12:10:58.644Z,-0.0116,-0.9814,0.1298,0.0013,-0.0863,0.1358,0.0054,0.0074,-0.0038,-2.6820,1.4273,-3.0629
2024-10-11T12:10:58.654Z,-0.0148,-0.9853,0.1333,0.0013,-0.0863,0.1358,0.0045,0.0128,-0.0063,-2.6820,1.4273,-3.0629
2024-10-11T12:10:58.665Z,-0.0132,-0.9905,0.1370,-0.0351,-0.0062,-0.0150,0.0039,0.0125,-0.0040,-2.6808,1.4272,-3.0641
2024-10-11T12:10:58.674Z,-0.0059,-0.9892,0.1452,-0.0351,-0.0062,-0.0150,0.0046,0.0110,-0.0029,-2.6808,1.4272,-3.0641
2024-10-11T12:10:58.683Z,-0.0024,-0.9848,0.1471,-0.0351,-0.0062,-0.0150,0.0071,0.0081,-0.0017,-2.6808,1.4272,-3.0641
2024-10-11T12:10:58.694Z,-0.0084,-0.9840,0.1532,-0.0147,-0.0441,-0.0803,0.0045,0.0102,-0.0041,-2.6803,1.4270,-3.0645
2024-10-11T12:10:58.704Z,-0.0096,-0.9862,0.1501,-0.0147,-0.0441,-0.0803,0.0073,0.0133,-0.0012,-2.6803,1.4270,-3.0645
2024-10-11T12:10:58.714Z,-0.0169,-0.9880,0.1518,-0.0147,-0.0441,-0.0803,0.0047,0.0144,-0.0029,-2.6803,1.4270,-3.0645
2024-10-11T12:10:58.724Z,-0.0203,-0.9913,0.1470,0.1106,0.0372,-0.0327,0.0035,0.0133,-0.0030,-2.6799,1.4269,-3.0647
2024-10-11T12:10:58.734Z,-0.0227,-0.9938,0.1466,0.1106,0.0372,-0.0327,0.0036,0.0140,-0.0054,-2.6799,1.4269,-3.0647
2024-10-11T12:10:58.744Z,-0.0211,-0.9962,0.1488,0.1106,0.0372,-0.0327,0.0042,0.0166,-0.0048,-2.6799,1.4269,-3.0647
2024-10-11T12:10:58.754Z,-0.0183,-0.9957,0.1435,0.0304,0.0696,0.0067,0.0053,0.0182,-0.0097,-2.6787,1.4267,-3.0657
2024-10-11T12:10:58.766Z,-0.0135,-0.9961,0.1412,0.0304,0.0696,0.0067,0.0083,0.0120,-0.0055,-2.6787,1.4267,-3.0657
2024-10-11T12:10:58.774Z,-0.0133,-0.9965,0.1416,0.0304,0.0696,0.0067,0.0090,0.0113,-0.0087,-2.6787,1.4267,-3.0657
2024-10-11T12:10:58.784Z,-0.0091,-0.9954,0.1355,-0.0482,0.0622,0.0400,0.0090,0.0121,-0.0048,-2.6772,1.4265,-3.0670
2024-10-11T12:10:58.794Z,-0.0040,-0.9955,0.1411,-0.0482,0.0622,0.0400,0.0060,0.0185,-0.0046,-2.6772,1.4265,-3.0670
2024-10-11T12:10:58.804Z,-0.0007,-0.9931,0.1475,-0.0482,0.0622,0.0400,0.0016,0.0258,-0.0039,-2.6772,1.4265,-3.0670
2024-10-11T12:10:58.814Z,-0.0011,-0.9931,0.1581,-0.0861,0.0718,-0.1409,0.0010,0.0253,-0.0019,-2.6766,1.4263,-3.0673
2024-10-11T12:10:58.824Z,-0.0031,-0.9980,0.1562,-0.0861,0.0718,-0.1409,-0.0033,0.0271,-0.0038,-2.6766,1.4263,-3.0673
2024-10-11T12:10:58.834Z,-0.0068,-1.0017,0.1582,-0.0861,0.0718,-0.1409,-0.0067,0.0290,-0.0031,-2.6766,1.4263,-3.0673
2024-10-11T12:10:58.844Z,-0.0058,-0.9980,0.1668,-0.0703,0.0803,-0.1840,-0.0082,0.0281,-0.0020,-2.6764,1.4264,-3.0669
2024-10-11T12:10:58.854Z,-0.0049,-0.9984,0.1629,-0.0703,0.0803,-0.1840,-0.0135,0.0352,-0.0003,-2.6764,1.4264,-3.0669
2024-10-11T12:10:58.864Z,-0.0096,-1.0014,0.1649,-0.0703,0.0803,-0.1840,-0.0166,0.0390,0.0010,-2.6764,1.4264,-3.0669
2024-10-11T12:10:58.874Z,-0.0023,-1.0027,0.1697,-0.1131,0.1448,-0.2479,-0.0189,0.0479,0.0034,-2.6767,1.4269,-3.0657
2024-10-11T12:10:58.884Z,-0.0005,-1.0046,0.1689,-0.1131,0.1448,-0.2479,-0.0240,0.0519,0.0053,-2.6767,1.4269,-3.0657
2024-10-11T12:10:58.894Z,-0.0059,-1.0060,0.1607,-0.1131,0.1448,-0.2479,-0.0266,0.0548,0.0046,-2.6767,1.4269,-3.0657
2024-10-11T12:10:58.904Z,-0.0106,-1.0070,0.1548,-0.0148,0.1315,-0.0906,-0.0253,0.0540,0.0025,-2.6780,1.4275,-3.0632
2024-10-11T12:10:58.914Z,-0.0076,-1.0014,0.1534,-0.0148,0.1315,-0.0906,-0.0263,0.0542,0.0045,-2.6780,1.4275,-3.0632
2024-10-11T12:10:58.924Z,-0.0033,-0.9992,0.1545,-0.0148,0.1315,-0.0906,-0.0293,0.0568,0.0046,-2.6780,1.4275,-3.0632
2024-10-11T12:10:58.935Z,-0.0050,-0.9954,0.1514,-0.0735,0.0375,-0.0742,-0.0284,0.0603,0.0048,-2.6796,1.4283,-3.0601
2024-10-11T12:10:58.943Z,-0.0052,-0.9934,0.1468,-0.0735,0.0375,-0.0742,-0.0313,0.0570,0.0081,-2.6796,1.4283,-3.0601
2024-10-11T12:10:58.954Z,-0.0053,-0.9894,0.1413,-0.0735,0.0375,-0.0742,-0.0313,0.0595,0.0066,-2.6796,1.4283,-3.0601
2024-10-11T12:10:58.966Z,-0.0036,-0.9870,0.1419,-0.0817,-0.0439,0.0144,-0.0307,0.0554,0.0069,-2.6814,1.4291,-3.0569
2024-10-11T12:10:58.975Z,-0.0024,-0.9863,0.1375,-0.0817,-0.0439,0.0144,-0.0307,0.0519,0.0065,-2.6814,1.4291,-3.0569
2024-10-11T12:10:58.984Z,0.0000,-0.9898,0.1299,-0.0817,-0.0439,0.0144,-0.0294,0.0489,0.0060,-2.6814,1.4291,-3.0569
2024-10-11T12:10:58.994Z,-0.0009,-0.9927,0.1246,-0.1306,0.0001,0.1955,-0.0263,0.0460,0.0054,-2.6834,1.4299,-3.0536
2024-10-11T12:10:59.004Z,0.0010,-0.9874,0.1181,-0.1306,0.0001,0.1955,-0.0218,0.0405,0.0081,-2.6834,1.4299,-3.0536
2024-10-11T12:10:59.014Z,-0.0014,-0.9799,0.1160,-0.1306,0.0001,0.1955,-0.0201,0.0368,0.0080,-2.6834,1.4299,-3.0536
2024-10-11T12:10:59.024Z,-0.0060,-0.9727,0.1138,-0.0114,-0.1932,0.1741,-0.0186,0.0310,0.0071,-2.6853,1.4305,-3.0509
2024-10-11T12:10:59.034Z,-0.0118,-0.9701,0.1222,-0.0114,-0.1932,0.1741,-0.0179,0.0262,0.0059,-2.6853,1.4305,-3.0509
2024-10-11T12:10:59.044Z,-0.0064,-0.9727,0.1270,-0.0114,-0.1932,0.1741,-0.0166,0.0199,0.0015,-2.6853,1.4305,-3.0509
2024-10-11T12:10:59.054Z,-0.0092,-0.9772,0.1216,0.0129,-0.1223,0.1849,-0.0119,0.0128,0.0034,-2.6861,1.4309,-3.0497
2024-10-11T12:10:59.064Z,-0.0137,-0.9779,0.1199,0.0129,-0.1223,0.1849,-0.0086,0.0051,0.0025,-2.6861,1.4309,-3.0497
2024-10-11T12:10:59.074Z,-0.0119,-0.9791,0.1182,0.0129,-0.1223,0.1849,-0.0074,0.0021,-0.0010,-2.6861,1.4309,-3.0497
2024-10-11T12:10:59.085Z,-0.0119,-0.9791,0.1219,-0.0113,-0.0839,0.1413,-0.0053,0.0004,0.0001,-2.6862,1.4312,-3.0498
2024-10-11T12:10:59.093Z,-0.0123,-0.9820,0.1250,-0.0113,-0.0839,0.1413,-0.0093,0.0029,-0.0011,-2.6862,1.4312,-3.0498
2024-10-11T12:10:59.104Z,-0.0184,-0.9883,0.1236,-0.0113,-0.0839,0.1413,-0.0088,-0.0021,-0.0046,-2.6862,1.4312,-3.0498
2024-10-11T12:10:59.115Z,-0.0188,-0.9921,0.1235,0.0895,0.0423,0.1379,-0.0074,-0.0105,-0.0068,-2.6859,1.4315,-3.0504
2024-10-11T12:10:59.125Z,-0.0238,-0.9923,0.1221,0.0895,0.0423,0.1379,-0.0066,-0.0188,-0.0066,-2.6859,1.4315,-3.0504
2024-10-11T12:10:59.134Z,-0.0238,-0.9923,0.1221,0.0895,0.0423,0.1379,-0.0038,-0.0191,-0.0076,-2.6859,1.4315,-3.0504
2024-10-11T12:10:59.144Z,-0.0194,-0.9907,0.1305,0.0622,0.0104,0.0360,-0.0062,-0.0202,-0.0085,-2.6846,1.4318,-3.0523
2024-10-11T12:10:59.155Z,-0.0138,-0.9948,0.1365,0.0622,0.0104,0.0360,-0.0097,-0.0167,-0.0061,-2.6846,1.4318,-3.0523
2024-10-11T12:10:59.164Z,-0.0138,-0.9948,0.1365,0.0622,0.0104,0.0360,-0.0100,-0.0174,-0.0090,-2.6846,1.4318,-3.0523
2024-10-11T12:10:59.174Z,-0.0102,-0.9959,0.1377,-0.0339,0.0575,0.0040,-0.0093,-0.0154,-0.0052,-2.6833,1.4321,-3.0545
2024-10-11T12:10:59.184Z,-0.0102,-0.9959,0.1377,-0.0339,0.0575,0.0040,-0.0100,-0.0144,-0.0060,-2.6833,1.4321,-3.0545
2024-10-11T12:10:59.195Z,-0.0070,-0.9960,0.1461,-0.0339,0.0575,0.0040,-0.0112,-0.0159,-0.0091,-2.6833,1.4321,-3.0545
2024-10-11T12:10:59.205Z,-0.0068,-0.9959,0.1436,-0.0636,0.0572,-0.0745,-0.0098,-0.0200,-0.0067,-2.6828,1.4324,-3.0557
2024-10-11T12:10:59.215Z,-0.0068,-0.9959,0.1436,-0.0636,0.0572,-0.0745,-0.0121,-0.0250,-0.0054,-2.6828,1.4324,-3.0557
2024-10-11T12:10:59.225Z,-0.0094,-1.0042,0.1436,-0.0636,0.0572,-0.0745,-0.0127,-0.0216,-0.0038,-2.6828,1.4324,-3.0557
2024-10-11T12:10:59.235Z,-0.0078,-1.0094,0.1499,-0.0323,0.1746,-0.1070,-0.0174,-0.0183,-0.0021,-2.6825,1.4329,-3.0568
2024-10-11T12:10:59.244Z,-0.0101,-1.0102,0.1537,-0.0323,0.1746,-0.1070,-0.0230,-0.0208,-0.0035,-2.6825,1.4329,-3.0568
2024-10-11T12:10:59.256Z,-0.0124,-1.0044,0.1579,-0.0323,0.1746,-0.1070,-0.0225,-0.0243,-0.0002,-2.6825,1.4329,-3.0568
2024-10-11T12:10:59.265Z,-0.0124,-1.0044,0.1579,-0.0092,0.0917,-0.1964,-0.0274,-0.0277,-0.0027,-2.6824,1.4335,-3.0578
2024-10-11T12:10:59.275Z,-0.0122,-0.9962,0.1537,-0.0092,0.0917,-0.1964,-0.0282,-0.0292,-0.0018,-2.6824,1.4335,-3.0578
2024-10-11T12:10:59.285Z,-0.0120,-0.9962,0.1542,-0.0092,0.0917,-0.1964,-0.0303,-0.0339,-0.0008,-2.6824,1.4335,-3.0578
2024-10-11T12:10:59.295Z,-0.0141,-0.9950,0.1545,0.0277,0.0538,-0.1834,-0.0329,-0.0334,-0.0007,-2.6828,1.4343,-3.0586
2024-10-11T12:10:59.305Z,-0.0155,-0.9938,0.1525,0.0277,0.0538,-0.1834,-0.0349,-0.0320,0.0003,-2.6828,1.4343,-3.0586
2024-10-11T12:10:59.314Z,-0.0155,-0.9938,0.1525,0.0277,0.0538,-0.1834,-0.0350,-0.0256,-0.0017,-2.6828,1.4343,-3.0586
2024-10-11T12:10:59.325Z,-0.0168,-0.9872,0.1465,0.0753,-0.0265,-0.1008,-0.0347,-0.0256,-0.0013,-2.6832,1.4353,-3.0594
2024-10-11T12:10:59.334Z,-0.0155,-0.9874,0.1457,0.0753,-0.0265,-0.1008,-0.0321,-0.0239,-0.0026,-2.6832,1.4353,-3.0594
2024-10-11T12:10:59.345Z,-0.0140,-0.9848,0.1484,0.0753,-0.0265,-0.1008,-0.0340,-0.0301,-0.0044,-2.6832,1.4353,-3.0594
2024-10-11T12:10:59.354Z,-0.0122,-0.9850,0.1435,0.0219,-0.0579,-0.1108,-0.0349,-0.0296,-0.0018,-2.6833,1.4362,-3.0603
2024-10-11T12:10:59.366Z,-0.0128,-0.9828,0.1353,0.0219,-0.0579,-0.1108,-0.0356,-0.0259,-0.0001,-2.6833,1.4362,-3.0603
2024-10-11T12:10:59.375Z,-0.0146,-0.9753,0.1300,0.0219,-0.0579,-0.1108,-0.0359,-0.0223,-0.0012,-2.6833,1.4362,-3.0603
2024-10-11T12:10:59.384Z,-0.0146,-0.9753,0.1300,0.0314,-0.1646,0.0363,-0.0317,-0.0195,-0.0019,-2.6836,1.4372,-3.0610
2024-10-11T12:10:59.395Z,-0.0123,-0.9794,0.1203,0.0314,-0.1646,0.0363,-0.0296,-0.0175,-0.0011,-2.6836,1.4372,-3.0610
2024-10-11T12:10:59.404Z,-0.0123,-0.9794,0.1203,0.0314,-0.1646,0.0363,-0.0264,-0.0205,0.0004,-2.6836,1.4372,-3.0610
2024-10-11T12:10:59.417Z,-0.0074,-0.9802,0.1117,-0.0465,-0.1054,0.1850,-0.0218,-0.0209,0.0016,-2.6845,1.4379,-3.0610
2024-10-11T12:10:59.424Z,-0.0106,-0.9764,0.1076,-0.0465,-0.1054,0.1850,-0.0167,-0.0206,0.0047,-2.6845,1.4379,-3.0610
2024-10-11T12:10:59.435Z,-0.0096,-0.9761,0.1088,-0.0465,-0.1054,0.1850,-0.0151,-0.0190,0.0034,-2.6845,1.4379,-3.0610
2024-10-11T12:10:59.445Z,-0.0096,-0.9733,0.1126,-0.0122,-0.1650,0.1962,-0.0134,-0.0196,0.0114,-2.6863,1.4383,-3.0600
2024-10-11T12:10:59.455Z,-0.0091,-0.9768,0.1188,-0.0122,-0.1650,0.1962,-0.0109,-0.0203,0.0118,-2.6863,1.4383,-3.0600
2024-10-11T12:10:59.465Z,-0.0061,-0.9815,0.1177,-0.0122,-0.1650,0.1962,-0.0087,-0.0217,0.0106,-2.6863,1.4383,-3.0600
2024-10-11T12:10:59.474Z,-0.0050,-0.9857,0.1167,-0.0569,-0.0716,0.1346,-0.0072,-0.0272,0.0198,-2.6897,1.4385,-3.0576
2024-10-11T12:10:59.485Z,-0.0042,-0.9916,0.1160,-0.0569,-0.0716,0.1346,0.0003,-0.0325,0.0220,-2.6897,1.4385,-3.0576
2024-10-11T12:10:59.495Z,-0.0091,-1.0004,0.1178,-0.0569,-0.0716,0.1346,0.0019,-0.0348,0.0241,-2.6897,1.4385,-3.0576
2024-10-11T12:10:59.505Z,-0.0133,-1.0105,0.1176,-0.0019,0.1628,0.1252,0.0039,-0.0372,0.0290,-2.6953,1.4385,-3.0533
2024-10-11T12:10:59.516Z,-0.0213,-1.0184,0.1158,-0.0019,0.1628,0.1252,0.0078,-0.0349,0.0319,-2.6953,1.4385,-3.0533
2024-10-11T12:10:59.524Z,-0.0229,-1.0171,0.1215,-0.0019,0.1628,0.1252,0.0105,-0.0374,0.0293,-2.6953,1.4385,-3.0533
2024-10-11T12:10:59.535Z,-0.0218,-1.0142,0.1207,0.0874,0.2409,0.1000,0.0120,-0.0404,0.0288,-2.7017,1.4382,-3.0484
2024-10-11T12:10:59.544Z,-0.0240,-1.0113,0.1234,0.0874,0.2409,0.1000,0.0145,-0.0450,0.0267,-2.7017,1.4382,-3.0484
2024-10-11T12:10:59.554Z,-0.0210,-1.0087,0.1249,0.0874,0.2409,0.1000,0.0187,-0.0490,0.0290,-2.7017,1.4382,-3.0484
2024-10-11T12:10:59.566Z,-0.0203,-1.0018,0.1245,0.0711,0.1223,0.0728,0.0205,-0.0476,0.0279,-2.7078,1.4377,-3.0440
2024-10-11T12:10:59.574Z,-0.0193,-0.9941,0.1263,0.0711,0.1223,0.0728,0.0168,-0.0430,0.0288,-2.7078,1.4377,-3.0440
2024-10-11T12:10:59.585Z,-0.0212,-0.9893,0.1321,0.0711,0.1223,0.0728,0.0161,-0.0351,0.0288,-2.7078,1.4377,-3.0440
2024-10-11T12:10:59.594Z,-0.0212,-0.9839,0.1401,0.0856,-0.0607,-0.0453,0.0126,-0.0318,0.0279,-2.7140,1.4371,-3.0392
2024-10-11T12:10:59.604Z,-0.0221,-0.9794,0.1417,0.0856,-0.0607,-0.0453,0.0072,-0.0283,0.0278,-2.7140,1.4371,-3.0392
2024-10-11T12:10:59.616Z,-0.0258,-0.9809,0.1460,0.0856,-0.0607,-0.0453,0.0093,-0.0273,0.0289,-2.7140,1.4371,-3.0392
2024-10-11T12:10:59.624Z,-0.0261,-0.9847,0.1444,0.1234,-0.0701,-0.1143,0.0071,-0.0229,0.0268,-2.7204,1.4367,-3.0340
2024-10-11T12:10:59.635Z,-0.0249,-0.9860,0.1433,0.1234,-0.0701,-0.1143,0.0056,-0.0204,0.0263,-2.7204,1.4367,-3.0340
2024-10-11T12:10:59.644Z,-0.0248,-0.9844,0.1431,0.1234,-0.0701,-0.1143,0.0019,-0.0135,0.0269,-2.7204,1.4367,-3.0340
2024-10-11T12:10:59.654Z,-0.0250,-0.9858,0.1476,0.1045,-0.0632,-0.1440,-0.0026,-0.0037,0.0262,-2.7265,1.4364,-3.0286
2024-10-11T12:10:59.668Z,-0.0265,-0.9929,0.1414,0.1045,-0.0632,-0.1440,-0.0037,0.0021,0.0237,-2.7265,1.4364,-3.0286
2024-10-11T12:10:59.674Z,-0.0332,-0.9979,0.1383,0.1045,-0.0632,-0.1440,-0.0053,0.0081,0.0198,-2.7265,1.4364,-3.0286
2024-10-11T12:10:59.684Z,-0.0305,-1.0021,0.1321,0.1506,0.0944,-0.0150,-0.0069,0.0168,0.0174,-2.7319,1.4364,-3.0234
2024-10-11T12:10:59.694Z,-0.0330,-1.0079,0.1281,0.1506,0.0944,-0.0150,-0.0074,0.0253,0.0143,-2.7319,1.4364,-3.0234
2024-10-11T12:10:59.704Z,-0.0351,-1.0113,0.1248,0.1506,0.0944,-0.0150,-0.0083,0.0330,0.0150,-2.7319,1.4364,-3.0234
2024-10-11T12:10:59.715Z,-0.0370,-1.0210,0.1210,0.1934,0.2662,0.1000,-0.0122,0.0436,0.0077,-2.7357,1.4366,-3.0190
2024-10-11T12:10:59.724Z,-0.0318,-1.0297,0.1138,0.1934,0.2662,0.1000,-0.0091,0.0448,0.0061,-2.7357,1.4366,-3.0190
2024-10-11T12:10:59.735Z,-0.0245,-1.0431,0.1048,0.1934,0.2662,0.1000,-0.0077,0.0473,0.0048,-2.7357,1.4366,-3.0190
2024-10-11T12:10:59.744Z,-0.0222,-1.0525,0.1012,0.0625,0.5808,0.2946,-0.0041,0.0415,0.0053,-2.7373,1.4367,-3.0163
2024-10-11T12:10:59.754Z,-0.0181,-1.0595,0.1019,0.0625,0.5808,0.2946,-0.0005,0.0400,0.0054,-2.7373,1.4367,-3.0163
2024-10-11T12:10:59.764Z,-0.0136,-1.0649,0.0990,0.0625,0.5808,0.2946,-0.0008,0.0342,0.0053,-2.7373,1.4367,-3.0163
2024-10-11T12:10:59.774Z,-0.0166,-1.0605,0.0914,-0.0196,0.7022,0.4123,0.0006,0.0358,0.0064,-2.7390,1.4367,-3.0138
2024-10-11T12:10:59.784Z,-0.0186,-1.0569,0.0909,-0.0196,0.7022,0.4123,0.0017,0.0319,0.0052,-2.7390,1.4367,-3.0138
2024-10-11T12:10:59.794Z,-0.0221,-1.0572,0.0896,-0.0196,0.7022,0.4123,0.0045,0.0284,0.0048,-2.7390,1.4367,-3.0138
2024-10-11T12:10:59.805Z,-0.0246,-1.0547,0.0861,0.0777,0.6332,0.4523,0.0090,0.0228,0.0002,-2.7405,1.4366,-3.0117
2024-10-11T12:10:59.815Z,-0.0251,-1.0558,0.0879,0.0777,0.6332,0.4523,0.0114,0.0137,-0.0018,-2.7405,1.4366,-3.0117
2024-10-11T12:10:59.824Z,-0.0234,-1.0530,0.0927,0.0777,0.6332,0.4523,0.0161,0.0193,-0.0026,-2.7405,1.4366,-3.0117
2024-10-11T12:10:59.835Z,-0.0214,-1.0494,0.0919,0.0686,0.6232,0.4051,0.0198,0.0177,-0.0056,-2.7404,1.4364,-3.0113
2024-10-11T12:10:59.845Z,-0.0157,-1.0435,0.0916,0.0686,0.6232,0.4051,0.0200,0.0188,-0.0067,-2.7404,1.4364,-3.0113
2024-10-11T12:10:59.855Z,-0.0135,-1.0394,0.0956,0.0686,0.6232,0.4051,0.0263,0.0189,-0.0026,-2.7404,1.4364,-3.0113
2024-10-11T12:10:59.865Z,-0.0157,-1.0307,0.1070,-0.0278,0.4826,0.3851,0.0300,0.0190,-0.0082,-2.7391,1.4358,-3.0123
2024-10-11T12:10:59.874Z,-0.0218,-1.0203,0.1210,-0.0278,0.4826,0.3851,0.0298,0.0175,-0.0080,-2.7391,1.4358,-3.0123
2024-10-11T12:10:59.891Z,-0.0269,-1.0131,0.1308,-0.0278,0.4826,0.3851,0.0321,0.0195,-0.0106,-2.7391,1.4358,-3.0123
2024-10-11T12:10:59.893Z,-0.0269,-1.0131,0.1308,0.0801,0.2482,0.0476,0.0321,0.0195,-0.0106,-2.7370,1.4350,-3.0142
2024-10-11T12:10:59.904Z,-0.0348,-0.9930,0.1504,0.0801,0.2482,0.0476,0.0372,0.0221,-0.0223,-2.7370,1.4350,-3.0142
2024-10-11T12:10:59.915Z,-0.0374,-0.9946,0.1521,0.0801,0.2482,0.0476,0.0428,0.0239,-0.0254,-2.7370,1.4350,-3.0142
2024-10-11T12:10:59.924Z,-0.0315,-0.9989,0.1511,0.2049,0.0267,-0.1917,0.0435,0.0303,-0.0303,-2.7323,1.4341,-3.0184
2024-10-11T12:10:59.933Z,-0.0302,-1.0039,0.1442,0.2049,0.0267,-0.1917,0.0435,0.0303,-0.0303,-2.7323,1.4341,-3.0184
2024-10-11T12:10:59.944Z,-0.0215,-1.0069,0.1478,0.2049,0.0267,-0.1917,0.0415,0.0432,-0.0363,-2.7323,1.4341,-3.0184
2024-10-11T12:10:59.954Z,-0.0227,-1.0032,0.1516,0.0679,0.1654,-0.0999,0.0393,0.0492,-0.0393,-2.7245,1.4331,-3.0253
2024-10-11T12:10:59.964Z,-0.0183,-0.9993,0.1521,0.0679,0.1654,-0.0999,0.0330,0.0590,-0.0419,-2.7245,1.4331,-3.0253
2024-10-11T12:10:59.974Z,-0.0171,-0.9923,0.1619,0.0679,0.1654,-0.0999,0.0273,0.0755,-0.0465,-2.7245,1.4331,-3.0253
2024-10-11T12:10:59.983Z,-0.0237,-0.9859,0.1631,0.0177,0.0292,-0.2149,0.0273,0.0755,-0.0465,-2.7155,1.4322,-3.0328
2024-10-11T12:10:59.994Z,-0.0251,-0.9734,0.1708,0.0177,0.0292,-0.2149,0.0132,0.1117,-0.0614,-2.7155,1.4322,-3.0328
2024-10-11T12:11:00.004Z,-0.0240,-0.9601,0.1826,0.0177,0.0292,-0.2149,0.0069,0.1236,-0.0739,-2.7155,1.4322,-3.0328
2024-10-11T12:11:00.014Z,-0.0142,-0.9500,0.1878,0.1044,-0.2732,-0.4131,0.0095,0.1335,-0.0782,-2.7029,1.4318,-3.0426
2024-10-11T12:11:00.024Z,-0.0074,-0.9424,0.1947,0.1044,-0.2732,-0.4131,0.0082,0.1432,-0.0864,-2.7029,1.4318,-3.0426
2024-10-11T12:11:00.034Z,-0.0074,-0.9376,0.1956,0.1044,-0.2732,-0.4131,0.0082,0.1432,-0.0864,-2.7029,1.4318,-3.0426
2024-10-11T12:11:00.044Z,-0.0002,-0.9440,0.1814,-0.0430,-0.5135,-0.5642,0.0162,0.1540,-0.0993,-2.6854,1.4317,-3.0560
2024-10-11T12:11:00.054Z,0.0055,-0.9506,0.1760,-0.0430,-0.5135,-0.5642,0.0200,0.1589,-0.1026,-2.6854,1.4317,-3.0560
2024-10-11T12:11:00.065Z,0.0104,-0.9529,0.1672,-0.0430,-0.5135,-0.5642,0.0217,0.1651,-0.1052,-2.6854,1.4317,-3.0560
2024-10-11T12:11:00.075Z,0.0150,-0.9554,0.1666,-0.1792,-0.3753,-0.2831,0.0232,0.1703,-0.1051,-2.6641,1.4314,-3.0726
2024-10-11T12:11:00.084Z,0.0241,-0.9578,0.1667,-0.1792,-0.3753,-0.2831,0.0229,0.1707,-0.1098,-2.6641,1.4314,-3.0726
2024-10-11T12:11:00.094Z,0.0269,-0.9578,0.1687,-0.1792,-0.3753,-0.2831,0.0220,0.1685,-0.1129,-2.6641,1.4314,-3.0726
2024-10-11T12:11:00.104Z,0.0299,-0.9509,0.1738,-0.3318,-0.3070,-0.2845,0.0212,0.1693,-0.1137,-2.6407,1.4309,-3.0910
2024-10-11T12:11:00.114Z,0.0389,-0.9447,0.1732,-0.3318,-0.3070,-0.2845,0.0148,0.1626,-0.1129,-2.6407,1.4309,-3.0910
2024-10-11T12:11:00.126Z,0.0452,-0.9400,0.1750,-0.4694,-0.4789,-0.3561,0.0110,0.1607,-0.1126,-2.6166,1.4305,-3.1101
2024-10-11T12:11:00.134Z,0.0513,-0.9375,0.1737,-0.4694,-0.4789,-0.3561,0.0071,0.1603,-0.1117,-2.6166,1.4305,-3.1101
2024-10-11T12:11:00.144Z,0.0493,-0.9420,0.1640,-0.4694,-0.4789,-0.3561,0.0013,0.1562,-0.1098,-2.6166,1.4305,-3.1101
2024-10-11T12:11:00.155Z,0.0563,-0.9476,0.1521,-0.5425,-0.4255,-0.1522,-0.0013,0.1525,-0.1059,-2.5932,1.4304,-3.1288
2024-10-11T12:11:00.164Z,0.0650,-0.9504,0.1449,-0.5425,-0.4255,-0.1522,-0.0013,0.1525,-0.1059,-2.5932,1.4304,-3.1288
2024-10-11T12:11:00.174Z,0.0641,-0.9500,0.1378,-0.5425,-0.4255,-0.1522,-0.0074,0.1511,-0.1045,-2.5932,1.4304,-3.1288
2024-10-11T12:11:00.184Z,0.0647,-0.9483,0.1355,-0.5425,-0.4255,-0.1522,-0.0086,0.1410,-0.0972,-2.5932,1.4304,-3.1288
2024-10-11T12:11:00.194Z,0.0685,-0.9459,0.1305,-0.6253,-0.4039,0.0260,-0.0093,0.1349,-0.0905,-2.5719,1.4306,3.1373
2024-10-11T12:11:00.204Z,0.0697,-0.9403,0.1230,-0.6253,-0.4039,0.0260,-0.0122,0.1347,-0.0833,-2.5719,1.4306,3.1373
2024-10-11T12:11:00.215Z,0.0728,-0.9356,0.1177,-0.6253,-0.4039,0.0260,-0.0157,0.1193,-0.0663,-2.5719,1.4306,3.1373
2024-10-11T12:11:00.224Z,0.0622,-0.9313,0.1130,-0.6917,-0.5177,0.2007,-0.0157,0.1193,-0.0663,-2.5549,1.4309,3.1241
2024-10-11T12:11:00.234Z,0.0522,-0.9330,0.1056,-0.6917,-0.5177,0.2007,-0.0178,0.1125,-0.0585,-2.5549,1.4309,3.1241
2024-10-11T12:11:00.244Z,0.0535,-0.9334,0.0973,-0.6917,-0.5177,0.2007,-0.0167,0.1114,-0.0559,-2.5549,1.4309,3.1241
2024-10-11T12:11:00.254Z,0.0485,-0.9327,0.0948,-0.4830,-0.5604,0.4027,-0.0200,0.1127,-0.0439,-2.5429,1.4313,3.1153
2024-10-11T12:11:00.265Z,0.0446,-0.9287,0.0933,-0.4830,-0.5604,0.4027,-0.0209,0.1166,-0.0259,-2.5429,1.4313,3.1153
2024-10-11T12:11:00.275Z,0.0394,-0.9260,0.0965,-0.4830,-0.5604,0.4027,-0.0239,0.1211,-0.0184,-2.5429,1.4313,3.1153
2024-10-11T12:11:00.284Z,0.0300,-0.9240,0.1049,-0.3746,-0.6327,0.4333,-0.0239,0.1211,-0.0184,-2.5364,1.4319,3.1121
2024-10-11T12:11:00.295Z,0.0207,-0.9203,0.1156,-0.3746,-0.6327,0.4333,-0.0221,0.1229,-0.0134,-2.5364,1.4319,3.1121
2024-10-11T12:11:00.303Z,0.0061,-0.9275,0.1253,-0.3746,-0.6327,0.4333,-0.0208,0.1224,-0.0054,-2.5364,1.4319,3.1121
2024-10-11T12:11:00.314Z,-0.0020,-0.9414,0.1245,-0.0648,-0.6520,0.1511,-0.0142,0.1227,-0.0016,-2.5345,1.4325,3.1136
2024-10-11T12:11:00.325Z,-0.0014,-0.9647,0.1270,-0.0648,-0.6520,0.1511,0.0008,0.1119,0.0095,-2.5345,1.4325,3.1136
2024-10-11T12:11:00.334Z,-0.0079,-0.9899,0.1191,-0.0648,-0.6520,0.1511,0.0008,0.1119,0.0095,-2.5345,1.4325,3.1136
2024-10-11T12:11:00.345Z,-0.0083,-1.0188,0.1078,0.1024,-0.0677,0.1647,0.0211,0.1000,0.0192,-2.5361,1.4325,3.1184
2024-10-11T12:11:00.355Z,-0.0073,-1.0460,0.0930,0.1024,-0.0677,0.1647,0.0354,0.0881,0.0263,-2.5361,1.4325,3.1184
2024-10-11T12:11:00.365Z,-0.0009,-1.0704,0.0861,0.1024,-0.0677,0.1647,0.0472,0.0785,0.0297,-2.5361,1.4325,3.1184
2024-10-11T12:11:00.375Z,-0.0138,-1.0878,0.0894,0.0242,0.7347,0.4996,0.0524,0.0640,0.0343,-2.5411,1.4316,3.1258
2024-10-11T12:11:00.385Z,-0.0116,-1.1018,0.0988,0.0242,0.7347,0.4996,0.0612,0.0499,0.0375,-2.5411,1.4316,3.1258
2024-10-11T12:11:00.395Z,-0.0223,-1.1098,0.1035,0.0242,0.7347,0.4996,0.0680,0.0325,0.0440,-2.5411,1.4316,3.1258
2024-10-11T12:11:00.405Z,-0.0078,-1.1129,0.1188,0.2038,1.1599,0.3793,0.0662,0.0338,0.0504,-2.5494,1.4299,3.1355
2024-10-11T12:11:00.414Z,-0.0180,-1.0992,0.1323,0.2038,1.1599,0.3793,0.0657,0.0286,0.0527,-2.5494,1.4299,3.1355
2024-10-11T12:11:00.425Z,-0.0183,-1.0877,0.1505,0.2038,1.1599,0.3793,0.0632,0.0175,0.0591,-2.5494,1.4299,3.1355
2024-10-11T12:11:00.436Z,-0.0143,-1.0684,0.1771,0.1979,0.9938,-0.0306,0.0602,0.0038,0.0651,-2.5602,1.4278,-3.1364
2024-10-11T12:11:00.445Z,-0.0278,-1.0503,0.1958,0.1979,0.9938,-0.0306,0.0560,-0.0201,0.0689,-2.5602,1.4278,-3.1364
2024-10-11T12:11:00.455Z,-0.0281,-1.0293,0.2091,0.1979,0.9938,-0.0306,0.0490,-0.0352,0.0729,-2.5602,1.4278,-3.1364
2024-10-11T12:11:00.465Z,-0.0401,-1.0096,0.2131,0.2362,0.4448,-0.6237,0.0446,-0.0520,0.0709,-2.5740,1.4260,-3.1234
2024-10-11T12:11:00.474Z,-0.0429,-0.9879,0.2183,0.2362,0.4448,-0.6237,0.0334,-0.0655,0.0725,-2.5740,1.4260,-3.1234
2024-10-11T12:11:00.485Z,-0.0410,-0.9697,0.2215,0.2362,0.4448,-0.6237,0.0334,-0.0655,0.0725,-2.5740,1.4260,-3.1234
2024-10-11T12:11:00.494Z,-0.0459,-0.9679,0.2225,0.3527,-0.1576,-0.7318,0.0142,-0.0824,0.0775,-2.5892,1.4248,-3.1102
2024-10-11T12:11:00.505Z,-0.0421,-0.9685,0.2189,0.3527,-0.1576,-0.7318,0.0022,-0.0924,0.0772,-2.5892,1.4248,-3.1102
2024-10-11T12:11:00.514Z,-0.0414,-0.9758,0.2106,0.3527,-0.1576,-0.7318,-0.0074,-0.1023,0.0785,-2.5892,1.4248,-3.1102
2024-10-11T12:11:00.525Z,-0.0435,-0.9802,0.2086,0.3413,-0.1459,-0.6592,-0.0130,-0.1105,0.0778,-2.6051,1.4245,-3.0974
2024-10-11T12:11:00.535Z,-0.0517,-0.9863,0.1985,0.3413,-0.1459,-0.6592,-0.0255,-0.1078,0.0727,-2.6051,1.4245,-3.0974
2024-10-11T12:11:00.544Z,-0.0503,-0.9896,0.1863,0.3413,-0.1459,-0.6592,-0.0371,-0.1039,0.0673,-2.6051,1.4245,-3.0974
2024-10-11T12:11:00.555Z,-0.0484,-0.9922,0.1634,0.4294,-0.0060,-0.4336,-0.0478,-0.0960,0.0643,-2.6211,1.4250,-3.0850
2024-10-11T12:11:00.564Z,-0.0440,-1.0012,0.1453,0.4294,-0.0060,-0.4336,-0.0540,-0.0978,0.0589,-2.6211,1.4250,-3.0850
2024-10-11T12:11:00.574Z,-0.0371,-1.0081,0.1301,0.4294,-0.0060,-0.4336,-0.0592,-0.1040,0.0529,-2.6211,1.4250,-3.0850
2024-10-11T12:11:00.584Z,-0.0323,-1.0142,0.1168,0.2893,0.1602,0.1046,-0.0592,-0.1040,0.0529,-2.6343,1.4263,-3.0753
2024-10-11T12:11:00.593Z,-0.0241,-1.0156,0.1141,0.2893,0.1602,0.1046,-0.0658,-0.1127,0.0472,-2.6343,1.4263,-3.0753
2024-10-11T12:11:00.604Z,-0.0267,-1.0137,0.1163,0.2893,0.1602,0.1046,-0.0654,-0.1235,0.0422,-2.6343,1.4263,-3.0753
2024-10-11T12:11:00.614Z,-0.0172,-1.0081,0.1176,0.1638,0.2367,0.2523,-0.0653,-0.1251,0.0413,-2.6453,1.4281,-3.0681
2024-10-11T12:11:00.624Z,-0.0131,-1.0049,0.1199,0.1638,0.2367,0.2523,-0.0649,-0.1280,0.0422,-2.6453,1.4281,-3.0681
2024-10-11T12:11:00.636Z,-0.0115,-1.0010,0.1254,0.0042,0.1122,0.1581,-0.0649,-0.1280,0.0422,-2.6550,1.4299,-3.0625
2024-10-11T12:11:00.644Z,-0.0114,-0.9924,0.1326,0.0042,0.1122,0.1581,-0.0641,-0.1398,0.0387,-2.6550,1.4299,-3.0625
2024-10-11T12:11:00.654Z,-0.0132,-0.9845,0.1420,0.0042,0.1122,0.1581,-0.0642,-0.1453,0.0385,-2.6550,1.4299,-3.0625
2024-10-11T12:11:00.665Z,-0.0183,-0.9788,0.1374,0.0559,-0.0836,-0.0003,-0.0628,-0.1519,0.0404,-2.6647,1.4317,-3.0575
2024-10-11T12:11:00.674Z,-0.0161,-0.9688,0.1444,0.0559,-0.0836,-0.0003,-0.0603,-0.1563,0.0432,-2.6647,1.4317,-3.0575
2024-10-11T12:11:00.685Z,-0.0176,-0.9665,0.1426,0.0559,-0.0836,-0.0003,-0.0597,-0.1481,0.0447,-2.6647,1.4317,-3.0575
2024-10-11T12:11:00.694Z,-0.0265,-0.9632,0.1382,0.0559,-0.0836,-0.0003,-0.0563,-0.1448,0.0456,-2.6647,1.4317,-3.0575
2024-10-11T12:11:00.705Z,-0.0282,-0.9618,0.1391,0.1291,-0.2579,-0.0318,-0.0602,-0.1335,0.0448,-2.6755,1.4333,-3.0515
2024-10-11T12:11:00.715Z,-0.0355,-0.9663,0.1366,0.1291,-0.2579,-0.0318,-0.0559,-0.1316,0.0452,-2.6755,1.4333,-3.0515
2024-10-11T12:11:00.725Z,-0.0362,-0.9711,0.1440,0.2177,-0.2016,-0.0719,-0.0559,-0.1316,0.0452,-2.6866,1.4349,-3.0448
2024-10-11T12:11:00.735Z,-0.0373,-0.9786,0.1449,0.2177,-0.2016,-0.0719,-0.0553,-0.1156,0.0471,-2.6866,1.4349,-3.0448
2024-10-11T12:11:00.744Z,-0.0297,-0.9853,0.1496,0.2177,-0.2016,-0.0719,-0.0564,-0.1136,0.0482,-2.6866,1.4349,-3.0448
2024-10-11T12:11:00.755Z,-0.0330,-0.9848,0.1513,0.2177,-0.2016,-0.0719,-0.0605,-0.1036,0.0525,-2.6866,1.4349,-3.0448
2024-10-11T12:11:00.764Z,-0.0374,-0.9836,0.1558,0.1633,-0.0568,-0.1557,-0.0668,-0.0961,0.0528,-2.6990,1.4364,-3.0362
2024-10-11T12:11:00.774Z,-0.0367,-0.9730,0.1563,0.1633,-0.0568,-0.1557,-0.0716,-0.0885,0.0560,-2.6990,1.4364,-3.0362
2024-10-11T12:11:00.787Z,-0.0401,-0.9613,0.1506,0.2308,-0.2738,-0.2078,-0.0716,-0.0885,0.0560,-2.7127,1.4382,-3.0258
2024-10-11T12:11:00.794Z,-0.0450,-0.9474,0.1503,0.2308,-0.2738,-0.2078,-0.0803,-0.0777,0.0495,-2.7127,1.4382,-3.0258
2024-10-11T12:11:00.804Z,-0.0488,-0.9287,0.1543,0.2308,-0.2738,-0.2078,-0.0876,-0.0690,0.0440,-2.7127,1.4382,-3.0258
2024-10-11T12:11:00.814Z,-0.0482,-0.9078,0.1580,0.2308,-0.2738,-0.2078,-0.0958,-0.0626,0.0394,-2.7127,1.4382,-3.0258
2024-10-11T12:11:00.824Z,-0.0466,-0.8837,0.1585,0.3159,-0.7635,-0.2784,-0.1048,-0.0495,0.0343,-2.7256,1.4405,-3.0154
2024-10-11T12:11:00.835Z,-0.0436,-0.8613,0.1601,0.3159,-0.7635,-0.2784,-0.1132,-0.0369,0.0299,-2.7256,1.4405,-3.0154
2024-10-11T12:11:00.845Z,-0.0465,-0.8436,0.1542,0.2853,-1.4121,-0.2964,-0.1191,-0.0238,0.0221,-2.7363,1.4436,-3.0064
2024-10-11T12:11:00.854Z,-0.0403,-0.8348,0.1458,0.2853,-1.4121,-0.2964,-0.1219,-0.0123,0.0157,-2.7363,1.4436,-3.0064
2024-10-11T12:11:00.864Z,-0.0336,-0.8277,0.1347,0.2853,-1.4121,-0.2964,-0.1206,0.0028,0.0068,-2.7363,1.4436,-3.0064
2024-10-11T12:11:00.876Z,-0.0242,-0.8259,0.1240,0.0995,-1.6361,-0.0528,-0.1200,0.0148,-0.0006,-2.7431,1.4470,-3.0000
2024-10-11T12:11:00.884Z,-0.0157,-0.8319,0.1109,0.0995,-1.6361,-0.0528,-0.1200,0.0148,-0.0006,-2.7431,1.4470,-3.0000
2024-10-11T12:11:00.894Z,-0.0089,-0.8410,0.0890,0.0995,-1.6361,-0.0528,-0.1054,0.0320,-0.0070,-2.7431,1.4470,-3.0000
2024-10-11T12:11:00.905Z,0.0022,-0.8469,0.0804,-0.1628,-1.4579,0.3558,-0.0967,0.0463,-0.0094,-2.7458,1.4503,-2.9967
2024-10-11T12:11:00.914Z,0.0076,-0.8593,0.0711,-0.1628,-1.4579,0.3558,-0.0828,0.0490,-0.0115,-2.7458,1.4503,-2.9967
2024-10-11T12:11:00.924Z,0.0105,-0.8741,0.0749,-0.1628,-1.4579,0.3558,-0.0701,0.0562,-0.0106,-2.7458,1.4503,-2.9967
2024-10-11T12:11:00.936Z,0.0232,-0.8893,0.0767,-0.3530,-1.0482,0.4109,-0.0576,0.0580,-0.0100,-2.7460,1.4526,-2.9952
2024-10-11T12:11:00.944Z,0.0281,-0.9055,0.0878,-0.3530,-1.0482,0.4109,-0.0470,0.0662,-0.0116,-2.7460,1.4526,-2.9952
2024-10-11T12:11:00.954Z,0.0259,-0.9197,0.0929,-0.3530,-1.0482,0.4109,-0.0380,0.0747,-0.0104,-2.7460,1.4526,-2.9952
2024-10-11T12:11:00.964Z,0.0207,-0.9344,0.0928,-0.3530,-1.0482,0.4109,-0.0284,0.0925,-0.0114,-2.7460,1.4526,-2.9952
2024-10-11T12:11:00.974Z,0.0241,-0.9541,0.0897,-0.3880,-0.6032,0.2262,-0.0215,0.1147,-0.0131,-2.7452,1.4539,-2.9940
2024-10-11T12:11:00.985Z,0.0238,-0.9740,0.0850,-0.3880,-0.6032,0.2262,-0.0129,0.1199,-0.0134,-2.7452,1.4539,-2.9940
2024-10-11T12:11:00.996Z,0.0286,-0.9893,0.0811,-0.4278,-0.0804,0.3189,-0.0018,0.1194,-0.0128,-2.7426,1.4543,-2.9936
2024-10-11T12:11:01.004Z,0.0312,-1.0137,0.0707,-0.4278,-0.0804,0.3189,0.0133,0.1082,-0.0099,-2.7426,1.4543,-2.9936
2024-10-11T12:11:01.014Z,0.0384,-1.0349,0.0670,-0.4278,-0.0804,0.3189,0.0275,0.1005,-0.0033,-2.7426,1.4543,-2.9936
2024-10-11T12:11:01.025Z,0.0367,-1.0599,0.0658,-0.5399,0.5910,0.4955,0.0397,0.0952,0.0002,-2.7405,1.4538,-2.9926
2024-10-11T12:11:01.035Z,0.0309,-1.0823,0.0632,-0.5399,0.5910,0.4955,0.0538,0.0886,0.0067,-2.7405,1.4538,-2.9926
2024-10-11T12:11:01.044Z,0.0238,-1.1055,0.0541,-0.5399,0.5910,0.4955,0.0682,0.0831,0.0094,-2.7405,1.4538,-2.9926
2024-10-11T12:11:01.055Z,0.0189,-1.1296,0.0488,-0.3611,1.2895,0.6557,0.0864,0.0771,0.0102,-2.7401,1.4519,-2.9908
2024-10-11T12:11:01.064Z,0.0151,-1.1420,0.0487,-0.3611,1.2895,0.6557,0.1023,0.0670,0.0115,-2.7401,1.4519,-2.9908
2024-10-11T12:11:01.074Z,0.0024,-1.1542,0.0424,-0.3611,1.2895,0.6557,0.1217,0.0542,0.0087,-2.7401,1.4519,-2.9908
2024-10-11T12:11:01.087Z,-0.0077,-1.1592,0.0444,-0.1319,1.6222,0.7459,0.1349,0.0432,0.0055,-2.7384,1.4485,-2.9909
2024-10-11T12:11:01.094Z,-0.0218,-1.1603,0.0448,-0.1319,1.6222,0.7459,0.1481,0.0368,0.0018,-2.7384,1.4485,-2.9909
2024-10-11T12:11:01.104Z,-0.0322,-1.1617,0.0523,-0.1319,1.6222,0.7459,0.1579,0.0231,-0.0025,-2.7384,1.4485,-2.9909
2024-10-11T12:11:01.115Z,-0.0349,-1.1545,0.0650,0.1525,1.6218,0.6339,0.1654,0.0091,-0.0085,-2.7329,1.4440,-2.9958
2024-10-11T12:11:01.124Z,-0.0337,-1.1432,0.0747,0.1525,1.6218,0.6339,0.1720,-0.0081,-0.0105,-2.7329,1.4440,-2.9958
2024-10-11T12:11:01.134Z,-0.0304,-1.1295,0.0892,0.1525,1.6218,0.6339,0.1753,-0.0312,-0.0145,-2.7329,1.4440,-2.9958
2024-10-11T12:11:01.144Z,-0.0406,-1.1173,0.1105,0.1804,1.2519,0.2469,0.1756,-0.0512,-0.0183,-2.7247,1.4389,-3.0047
2024-10-11T12:11:01.154Z,-0.0499,-1.1126,0.1329,0.1804,1.2519,0.2469,0.1670,-0.0655,-0.0220,-2.7247,1.4389,-3.0047
2024-10-11T12:11:01.163Z,-0.0451,-1.1054,0.1554,0.1804,1.2519,0.2469,0.1578,-0.0712,-0.0226,-2.7247,1.4389,-3.0047
2024-10-11T12:11:01.175Z,-0.0390,-1.0961,0.1759,0.2272,1.0567,-0.3554,0.1457,-0.0784,-0.0243,-2.7153,1.4342,-3.0162
2024-10-11T12:11:01.186Z,-0.0394,-1.0893,0.1920,0.2272,1.0567,-0.3554,0.1361,-0.0851,-0.0242,-2.7153,1.4342,-3.0162
2024-10-11T12:11:01.194Z,-0.0456,-1.0828,0.2087,0.2272,1.0567,-0.3554,0.1250,-0.0915,-0.0315,-2.7153,1.4342,-3.0162
2024-10-11T12:11:01.205Z,-0.0511,-1.0763,0.2127,0.3384,0.8634,-0.7026,0.1100,-0.0990,-0.0326,-2.7061,1.4304,-3.0282
2024-10-11T12:11:01.214Z,-0.0503,-1.0709,0.2261,0.3384,0.8634,-0.7026,0.0997,-0.1017,-0.0361,-2.7061,1.4304,-3.0282
2024-10-11T12:11:01.224Z,-0.0681,-1.0676,0.2392,0.3384,0.8634,-0.7026,0.0888,-0.0976,-0.0388,-2.7061,1.4304,-3.0282
2024-10-11T12:11:01.236Z,-0.0756,-1.0682,0.2528,0.5845,0.7680,-1.0466,0.0766,-0.0993,-0.0416,-2.6965,1.4277,-3.0410
2024-10-11T12:11:01.244Z,-0.0822,-1.0689,0.2661,0.5845,0.7680,-1.0466,0.0604,-0.0874,-0.0461,-2.6965,1.4277,-3.0410
2024-10-11T12:11:01.254Z,-0.0785,-1.0703,0.2707,0.5845,0.7680,-1.0466,0.0487,-0.0834,-0.0504,-2.6965,1.4277,-3.0410
2024-10-11T12:11:01.264Z,-0.0729,-1.0775,0.2823,0.5993,0.8311,-1.3395,0.0351,-0.0779,-0.0529,-2.6857,1.4261,-3.0546
2024-10-11T12:11:01.274Z,-0.0709,-1.0877,0.2883,0.5993,0.8311,-1.3395,0.0197,-0.0753,-0.0587,-2.6857,1.4261,-3.0546
2024-10-11T12:11:01.284Z,-0.0770,-1.0882,0.2888,0.5993,0.8311,-1.3395,0.0019,-0.0748,-0.0633,-2.6857,1.4261,-3.0546
2024-10-11T12:11:01.294Z,-0.0881,-1.0798,0.2898,0.7325,0.9192,-1.4342,-0.0167,-0.0677,-0.0656,-2.6733,1.4260,-3.0692
2024-10-11T12:11:01.304Z,-0.0898,-1.0647,0.2902,0.7325,0.9192,-1.4342,-0.0402,-0.0540,-0.0722,-2.6733,1.4260,-3.0692
2024-10-11T12:11:01.314Z,-0.0867,-1.0466,0.2898,0.7325,0.9192,-1.4342,-0.0661,-0.0373,-0.0764,-2.6733,1.4260,-3.0692
2024-10-11T12:11:01.324Z,-0.0812,-1.0208,0.2889,0.7484,0.3800,-1.4620,-0.0845,-0.0256,-0.0828,-2.6587,1.4276,-3.0854
2024-10-11T12:11:01.335Z,-0.0749,-0.9827,0.2846,0.7484,0.3800,-1.4620,-0.1131,-0.0144,-0.0889,-2.6587,1.4276,-3.0854
2024-10-11T12:11:01.344Z,-0.0803,-0.9355,0.2784,0.7484,0.3800,-1.4620,-0.1346,-0.0083,-0.0956,-2.6587,1.4276,-3.0854
2024-10-11T12:11:01.355Z,-0.0685,-0.8837,0.2692,0.6543,-0.9195,-1.2942,-0.1585,0.0022,-0.0949,-2.6409,1.4314,-3.1036
2024-10-11T12:11:01.364Z,-0.0549,-0.8336,0.2594,0.6543,-0.9195,-1.2942,-0.1786,0.0119,-0.0969,-2.6409,1.4314,-3.1036
2024-10-11T12:11:01.374Z,-0.0449,-0.7886,0.2469,0.6543,-0.9195,-1.2942,-0.1933,0.0215,-0.0987,-2.6409,1.4314,-3.1036
2024-10-11T12:11:01.386Z,-0.0392,-0.7600,0.2185,0.3900,-2.2102,-0.9025,-0.1968,0.0270,-0.0976,-2.6209,1.4370,-3.1231
2024-10-11T12:11:01.394Z,-0.0234,-0.7448,0.1727,0.3900,-2.2102,-0.9025,-0.2012,0.0399,-0.0952,-2.6209,1.4370,-3.1231
2024-10-11T12:11:01.405Z,-0.0131,-0.7410,0.1195,0.3900,-2.2102,-0.9025,-0.1933,0.0476,-0.0984,-2.6209,1.4370,-3.1231
2024-10-11T12:11:01.415Z,-0.0005,-0.7461,0.0785,0.0318,-2.4431,0.3944,-0.1873,0.0447,-0.0927,-2.5995,1.4428,3.1398
2024-10-11T12:11:01.424Z,0.0113,-0.7552,0.0455,0.0318,-2.4431,0.3944,-0.1796,0.0578,-0.0906,-2.5995,1.4428,3.1398
2024-10-11T12:11:01.435Z,0.0257,-0.7641,0.0110,0.0318,-2.4431,0.3944,-0.1682,0.0701,-0.0854,-2.5995,1.4428,3.1398
2024-10-11T12:11:01.444Z,0.0384,-0.7723,-0.0014,-0.3254,-2.1749,1.2224,-0.1575,0.0786,-0.0783,-2.5789,1.4479,3.1211
2024-10-11T12:11:01.454Z,0.0435,-0.7772,-0.0231,-0.3254,-2.1749,1.2224,-0.1449,0.0895,-0.0721,-2.5789,1.4479,3.1211
2024-10-11T12:11:01.464Z,0.0483,-0.7812,-0.0199,-0.3254,-2.1749,1.2224,-0.1339,0.0940,-0.0693,-2.5789,1.4479,3.1211
2024-10-11T12:11:01.474Z,0.0515,-0.7791,-0.0145,-0.4537,-2.0986,1.3329,-0.1233,0.0988,-0.0619,-2.5609,1.4519,3.1057
2024-10-11T12:11:01.485Z,0.0523,-0.7798,0.0003,-0.4537,-2.0986,1.3329,-0.1153,0.0945,-0.0550,-2.5609,1.4519,3.1057
2024-10-11T12:11:01.494Z,0.0576,-0.7783,0.0125,-0.4537,-2.0986,1.3329,-0.1056,0.0876,-0.0502,-2.5609,1.4519,3.1057
2024-10-11T12:11:01.504Z,0.0730,-0.7773,0.0226,-0.6300,-2.1099,0.9272,-0.1056,0.0876,-0.0502,-2.5464,1.4552,3.0938
2024-10-11T12:11:01.514Z,0.0807,-0.7714,0.0401,-0.6300,-2.1099,0.9272,-0.0977,0.0813,-0.0311,-2.5464,1.4552,3.0938
2024-10-11T12:11:01.524Z,0.0773,-0.7695,0.0520,-0.6300,-2.1099,0.9272,-0.0951,0.0813,-0.0293,-2.5464,1.4552,3.0938
2024-10-11T12:11:01.535Z,0.0645,-0.7664,0.0648,-0.6026,-2.2341,0.4860,-0.0924,0.0732,-0.0247,-2.5372,1.4580,3.0867
2024-10-11T12:11:01.544Z,0.0594,-0.7672,0.0783,-0.6026,-2.2341,0.4860,-0.0867,0.0673,-0.0219,-2.5372,1.4580,3.0867
2024-10-11T12:11:01.554Z,0.0584,-0.7710,0.0808,-0.6026,-2.2341,0.4860,-0.0851,0.0679,-0.0176,-2.5372,1.4580,3.0867
2024-10-11T12:11:01.564Z,0.0605,-0.7803,0.0788,-0.5258,-2.1197,0.2914,-0.0805,0.0728,-0.0123,-2.5310,1.4605,3.0825
2024-10-11T12:11:01.574Z,0.0633,-0.7950,0.0728,-0.5258,-2.1197,0.2914,-0.0719,0.0700,-0.0089,-2.5310,1.4605,3.0825
2024-10-11T12:11:01.585Z,0.0638,-0.8132,0.0619,-0.5258,-2.1197,0.2914,-0.0631,0.0700,-0.0041,-2.5310,1.4605,3.0825
2024-10-11T12:11:01.594Z,0.0565,-0.8362,0.0468,-0.5216,-1.6179,0.5652,-0.0479,0.0642,-0.0023,-2.5282,1.4625,3.0815
2024-10-11T12:11:01.605Z,0.0472,-0.8728,0.0238,-0.5216,-1.6179,0.5652,-0.0316,0.0652,-0.0007,-2.5282,1.4625,3.0815
2024-10-11T12:11:01.614Z,0.0464,-0.9162,-0.0024,-0.5216,-1.6179,0.5652,-0.0073,0.0652,0.0032,-2.5282,1.4625,3.0815
2024-10-11T12:11:01.625Z,0.0496,-0.9561,-0.0203,-0.4143,-0.4566,1.2220,0.0174,0.0611,0.0091,-2.5290,1.4630,3.0839
2024-10-11T12:11:01.637Z,0.0484,-0.9843,-0.0341,-0.4143,-0.4566,1.2220,0.0421,0.0596,0.0146,-2.5290,1.4630,3.0839
2024-10-11T12:11:01.644Z,0.0466,-1.0002,-0.0216,-0.4143,-0.4566,1.2220,0.0622,0.0515,0.0194,-2.5290,1.4630,3.0839
2024-10-11T12:11:01.654Z,0.0545,-1.0145,-0.0146,-0.4624,0.1770,1.2568,0.0622,0.0515,0.0194,-2.5348,1.4615,3.0912
2024-10-11T12:11:01.664Z,0.0568,-1.0254,0.0068,-0.4624,0.1770,1.2568,0.1039,0.0340,0.0380,-2.5348,1.4615,3.0912
2024-10-11T12:11:01.674Z,0.0527,-1.0404,0.0262,-0.4624,0.1770,1.2568,0.1226,0.0300,0.0416,-2.5348,1.4615,3.0912
2024-10-11T12:11:01.685Z,0.0427,-1.0608,0.0382,-0.4090,0.6140,0.7606,0.1406,0.0293,0.0472,-2.5469,1.4581,3.1039
2024-10-11T12:11:01.694Z,0.0365,-1.0805,0.0491,-0.4090,0.6140,0.7606,0.1579,0.0304,0.0500,-2.5469,1.4581,3.1039
2024-10-11T12:11:01.704Z,0.0441,-1.0994,0.0562,-0.4090,0.6140,0.7606,0.1757,0.0308,0.0558,-2.5469,1.4581,3.1039
2024-10-11T12:11:01.713Z,0.0404,-1.1063,0.0753,-0.3739,1.0952,0.4719,0.1865,0.0310,0.0591,-2.5622,1.4532,3.1197
2024-10-11T12:11:01.724Z,0.0438,-1.1146,0.0874,-0.3739,1.0952,0.4719,0.1979,0.0251,0.0651,-2.5622,1.4532,3.1197
2024-10-11T12:11:01.735Z,0.0455,-1.1244,0.0963,-0.3739,1.0952,0.4719,0.2078,0.0208,0.0747,-2.5622,1.4532,3.1197
2024-10-11T12:11:01.744Z,0.0430,-1.1404,0.1016,-0.4179,1.4080,0.2194,0.2161,0.0153,0.0800,-2.5805,1.4471,3.1384
2024-10-11T12:11:01.754Z,0.0483,-1.1563,0.1069,-0.4179,1.4080,0.2194,0.2230,0.0114,0.0883,-2.5805,1.4471,3.1384
2024-10-11T12:11:01.764Z,0.0436,-1.1760,0.1098,-0.4179,1.4080,0.2194,0.2290,0.0065,0.0950,-2.5805,1.4471,3.1384
2024-10-11T12:11:01.774Z,0.0311,-1.1973,0.1165,-0.3396,1.9584,0.1304,0.2306,0.0025,0.0972,-2.6019,1.4403,-3.1236
2024-10-11T12:11:01.786Z,0.0260,-1.2197,0.1249,-0.3396,1.9584,0.1304,0.2331,-0.0026,0.1029,-2.6019,1.4403,-3.1236
2024-10-11T12:11:01.794Z,0.0095,-1.2443,0.1435,-0.3396,1.9584,0.1304,0.2314,-0.0008,0.1032,-2.6019,1.4403,-3.1236
2024-10-11T12:11:01.805Z,-0.0023,-1.2625,0.1601,-0.0463,2.6243,-0.1951,0.2271,-0.0029,0.1038,-2.6235,1.4333,-3.1025
2024-10-11T12:11:01.814Z,-0.0040,-1.2793,0.1834,-0.0463,2.6243,-0.1951,0.2178,-0.0021,0.1019,-2.6235,1.4333,-3.1025
2024-10-11T12:11:01.824Z,-0.0106,-1.2928,0.2088,-0.0463,2.6243,-0.1951,0.2034,-0.0055,0.1035,-2.6235,1.4333,-3.1025
2024-10-11T12:11:01.836Z,-0.0118,-1.3073,0.2353,0.0268,3.0911,-0.8379,0.1848,-0.0087,0.1019,-2.6433,1.4269,-3.0832
2024-10-11T12:11:01.845Z,-0.0257,-1.3131,0.2592,0.0268,3.0911,-0.8379,0.1678,-0.0105,0.0986,-2.6433,1.4269,-3.0832
2024-10-11T12:11:01.853Z,-0.0486,-1.3224,0.2685,0.0268,3.0911,-0.8379,0.1479,-0.0155,0.0901,-2.6433,1.4269,-3.0832
2024-10-11T12:11:01.864Z,-0.0513,-1.3208,0.2931,0.3952,3.2724,-1.3637,0.1292,-0.0224,0.0865,-2.6605,1.4220,-3.0668
2024-10-11T12:11:01.874Z,-0.0629,-1.3117,0.3073,0.3952,3.2724,-1.3637,0.1099,-0.0282,0.0740,-2.6605,1.4220,-3.0668
2024-10-11T12:11:01.885Z,-0.0864,-1.2992,0.3100,0.3952,3.2724,-1.3637,0.0900,-0.0265,0.0645,-2.6605,1.4220,-3.0668
2024-10-11T12:11:01.894Z,-0.0833,-1.2772,0.3300,0.7208,2.8963,-1.7134,0.0699,-0.0278,0.0567,-2.6731,1.4188,-3.0555
2024-10-11T12:11:01.904Z,-0.0826,-1.2540,0.3325,0.7208,2.8963,-1.7134,0.0502,-0.0399,0.0441,-2.6731,1.4188,-3.0555
2024-10-11T12:11:01.914Z,-0.0828,-1.2293,0.3383,0.7208,2.8963,-1.7134,0.0325,-0.0279,0.0357,-2.6731,1.4188,-3.0555
2024-10-11T12:11:01.924Z,-0.0806,-1.2053,0.3441,0.6587,2.1792,-1.8776,0.0082,-0.0147,0.0268,-2.6806,1.4174,-3.0492
2024-10-11T12:11:01.934Z,-0.0637,-1.1819,0.3450,0.6587,2.1792,-1.8776,-0.0111,-0.0092,0.0239,-2.6806,1.4174,-3.0492
2024-10-11T12:11:01.944Z,-0.0616,-1.1614,0.3376,0.6587,2.1792,-1.8776,-0.0261,-0.0006,0.0113,-2.6806,1.4174,-3.0492
2024-10-11T12:11:01.954Z,-0.0610,-1.1508,0.3150,0.4760,1.6145,-1.6584,-0.0442,0.0163,0.0106,-2.6846,1.4179,-3.0455
2024-10-11T12:11:01.964Z,-0.0478,-1.1426,0.2958,0.4760,1.6145,-1.6584,-0.0581,0.0252,0.0061,-2.6846,1.4179,-3.0455
2024-10-11T12:11:01.974Z,-0.0482,-1.1392,0.2803,0.4760,1.6145,-1.6584,-0.0693,0.0321,0.0045,-2.6846,1.4179,-3.0455
2024-10-11T12:11:01.984Z,-0.0423,-1.1411,0.2719,0.3078,1.4847,-1.2035,-0.0816,0.0412,0.0034,-2.6872,1.4197,-3.0424
2024-10-11T12:11:01.994Z,-0.0405,-1.1487,0.2603,0.3078,1.4847,-1.2035,-0.0948,0.0455,0.0011,-2.6872,1.4197,-3.0424
2024-10-11T12:11:02.004Z,-0.0434,-1.1626,0.2461,0.3078,1.4847,-1.2035,-0.1058,0.0477,0.0019,-2.6872,1.4197,-3.0424
2024-10-11T12:11:02.014Z,-0.0324,-1.1750,0.2418,0.1751,1.7873,-0.9305,-0.1150,0.0464,0.0007,-2.6898,1.4226,-3.0387
2024-10-11T12:11:02.024Z,-0.0412,-1.1831,0.2345,0.1751,1.7873,-0.9305,-0.1289,0.0444,-0.0034,-2.6898,1.4226,-3.0387
2024-10-11T12:11:02.034Z,-0.0382,-1.1822,0.2420,0.1751,1.7873,-0.9305,-0.1424,0.0355,-0.0065,-2.6898,1.4226,-3.0387
2024-10-11T12:11:02.044Z,-0.0455,-1.1681,0.2400,0.2714,1.8009,-0.9792,-0.1565,0.0325,-0.0082,-2.6920,1.4267,-3.0355
2024-10-11T12:11:02.054Z,-0.0538,-1.1389,0.2432,0.2714,1.8009,-0.9792,-0.1707,0.0314,-0.0131,-2.6920,1.4267,-3.0355
2024-10-11T12:11:02.065Z,-0.0521,-1.0983,0.2549,0.2714,1.8009,-0.9792,-0.1948,0.0350,-0.0145,-2.6920,1.4267,-3.0355
2024-10-11T12:11:02.074Z,-0.0394,-1.0545,0.2546,0.2726,0.7350,-1.1830,-0.2153,0.0295,-0.0149,-2.6936,1.4322,-3.0332
2024-10-11T12:11:02.084Z,-0.0311,-1.0156,0.2565,0.2726,0.7350,-1.1830,-0.2307,0.0311,-0.0164,-2.6936,1.4322,-3.0332
2024-10-11T12:11:02.094Z,-0.0324,-0.9779,0.2482,0.2726,0.7350,-1.1830,-0.2475,0.0309,-0.0177,-2.6936,1.4322,-3.0332
2024-10-11T12:11:02.104Z,-0.0386,-0.9467,0.2205,0.2253,-0.3638,-0.9882,-0.2560,0.0356,-0.0205,-2.6959,1.4393,-3.0302
2024-10-11T12:11:02.114Z,-0.0340,-0.9193,0.1845,0.2253,-0.3638,-0.9882,-0.2623,0.0385,-0.0215,-2.6959,1.4393,-3.0302
2024-10-11T12:11:02.124Z,-0.0278,-0.8910,0.1508,0.2253,-0.3638,-0.9882,-0.2637,0.0439,-0.0189,-2.6959,1.4393,-3.0302
2024-10-11T12:11:02.134Z,-0.0228,-0.8615,0.1133,0.0907,-1.2110,-0.0064,-0.2597,0.0509,-0.0191,-2.6984,1.4471,-3.0268
2024-10-11T12:11:02.144Z,-0.0148,-0.8363,0.0767,0.0907,-1.2110,-0.0064,-0.2505,0.0457,-0.0156,-2.6984,1.4471,-3.0268
2024-10-11T12:11:02.153Z,-0.0117,-0.8152,0.0333,0.0907,-1.2110,-0.0064,-0.2357,0.0438,-0.0139,-2.6984,1.4471,-3.0268
2024-10-11T12:11:02.164Z,-0.0068,-0.8039,-0.0095,-0.0692,-1.8277,1.1302,-0.2200,0.0397,-0.0116,-2.7018,1.4543,-3.0223
2024-10-11T12:11:02.174Z,-0.0023,-0.7973,-0.0460,-0.0692,-1.8277,1.1302,-0.1969,0.0364,-0.0104,-2.7018,1.4543,-3.0223
2024-10-11T12:11:02.184Z,0.0036,-0.7966,-0.0851,-0.0692,-1.8277,1.1302,-0.1762,0.0449,-0.0108,-2.7018,1.4543,-3.0223
2024-10-11T12:11:02.194Z,0.0028,-0.7967,-0.1103,-0.1561,-1.9390,2.1064,-0.1480,0.0525,-0.0151,-2.7048,1.4598,-3.0183
2024-10-11T12:11:02.203Z,0.0050,-0.7968,-0.1378,-0.1561,-1.9390,2.1064,-0.1240,0.0655,-0.0170,-2.7048,1.4598,-3.0183
2024-10-11T12:11:02.214Z,0.0077,-0.7924,-0.1518,-0.1561,-1.9390,2.1064,-0.0898,0.0637,-0.0185,-2.7048,1.4598,-3.0183
2024-10-11T12:11:02.224Z,0.0166,-0.7795,-0.1567,-0.2771,-2.0719,2.5845,-0.0645,0.0610,-0.0220,-2.7036,1.4630,-3.0180
2024-10-11T12:11:02.234Z,0.0199,-0.7583,-0.1558,-0.2771,-2.0719,2.5845,-0.0356,0.0584,-0.0227,-2.7036,1.4630,-3.0180
2024-10-11T12:11:02.244Z,0.0312,-0.7355,-0.1469,-0.2771,-2.0719,2.5845,-0.0028,0.0560,-0.0200,-2.7036,1.4630,-3.0180
2024-10-11T12:11:02.256Z,0.0349,-0.7179,-0.1472,-0.4601,-2.6909,2.4971,0.0193,0.0552,-0.0149,-2.6992,1.4637,-3.0208
2024-10-11T12:11:02.264Z,0.0448,-0.7146,-0.1247,-0.4601,-2.6909,2.4971,0.0376,0.0486,-0.0081,-2.6992,1.4637,-3.0208
2024-10-11T12:11:02.274Z,0.0449,-0.7183,-0.0940,-0.4601,-2.6909,2.4971,0.0630,0.0342,-0.0048,-2.6992,1.4637,-3.0208
2024-10-11T12:11:02.285Z,0.0359,-0.7258,-0.0720,-0.4879,-2.6433,1.8004,0.0802,0.0245,-0.0012,-2.6958,1.4622,-3.0233
2024-10-11T12:11:02.294Z,0.0359,-0.7345,-0.0577,-0.4879,-2.6433,1.8004,0.0939,0.0155,0.0027,-2.6958,1.4622,-3.0233
2024-10-11T12:11:02.304Z,0.0372,-0.7472,-0.0423,-0.4879,-2.6433,1.8004,0.1020,0.0129,0.0063,-2.6958,1.4622,-3.0233
2024-10-11T12:11:02.314Z,0.0193,-0.7634,-0.0132,-0.3685,-2.2953,1.2956,0.1089,0.0045,0.0067,-2.6941,1.4592,-3.0249
2024-10-11T12:11:02.324Z,0.0157,-0.7843,0.0178,-0.3685,-2.2953,1.2956,0.1106,0.0023,0.0094,-2.6941,1.4592,-3.0249
2024-10-11T12:11:02.334Z,0.0143,-0.8017,0.0381,-0.3685,-2.2953,1.2956,0.1081,0.0019,0.0090,-2.6941,1.4592,-3.0249
2024-10-11T12:11:02.344Z,0.0127,-0.8165,0.0600,-0.2490,-1.7589,0.5566,0.1035,-0.0002,0.0099,-2.6933,1.4560,-3.0258
2024-10-11T12:11:02.354Z,0.0061,-0.8272,0.0783,-0.2490,-1.7589,0.5566,0.0954,0.0007,0.0058,-2.6933,1.4560,-3.0258
2024-10-11T12:11:02.364Z,-0.0179,-0.8328,0.0905,-0.2490,-1.7589,0.5566,0.0863,0.0056,0.0002,-2.6933,1.4560,-3.0258
2024-10-11T12:11:02.374Z,-0.0299,-0.8362,0.0937,0.1432,-1.5470,0.2167,0.0754,0.0071,-0.0036,-2.6916,1.4532,-3.0276
2024-10-11T12:11:02.384Z,-0.0262,-0.8441,0.1106,0.1432,-1.5470,0.2167,0.0625,0.0192,-0.0128,-2.6916,1.4532,-3.0276
2024-10-11T12:11:02.394Z,-0.0225,-0.8483,0.1328,0.1432,-1.5470,0.2167,0.0528,0.0295,-0.0162,-2.6916,1.4532,-3.0276
2024-10-11T12:11:02.405Z,-0.0162,-0.8498,0.1367,0.0477,-1.4083,-0.1659,0.0402,0.0374,-0.0223,-2.6866,1.4515,-3.0323
2024-10-11T12:11:02.414Z,-0.0202,-0.8508,0.1420,0.0477,-1.4083,-0.1659,0.0346,0.0314,-0.0270,-2.6866,1.4515,-3.0323
2024-10-11T12:11:02.424Z,-0.0193,-0.8656,0.1514,0.0477,-1.4083,-0.1659,0.0304,0.0268,-0.0329,-2.6866,1.4515,-3.0323
2024-10-11T12:11:02.434Z,-0.0163,-0.8872,0.1559,0.0370,-1.0867,-0.3518,0.0280,0.0198,-0.0323,-2.6785,1.4506,-3.0398
2024-10-11T12:11:02.444Z,-0.0048,-0.9072,0.1565,0.0370,-1.0867,-0.3518,0.0282,0.0126,-0.0334,-2.6785,1.4506,-3.0398
2024-10-11T12:11:02.454Z,0.0020,-0.9206,0.1521,0.0370,-1.0867,-0.3518,0.0266,0.0097,-0.0354,-2.6785,1.4506,-3.0398
2024-10-11T12:11:02.464Z,-0.0069,-0.9392,0.1661,-0.0665,-0.5784,-0.3978,0.0217,0.0028,-0.0400,-2.6692,1.4498,-3.0490
2024-10-11T12:11:02.474Z,-0.0107,-0.9589,0.1808,-0.0665,-0.5784,-0.3978,0.0200,-0.0030,-0.0424,-2.6692,1.4498,-3.0490
2024-10-11T12:11:02.484Z,-0.0102,-0.9840,0.1951,-0.0665,-0.5784,-0.3978,0.0154,-0.0077,-0.0443,-2.6692,1.4498,-3.0490
2024-10-11T12:11:02.494Z,-0.0010,-1.0130,0.1945,-0.0624,0.1195,-0.7344,0.0109,-0.0115,-0.0407,-2.6588,1.4494,-3.0597
2024-10-11T12:11:02.505Z,0.0043,-1.0481,0.1816,-0.0624,0.1195,-0.7344,0.0108,-0.0208,-0.0423,-2.6588,1.4494,-3.0597
2024-10-11T12:11:02.514Z,0.0001,-1.0836,0.1803,-0.0624,0.1195,-0.7344,0.0085,-0.0241,-0.0453,-2.6588,1.4494,-3.0597
2024-10-11T12:11:02.525Z,-0.0123,-1.1475,0.1892,0.0180,1.1456,-0.6091,0.0071,-0.0264,-0.0489,-2.6481,1.4492,-3.0713
2024-10-11T12:11:02.534Z,-0.0123,-1.1475,0.1892,0.0180,1.1456,-0.6091,0.0038,-0.0312,-0.0479,-2.6481,1.4492,-3.0713
2024-10-11T12:11:02.545Z,-0.0164,-1.1913,0.2253,0.0180,1.1456,-0.6091,-0.0040,-0.0371,-0.0495,-2.6481,1.4492,-3.0713
2024-10-11T12:11:02.554Z,-0.0164,-1.1913,0.2253,0.0928,1.9161,-0.9856,-0.0122,-0.0425,-0.0502,-2.6366,1.4493,-3.0841
2024-10-11T12:11:02.565Z,-0.0251,-1.2086,0.2370,0.0928,1.9161,-0.9856,-0.0212,-0.0471,-0.0474,-2.6366,1.4493,-3.0841
2024-10-11T12:11:02.574Z,-0.0251,-1.2086,0.2370,0.0928,1.9161,-0.9856,-0.0325,-0.0558,-0.0455,-2.6366,1.4493,-3.0841
2024-10-11T12:11:02.585Z,-0.0200,-1.2236,0.2356,0.1409,2.1650,-1.1402,-0.0396,-0.0638,-0.0419,-2.6258,1.4501,-3.0965
2024-10-11T12:11:02.595Z,-0.0403,-1.2239,0.2227,0.1409,2.1650,-1.1402,-0.0465,-0.0756,-0.0396,-2.6258,1.4501,-3.0965
2024-10-11T12:11:02.605Z,-0.0347,-1.2256,0.2183,0.1409,2.1650,-1.1402,-0.0570,-0.0788,-0.0408,-2.6258,1.4501,-3.0965
2024-10-11T12:11:02.615Z,-0.0462,-1.2188,0.2180,0.3274,2.2905,-0.9801,-0.0613,-0.0907,-0.0431,-2.6161,1.4516,-3.1088
2024-10-11T12:11:02.625Z,-0.0472,-1.2061,0.2215,0.3274,2.2905,-0.9801,-0.0695,-0.1005,-0.0418,-2.6161,1.4516,-3.1088
2024-10-11T12:11:02.635Z,-0.0489,-1.1841,0.2241,0.3274,2.2905,-0.9801,-0.0785,-0.1067,-0.0449,-2.6161,1.4516,-3.1088
2024-10-11T12:11:02.645Z,-0.0672,-1.1619,0.2204,0.4173,1.9335,-1.0527,-0.0878,-0.1142,-0.0475,-2.6058,1.4539,-3.1223
2024-10-11T12:11:02.655Z,-0.0784,-1.1331,0.2265,0.4173,1.9335,-1.0527,-0.0966,-0.1097,-0.0513,-2.6058,1.4539,-3.1223
2024-10-11T12:11:02.665Z,-0.0733,-1.1035,0.2290,0.4173,1.9335,-1.0527,-0.1124,-0.1081,-0.0600,-2.6058,1.4539,-3.1223
2024-10-11T12:11:02.675Z,-0.0607,-1.0737,0.2328,0.7587,1.1505,-1.1178,-0.1244,-0.1016,-0.0653,-2.5918,1.4570,-3.1398
2024-10-11T12:11:02.685Z,-0.0566,-1.0488,0.2255,0.7587,1.1505,-1.1178,-0.1398,-0.0944,-0.0695,-2.5918,1.4570,-3.1398
2024-10-11T12:11:02.693Z,-0.0566,-1.0488,0.2255,0.7587,1.1505,-1.1178,-0.1487,-0.0916,-0.0710,-2.5918,1.4570,-3.1398
2024-10-11T12:11:02.705Z,-0.0505,-1.0276,0.2091,0.5250,0.3799,-1.0395,-0.1510,-0.0855,-0.0733,-2.5731,1.4612,3.1218
2024-10-11T12:11:02.714Z,-0.0402,-1.0124,0.1882,0.5250,0.3799,-1.0395,-0.1567,-0.0734,-0.0746,-2.5731,1.4612,3.1218
2024-10-11T12:11:02.725Z,-0.0114,-0.9879,0.1404,0.5250,0.3799,-1.0395,-0.1564,-0.0639,-0.0678,-2.5731,1.4612,3.1218
2024-10-11T12:11:02.735Z,0.0043,-0.9730,0.1031,0.2130,-0.0496,-0.4213,-0.1508,-0.0562,-0.0656,-2.5521,1.4657,3.0986
2024-10-11T12:11:02.745Z,0.0104,-0.9595,0.0723,0.2130,-0.0496,-0.4213,-0.1403,-0.0417,-0.0594,-2.5521,1.4657,3.0986
2024-10-11T12:11:02.755Z,0.0235,-0.9383,0.0521,0.2130,-0.0496,-0.4213,-0.1267,-0.0345,-0.0540,-2.5521,1.4657,3.0986
2024-10-11T12:11:02.765Z,0.0223,-0.9191,0.0374,-0.1376,-0.4987,0.4505,-0.1118,-0.0241,-0.0491,-2.5336,1.4696,3.0788
2024-10-11T12:11:02.775Z,0.0177,-0.9021,0.0104,-0.1376,-0.4987,0.4505,-0.1014,-0.0131,-0.0447,-2.5336,1.4696,3.0788
2024-10-11T12:11:02.785Z,0.0184,-0.8887,-0.0079,-0.1376,-0.4987,0.4505,-0.0858,0.0021,-0.0387,-2.5336,1.4696,3.0788
2024-10-11T12:11:02.795Z,0.0218,-0.8824,-0.0156,-0.0951,-1.0200,1.0018,-0.0713,0.0161,-0.0331,-2.5193,1.4723,3.0641
2024-10-11T12:11:02.805Z,0.0225,-0.8750,-0.0209,-0.0951,-1.0200,1.0018,-0.0577,0.0165,-0.0299,-2.5193,1.4723,3.0641
2024-10-11T12:11:02.815Z,0.0235,-0.8712,-0.0112,-0.0951,-1.0200,1.0018,-0.0456,0.0199,-0.0266,-2.5193,1.4723,3.0641
2024-10-11T12:11:02.824Z,0.0207,-0.8720,0.0009,-0.1467,-1.2103,1.1064,-0.0332,0.0258,-0.0241,-2.5098,1.4737,3.0550
2024-10-11T12:11:02.834Z,0.0201,-0.8774,0.0223,-0.1467,-1.2103,1.1064,-0.0245,0.0276,-0.0165,-2.5098,1.4737,3.0550
2024-10-11T12:11:02.844Z,0.0237,-0.8825,0.0341,-0.1467,-1.2103,1.1064,-0.0146,0.0320,-0.0125,-2.5098,1.4737,3.0550
2024-10-11T12:11:02.854Z,0.0237,-0.8825,0.0341,-0.1329,-1.1153,0.6384,-0.0109,0.0377,-0.0061,-2.5049,1.4742,3.0506
2024-10-11T12:11:02.864Z,0.0362,-0.8960,0.0514,-0.1329,-1.1153,0.6384,-0.0055,0.0395,-0.0020,-2.5049,1.4742,3.0506
2024-10-11T12:11:02.873Z,0.0362,-0.8960,0.0514,-0.1329,-1.1153,0.6384,-0.0023,0.0398,0.0025,-2.5049,1.4742,3.0506
2024-10-11T12:11:02.884Z,0.0348,-0.8915,0.0624,-0.2317,-0.9516,0.2837,0.0052,0.0330,0.0048,-2.5051,1.4743,3.0517
2024-10-11T12:11:02.894Z,0.0340,-0.8948,0.0149,-0.2317,-0.9516,0.2837,0.0182,0.0365,0.0104,-2.5051,1.4743,3.0517
2024-10-11T12:11:02.904Z,0.0340,-0.8948,0.0149,-0.2317,-0.9516,0.2837,0.0258,0.0350,0.0186,-2.5051,1.4743,3.0517
2024-10-11T12:11:02.914Z,0.0271,-0.8976,0.0512,-0.3597,-0.9600,0.8054,0.0336,0.0375,0.0204,-2.5102,1.4736,3.0576
2024-10-11T12:11:02.925Z,0.0312,-0.8972,0.0389,-0.3597,-0.9600,0.8054,0.0420,0.0358,0.0250,-2.5102,1.4736,3.0576
2024-10-11T12:11:02.935Z,0.0363,-0.8953,0.0108,-0.3597,-0.9600,0.8054,0.0510,0.0343,0.0280,-2.5102,1.4736,3.0576
2024-10-11T12:11:02.944Z,0.0426,-0.8944,-0.0066,-0.2761,-0.9806,0.8074,0.0667,0.0295,0.0343,-2.5199,1.4722,3.0679
2024-10-11T12:11:02.955Z,0.0350,-0.8863,-0.0434,-0.2761,-0.9806,0.8074,0.0834,0.0226,0.0381,-2.5199,1.4722,3.0679
2024-10-11T12:11:02.964Z,0.0259,-0.8822,-0.0617,-0.2761,-0.9806,0.8074,0.1028,0.0202,0.0409,-2.5199,1.4722,3.0679
2024-10-11T12:11:02.974Z,0.0414,-0.8774,-0.0448,-0.1819,-1.0979,1.5745,0.1171,0.0183,0.0459,-2.5337,1.4696,3.0821
2024-10-11T12:11:02.984Z,0.0372,-0.8796,-0.0378,-0.1819,-1.0979,1.5745,0.1351,0.0189,0.0513,-2.5337,1.4696,3.0821
2024-10-11T12:11:02.994Z,0.0442,-0.8850,-0.0641,-0.1819,-1.0979,1.5745,0.1537,0.0120,0.0558,-2.5337,1.4696,3.0821
2024-10-11T12:11:03.005Z,0.0513,-0.8895,-0.0894,-0.3476,-1.0854,1.5959,0.1767,0.0088,0.0594,-2.5515,1.4652,3.0999
2024-10-11T12:11:03.014Z,0.0374,-0.9082,-0.1126,-0.3476,-1.0854,1.5959,0.2016,0.0034,0.0640,-2.5515,1.4652,3.0999
2024-10-11T12:11:03.024Z,0.0199,-0.9378,-0.0908,-0.3476,-1.0854,1.5959,0.2208,0.0007,0.0629,-2.5515,1.4652,3.0999
2024-10-11T12:11:03.034Z,0.0127,-0.9618,-0.0302,-0.2231,-0.6119,2.1084,0.2388,-0.0076,0.0681,-2.5712,1.4590,3.1193
2024-10-11T12:11:03.044Z,0.0222,-0.9817,0.0067,-0.2231,-0.6119,2.1084,0.2459,-0.0107,0.0648,-2.5712,1.4590,3.1193
2024-10-11T12:11:03.056Z,0.0407,-1.0103,0.0699,-0.2231,-0.6119,2.1084,0.2486,-0.0126,0.0698,-2.5712,1.4590,3.1193
2024-10-11T12:11:03.064Z,0.0303,-1.0351,0.1557,-0.3533,0.1036,0.6674,0.2382,-0.0200,0.0697,-2.5898,1.4517,3.1370
2024-10-11T12:11:03.074Z,0.0195,-1.0565,0.2123,-0.3533,0.1036,0.6674,0.2245,-0.0190,0.0725,-2.5898,1.4517,3.1370
2024-10-11T12:11:03.084Z,0.0306,-1.0755,0.2459,-0.3533,0.1036,0.6674,0.2064,-0.0265,0.0727,-2.5898,1.4517,3.1370
2024-10-11T12:11:03.094Z,0.0195,-1.0997,0.2729,-0.2931,0.7637,-1.0945,0.1861,-0.0222,0.0756,-2.6077,1.4452,-3.1293
2024-10-11T12:11:03.105Z,0.0116,-1.1190,0.2996,-0.2931,0.7637,-1.0945,0.1622,-0.0196,0.0774,-2.6077,1.4452,-3.1293
2024-10-11T12:11:03.114Z,-0.0016,-1.1343,0.3051,-0.2931,0.7637,-1.0945,0.1446,-0.0226,0.0774,-2.6077,1.4452,-3.1293
2024-10-11T12:11:03.124Z,-0.0167,-1.1407,0.3333,-0.0781,1.3568,-1.7000,0.1209,-0.0243,0.0746,-2.6251,1.4405,-3.1131
2024-10-11T12:11:03.134Z,-0.0151,-1.1378,0.3601,-0.0781,1.3568,-1.7000,0.0957,-0.0332,0.0720,-2.6251,1.4405,-3.1131
2024-10-11T12:11:03.144Z,-0.0233,-1.1419,0.3583,-0.0781,1.3568,-1.7000,0.0670,-0.0344,0.0705,-2.6251,1.4405,-3.1131
2024-10-11T12:11:03.156Z,-0.0001,-1.1220,0.3349,0.1570,1.4739,-2.2431,0.0503,-0.0419,0.0718,-2.6410,1.4380,-3.0985
2024-10-11T12:11:03.164Z,-0.0163,-1.1046,0.3053,0.1570,1.4739,-2.2431,0.0278,-0.0348,0.0686,-2.6410,1.4380,-3.0985
2024-10-11T12:11:03.175Z,-0.0281,-1.0930,0.3042,0.1570,1.4739,-2.2431,0.0098,-0.0323,0.0695,-2.6410,1.4380,-3.0985
2024-10-11T12:11:03.184Z,-0.0264,-1.0783,0.3044,0.1956,1.0267,-1.6496,-0.0165,-0.0231,0.0619,-2.6563,1.4373,-3.0845
2024-10-11T12:11:03.194Z,-0.0397,-1.0639,0.2811,0.1956,1.0267,-1.6496,-0.0343,-0.0142,0.0600,-2.6563,1.4373,-3.0845
2024-10-11T12:11:03.205Z,-0.0418,-1.0535,0.2402,0.1956,1.0267,-1.6496,-0.0479,-0.0115,0.0546,-2.6563,1.4373,-3.0845
2024-10-11T12:11:03.214Z,-0.0429,-1.0502,0.2148,0.3222,0.6429,-1.1558,-0.0569,-0.0172,0.0492,-2.6701,1.4384,-3.0716
2024-10-11T12:11:03.225Z,-0.0497,-1.0428,0.1939,0.3222,0.6429,-1.1558,-0.0654,-0.0198,0.0457,-2.6701,1.4384,-3.0716
2024-10-11T12:11:03.234Z,-0.0542,-1.0364,0.1832,0.3222,0.6429,-1.1558,-0.0707,-0.0089,0.0402,-2.6701,1.4384,-3.0716
2024-10-11T12:11:03.244Z,-0.0431,-1.0261,0.1687,0.4551,0.4560,-0.5467,-0.0771,-0.0056,0.0346,-2.6810,1.4403,-3.0614
2024-10-11T12:11:03.256Z,-0.0492,-1.0151,0.1821,0.4551,0.4560,-0.5467,-0.0858,-0.0003,0.0281,-2.6810,1.4403,-3.0614
2024-10-11T12:11:03.264Z,-0.0403,-1.0115,0.1710,0.4551,0.4560,-0.5467,-0.0901,-0.0040,0.0228,-2.6810,1.4403,-3.0614
2024-10-11T12:11:03.274Z,-0.0312,-1.0104,0.1570,0.3211,0.1966,-0.4696,-0.0965,0.0032,0.0224,-2.6892,1.4428,-3.0537
2024-10-11T12:11:03.284Z,-0.0109,-1.0052,0.1657,0.3211,0.1966,-0.4696,-0.1017,0.0045,0.0190,-2.6892,1.4428,-3.0537
2024-10-11T12:11:03.294Z,-0.0158,-1.0090,0.1591,0.3211,0.1966,-0.4696,-0.1060,0.0124,0.0194,-2.6892,1.4428,-3.0537
2024-10-11T12:11:03.305Z,-0.0178,-1.0021,0.1421,0.0104,0.1644,-0.3694,-0.1080,0.0188,0.0176,-2.6962,1.4458,-3.0467
2024-10-11T12:11:03.314Z,-0.0035,-0.9957,0.1273,0.0104,0.1644,-0.3694,-0.1119,0.0255,0.0170,-2.6962,1.4458,-3.0467
2024-10-11T12:11:03.324Z,-0.0058,-0.9929,0.1499,0.0104,0.1644,-0.3694,-0.1158,0.0347,0.0147,-2.6962,1.4458,-3.0467
2024-10-11T12:11:03.334Z,-0.0223,-0.9911,0.1644,-0.1027,0.0110,-0.2197,-0.1215,0.0395,0.0145,-2.7030,1.4491,-3.0394
2024-10-11T12:11:03.344Z,-0.0234,-0.9866,0.1643,-0.1027,0.0110,-0.2197,-0.1315,0.0333,0.0096,-2.7030,1.4491,-3.0394
2024-10-11T12:11:03.356Z,-0.0298,-0.9789,0.1578,-0.1027,0.0110,-0.2197,-0.1346,0.0270,0.0069,-2.7030,1.4491,-3.0394
2024-10-11T12:11:03.364Z,-0.0370,-0.9793,0.1406,0.1413,-0.1299,-0.4140,-0.1375,0.0305,0.0010,-2.7088,1.4530,-3.0329
2024-10-11T12:11:03.374Z,-0.0427,-0.9692,0.1354,0.1413,-0.1299,-0.4140,-0.1382,0.0264,-0.0039,-2.7088,1.4530,-3.0329
2024-10-11T12:11:03.384Z,-0.0491,-0.9653,0.1325,0.1413,-0.1299,-0.4140,-0.1393,0.0220,-0.0102,-2.7088,1.4530,-3.0329
2024-10-11T12:11:03.393Z,-0.0471,-0.9630,0.1301,0.3447,-0.2793,-0.2188,-0.1402,0.0179,-0.0165,-2.7109,1.4571,-3.0304
2024-10-11T12:11:03.406Z,-0.0471,-0.9576,0.1439,0.3447,-0.2793,-0.2188,-0.1407,0.0151,-0.0233,-2.7109,1.4571,-3.0304
2024-10-11T12:11:03.414Z,-0.0480,-0.9623,0.1513,0.3447,-0.2793,-0.2188,-0.1413,0.0102,-0.0270,-2.7109,1.4571,-3.0304
2024-10-11T12:11:03.424Z,-0.0470,-0.9729,0.1419,0.3445,-0.3356,-0.4246,-0.1425,0.0121,-0.0364,-2.7084,1.4614,-3.0327
2024-10-11T12:11:03.434Z,-0.0285,-0.9869,0.1468,0.3445,-0.3356,-0.4246,-0.1439,0.0111,-0.0358,-2.7084,1.4614,-3.0327
2024-10-11T12:11:03.444Z,-0.0313,-0.9992,0.1545,0.3445,-0.3356,-0.4246,-0.1436,0.0175,-0.0406,-2.7084,1.4614,-3.0327
2024-10-11T12:11:03.454Z,-0.0333,-1.0035,0.1429,0.1731,0.0200,-0.4733,-0.1417,0.0220,-0.0420,-2.7023,1.4657,-3.0386
2024-10-11T12:11:03.464Z,-0.0180,-1.0072,0.1112,0.1731,0.0200,-0.4733,-0.1332,0.0172,-0.0440,-2.7023,1.4657,-3.0386
2024-10-11T12:11:03.474Z,-0.0192,-1.0130,0.0860,0.1731,0.0200,-0.4733,-0.1309,0.0152,-0.0448,-2.7023,1.4657,-3.0386
2024-10-11T12:11:03.484Z,-0.0187,-1.0136,0.0551,0.0645,0.1756,0.0782,-0.1181,0.0182,-0.0432,-2.6939,1.4697,-3.0466
2024-10-11T12:11:03.494Z,0.0070,-1.0045,0.0116,0.0645,0.1756,0.0782,-0.1077,0.0248,-0.0377,-2.6939,1.4697,-3.0466
2024-10-11T12:11:03.504Z,0.0294,-0.9975,-0.0127,0.0645,0.1756,0.0782,-0.0915,0.0332,-0.0341,-2.6939,1.4697,-3.0466
2024-10-11T12:11:03.514Z,0.0368,-0.9907,-0.0334,-0.3333,0.0292,1.0337,-0.0746,0.0401,-0.0284,-2.6859,1.4727,-3.0540
2024-10-11T12:11:03.524Z,0.0259,-0.9771,-0.0368,-0.3333,0.0292,1.0337,-0.0597,0.0381,-0.0251,-2.6859,1.4727,-3.0540
2024-10-11T12:11:03.534Z,0.0251,-0.9671,-0.0362,-0.3333,0.0292,1.0337,-0.0432,0.0365,-0.0173,-2.6859,1.4727,-3.0540
2024-10-11T12:11:03.544Z,0.0349,-0.9662,-0.0544,-0.2843,-0.2624,1.2845,-0.0301,0.0374,-0.0135,-2.6812,1.4743,-3.0577
2024-10-11T12:11:03.555Z,0.0212,-0.9601,-0.0675,-0.2843,-0.2624,1.2845,-0.0113,0.0366,-0.0076,-2.6812,1.4743,-3.0577
2024-10-11T12:11:03.564Z,0.0248,-0.9470,-0.0677,-0.2843,-0.2624,1.2845,0.0029,0.0351,-0.0048,-2.6812,1.4743,-3.0577
2024-10-11T12:11:03.574Z,0.0123,-0.9284,-0.0477,-0.3172,-0.4317,1.6191,0.0131,0.0296,-0.0055,-2.6795,1.4745,-3.0587
2024-10-11T12:11:03.584Z,0.0120,-0.9278,-0.0292,-0.3172,-0.4317,1.6191,0.0304,0.0232,-0.0043,-2.6795,1.4745,-3.0587
2024-10-11T12:11:03.594Z,0.0223,-0.9312,-0.0042,-0.3172,-0.4317,1.6191,0.0413,0.0186,0.0011,-2.6795,1.4745,-3.0587
2024-10-11T12:11:03.606Z,0.0153,-0.9317,0.0335,-0.2951,-0.6316,1.0766,0.0487,0.0107,0.0024,-2.6786,1.4734,-3.0592
2024-10-11T12:11:03.614Z,0.0161,-0.9320,0.0499,-0.2951,-0.6316,1.0766,0.0570,0.0101,0.0049,-2.6786,1.4734,-3.0592
2024-10-11T12:11:03.624Z,0.0061,-0.9313,0.0567,-0.2951,-0.6316,1.0766,0.0668,0.0063,0.0051,-2.6786,1.4734,-3.0592
2024-10-11T12:11:03.634Z,0.0018,-0.9354,0.0707,-0.1805,-0.6285,0.4425,0.0716,0.0031,0.0072,-2.6788,1.4716,-3.0590
2024-10-11T12:11:03.644Z,-0.0031,-0.9352,0.0956,-0.1805,-0.6285,0.4425,0.0764,-0.0020,0.0044,-2.6788,1.4716,-3.0590
2024-10-11T12:11:03.655Z,-0.0158,-0.9351,0.1318,-0.1805,-0.6285,0.4425,0.0795,-0.0090,0.0029,-2.6788,1.4716,-3.0590
2024-10-11T12:11:03.664Z,-0.0121,-0.9413,0.1386,0.0589,-0.5779,-0.2342,0.0803,-0.0133,0.0019,-2.6780,1.4692,-3.0602
2024-10-11T12:11:03.674Z,-0.0139,-0.9527,0.1319,0.0589,-0.5779,-0.2342,0.0816,-0.0155,-0.0006,-2.6780,1.4692,-3.0602
2024-10-11T12:11:03.684Z,-0.0325,-0.9559,0.1378,0.0589,-0.5779,-0.2342,0.0806,-0.0202,-0.0071,-2.6780,1.4692,-3.0602
2024-10-11T12:11:03.694Z,-0.0238,-0.9581,0.1524,0.2036,-0.3794,-0.3055,0.0789,-0.0205,-0.0103,-2.6753,1.4667,-3.0638
2024-10-11T12:11:03.705Z,-0.0106,-0.9659,0.1583,0.2036,-0.3794,-0.3055,0.0776,-0.0222,-0.0099,-2.6753,1.4667,-3.0638
2024-10-11T12:11:03.713Z,-0.0066,-0.9753,0.1384,0.2036,-0.3794,-0.3055,0.0755,-0.0229,-0.0101,-2.6753,1.4667,-3.0638
2024-10-11T12:11:03.724Z,-0.0115,-0.9746,0.1351,-0.0109,-0.1981,-0.3613,0.0745,-0.0241,-0.0103,-2.6710,1.4644,-3.0690
2024-10-11T12:11:03.734Z,-0.0248,-0.9732,0.1292,-0.0109,-0.1981,-0.3613,0.0701,-0.0245,-0.0139,-2.6710,1.4644,-3.0690
2024-10-11T12:11:03.744Z,-0.0282,-0.9729,0.1005,-0.0109,-0.1981,-0.3613,0.0663,-0.0172,-0.0198,-2.6710,1.4644,-3.0690
2024-10-11T12:11:03.755Z,-0.0133,-0.9686,0.0823,0.2205,-0.2021,-0.0135,0.0714,-0.0218,-0.0210,-2.6653,1.4623,-3.0756
2024-10-11T12:11:03.764Z,-0.0191,-0.9667,0.0770,0.2205,-0.2021,-0.0135,0.0717,-0.0263,-0.0224,-2.6653,1.4623,-3.0756
2024-10-11T12:11:03.774Z,-0.0258,-0.9683,0.0703,0.2205,-0.2021,-0.0135,0.0727,-0.0295,-0.0260,-2.6653,1.4623,-3.0756
2024-10-11T12:11:03.784Z,-0.0255,-0.9708,0.0739,0.1846,-0.2605,0.3746,0.0756,-0.0363,-0.0325,-2.6575,1.4602,-3.0845
2024-10-11T12:11:03.794Z,-0.0251,-0.9871,0.0902,0.1846,-0.2605,0.3746,0.0706,-0.0373,-0.0346,-2.6575,1.4602,-3.0845
2024-10-11T12:11:03.805Z,-0.0088,-0.9972,0.1183,0.1846,-0.2605,0.3746,0.0658,-0.0375,-0.0371,-2.6575,1.4602,-3.0845
2024-10-11T12:11:03.814Z,-0.0023,-1.0048,0.1410,0.0863,0.0174,0.0069,0.0637,-0.0390,-0.0331,-2.6475,1.4582,-3.0959
2024-10-11T12:11:03.824Z,0.0022,-1.0159,0.1425,0.0863,0.0174,0.0069,0.0535,-0.0437,-0.0346,-2.6475,1.4582,-3.0959
2024-10-11T12:11:03.835Z,-0.0004,-1.0247,0.1413,0.0863,0.0174,0.0069,0.0474,-0.0473,-0.0360,-2.6475,1.4582,-3.0959
2024-10-11T12:11:03.844Z,-0.0162,-1.0355,0.1568,-0.0725,0.2867,-0.2650,0.0420,-0.0501,-0.0344,-2.6381,1.4567,-3.1067
2024-10-11T12:11:03.855Z,-0.0120,-1.0482,0.1751,-0.0725,0.2867,-0.2650,0.0367,-0.0532,-0.0343,-2.6381,1.4567,-3.1067
2024-10-11T12:11:03.864Z,-0.0135,-1.0603,0.1846,-0.0725,0.2867,-0.2650,0.0266,-0.0487,-0.0356,-2.6381,1.4567,-3.1067
2024-10-11T12:11:03.874Z,-0.0246,-1.0696,0.2079,0.0890,0.6244,-0.6469,0.0117,-0.0514,-0.0364,-2.6289,1.4558,-3.1176
2024-10-11T12:11:03.884Z,-0.0200,-1.0765,0.2493,0.0890,0.6244,-0.6469,-0.0033,-0.0523,-0.0387,-2.6289,1.4558,-3.1176
2024-10-11T12:11:03.894Z,-0.0214,-1.0852,0.2529,0.0890,0.6244,-0.6469,-0.0185,-0.0535,-0.0382,-2.6289,1.4558,-3.1176
2024-10-11T12:11:03.905Z,-0.0133,-1.0956,0.2538,0.1892,0.8872,-1.3686,-0.0364,-0.0528,-0.0383,-2.6194,1.4561,-3.1289
2024-10-11T12:11:03.914Z,-0.0141,-1.1030,0.2572,0.1892,0.8872,-1.3686,-0.0531,-0.0534,-0.0370,-2.6194,1.4561,-3.1289
2024-10-11T12:11:03.924Z,-0.0289,-1.1074,0.2457,0.1892,0.8872,-1.3686,-0.0686,-0.0455,-0.0393,-2.6194,1.4561,-3.1289
2024-10-11T12:11:03.934Z,-0.0291,-1.0965,0.2296,0.2557,1.1205,-1.3419,-0.0841,-0.0505,-0.0417,-2.6094,1.4579,-3.1405
2024-10-11T12:11:03.944Z,-0.0285,-1.0903,0.2163,0.2557,1.1205,-1.3419,-0.0970,-0.0426,-0.0429,-2.6094,1.4579,-3.1405
2024-10-11T12:11:03.957Z,-0.0081,-1.0836,0.2016,0.1361,0.8966,-0.9346,-0.1070,-0.0493,-0.0417,-2.5985,1.4608,3.1301
2024-10-11T12:11:03.964Z,-0.0208,-1.0745,0.1832,0.1361,0.8966,-0.9346,-0.1127,-0.0482,-0.0399,-2.5985,1.4608,3.1301
2024-10-11T12:11:03.974Z,-0.0327,-1.0629,0.1525,0.1361,0.8966,-0.9346,-0.1191,-0.0443,-0.0378,-2.5985,1.4608,3.1301
2024-10-11T12:11:03.984Z,-0.0121,-1.0436,0.1215,0.1361,0.8966,-0.9346,-0.1250,-0.0365,-0.0376,-2.5985,1.4608,3.1301
2024-10-11T12:11:03.994Z,-0.0097,-1.0215,0.1028,0.1957,0.5351,-0.2230,-0.1240,-0.0348,-0.0347,-2.5879,1.4644,3.1181
2024-10-11T12:11:04.005Z,-0.0152,-1.0005,0.0673,0.1957,0.5351,-0.2230,-0.1186,-0.0301,-0.0343,-2.5879,1.4644,3.1181
2024-10-11T12:11:04.013Z,0.0026,-0.9803,0.0247,0.1957,0.5351,-0.2230,-0.1130,-0.0258,-0.0292,-2.5879,1.4644,3.1181
2024-10-11T12:11:04.025Z,0.0077,-0.9606,-0.0029,0.0613,-0.0888,0.6439,-0.0873,-0.0144,-0.0258,-2.5782,1.4677,3.1074
2024-10-11T12:11:04.033Z,-0.0019,-0.9474,-0.0103,0.0613,-0.0888,0.6439,-0.0873,-0.0144,-0.0258,-2.5782,1.4677,3.1074
2024-10-11T12:11:04.045Z,0.0161,-0.9383,-0.0348,0.0613,-0.0888,0.6439,-0.0773,-0.0022,-0.0216,-2.5782,1.4677,3.1074
2024-10-11T12:11:04.055Z,0.0431,-0.9268,-0.0340,-0.0434,-0.5358,1.2614,-0.0614,0.0033,-0.0117,-2.5709,1.4702,3.0997
2024-10-11T12:11:04.064Z,0.0400,-0.9297,-0.0261,-0.0434,-0.5358,1.2614,-0.0494,0.0137,-0.0056,-2.5709,1.4702,3.0997
2024-10-11T12:11:04.074Z,0.0337,-0.9377,-0.0238,-0.0434,-0.5358,1.2614,-0.0354,0.0186,-0.0018,-2.5709,1.4702,3.0997
2024-10-11T12:11:04.084Z,0.0210,-0.9381,-0.0181,-0.3168,-0.5734,1.2043,-0.0221,0.0232,0.0037,-2.5694,1.4714,3.0983
2024-10-11T12:11:04.094Z,0.0230,-0.9373,-0.0208,-0.3168,-0.5734,1.2043,-0.0081,0.0265,0.0040,-2.5694,1.4714,3.0983
2024-10-11T12:11:04.104Z,0.0280,-0.9330,-0.0199,-0.3168,-0.5734,1.2043,0.0029,0.0271,0.0059,-2.5694,1.4714,3.0983
2024-10-11T12:11:04.115Z,0.0181,-0.9326,-0.0200,-0.2254,-0.6077,1.1732,0.0284,0.0277,0.0142,-2.5718,1.4715,3.1012
2024-10-11T12:11:04.124Z,0.0113,-0.9316,-0.0291,-0.2254,-0.6077,1.1732,0.0284,0.0277,0.0142,-2.5718,1.4715,3.1012
2024-10-11T12:11:04.135Z,0.0111,-0.9319,-0.0281,-0.2254,-0.6077,1.1732,0.0509,0.0311,0.0166,-2.5718,1.4715,3.1012
2024-10-11T12:11:04.144Z,0.0121,-0.9308,-0.0009,-0.0732,-0.6120,1.3138,0.0509,0.0311,0.0166,-2.5770,1.4704,3.1070
2024-10-11T12:11:04.155Z,0.0114,-0.9279,0.0363,-0.0732,-0.6120,1.3138,0.0623,0.0308,0.0211,-2.5770,1.4704,3.1070
2024-10-11T12:11:04.164Z,0.0147,-0.9333,0.0437,-0.0732,-0.6120,1.3138,0.0623,0.0308,0.0211,-2.5770,1.4704,3.1070
2024-10-11T12:11:04.173Z,0.0188,-0.9393,0.0690,-0.0922,-0.6208,0.5767,0.0596,0.0345,0.0252,-2.5843,1.4687,3.1149
2024-10-11T12:11:04.185Z,0.0100,-0.9411,0.1002,-0.0922,-0.6208,0.5767,0.0572,0.0328,0.0282,-2.5843,1.4687,3.1149
2024-10-11T12:11:04.195Z,0.0058,-0.9547,0.1048,-0.0922,-0.6208,0.5767,0.0596,0.0313,0.0303,-2.5843,1.4687,3.1149
2024-10-11T12:11:04.205Z,0.0121,-0.9624,0.0987,-0.0420,-0.4274,-0.0172,0.0539,0.0303,0.0299,-2.5926,1.4670,3.1239
2024-10-11T12:11:04.214Z,0.0167,-0.9651,0.1056,-0.0420,-0.4274,-0.0172,0.0539,0.0303,0.0299,-2.5926,1.4670,3.1239
2024-10-11T12:11:04.223Z,0.0196,-0.9642,0.1169,-0.0420,-0.4274,-0.0172,0.0504,0.0287,0.0337,-2.5926,1.4670,3.1239
2024-10-11T12:11:04.235Z,0.0253,-0.9652,0.1365,-0.1703,-0.2859,-0.0711,0.0481,0.0350,0.0404,-2.6023,1.4653,3.1342
2024-10-11T12:11:04.245Z,0.0258,-0.9651,0.1412,-0.1703,-0.2859,-0.0711,0.0436,0.0386,0.0441,-2.6023,1.4653,3.1342
2024-10-11T12:11:04.254Z,0.0318,-0.9629,0.1516,-0.1703,-0.2859,-0.0711,0.0436,0.0386,0.0441,-2.6023,1.4653,3.1342
2024-10-11T12:11:04.264Z,0.0376,-0.9600,0.1688,-0.2889,-0.3042,-0.4144,0.0392,0.0468,0.0464,-2.6147,1.4639,-3.1358
2024-10-11T12:11:04.273Z,0.0320,-0.9589,0.1628,-0.2889,-0.3042,-0.4144,0.0323,0.0479,0.0541,-2.6147,1.4639,-3.1358
2024-10-11T12:11:04.285Z,0.0182,-0.9635,0.1548,-0.2889,-0.3042,-0.4144,0.0272,0.0452,0.0525,-2.6147,1.4639,-3.1358
2024-10-11T12:11:04.295Z,0.0081,-0.9598,0.1532,-0.2454,-0.3144,-0.4758,0.0240,0.0392,0.0533,-2.6292,1.4629,-3.1203
2024-10-11T12:11:04.305Z,0.0088,-0.9465,0.1648,-0.2454,-0.3144,-0.4758,0.0184,0.0416,0.0517,-2.6292,1.4629,-3.1203
2024-10-11T12:11:04.315Z,0.0157,-0.9380,0.1384,-0.2454,-0.3144,-0.4758,0.0182,0.0388,0.0525,-2.6292,1.4629,-3.1203
2024-10-11T12:11:04.323Z,0.0209,-0.9389,0.1253,-0.1644,-0.5388,-0.3573,0.0182,0.0388,0.0525,-2.6439,1.4622,-3.1047
2024-10-11T12:11:04.334Z,0.0079,-0.9351,0.1303,-0.1644,-0.5388,-0.3573,0.0158,0.0390,0.0508,-2.6439,1.4622,-3.1047
2024-10-11T12:11:04.345Z,0.0056,-0.9353,0.1390,-0.1644,-0.5388,-0.3573,0.0028,0.0350,0.0492,-2.6439,1.4622,-3.1047
2024-10-11T12:11:04.354Z,0.0005,-0.9435,0.1465,-0.1257,-0.5780,-0.2885,0.0028,0.0350,0.0492,-2.6580,1.4618,-3.0898
2024-10-11T12:11:04.365Z,0.0180,-0.9625,0.1314,-0.1257,-0.5780,-0.2885,-0.0054,0.0313,0.0526,-2.6580,1.4618,-3.0898
2024-10-11T12:11:04.373Z,0.0075,-0.9789,0.1077,-0.1257,-0.5780,-0.2885,-0.0054,0.0313,0.0526,-2.6580,1.4618,-3.0898
2024-10-11T12:11:04.385Z,0.0007,-0.9949,0.0999,-0.2003,-0.1906,-0.0256,-0.0126,0.0144,0.0501,-2.6721,1.4618,-3.0751
2024-10-11T12:11:04.395Z,-0.0037,-1.0089,0.0987,-0.2003,-0.1906,-0.0256,-0.0193,0.0019,0.0480,-2.6721,1.4618,-3.0751
2024-10-11T12:11:04.405Z,-0.0130,-1.0281,0.1011,-0.2003,-0.1906,-0.0256,-0.0225,-0.0162,0.0487,-2.6721,1.4618,-3.0751
2024-10-11T12:11:04.415Z,-0.0035,-1.0353,0.1323,0.0429,0.2949,0.0987,-0.0314,-0.0268,0.0455,-2.6860,1.4621,-3.0614
2024-10-11T12:11:04.424Z,-0.0155,-1.0368,0.1655,0.0429,0.2949,0.0987,-0.0314,-0.0268,0.0455,-2.6860,1.4621,-3.0614
2024-10-11T12:11:04.434Z,-0.0169,-1.0462,0.1857,0.0429,0.2949,0.0987,-0.0532,-0.0457,0.0437,-2.6860,1.4621,-3.0614
2024-10-11T12:11:04.444Z,-0.0142,-1.0571,0.1899,0.0850,0.4797,-0.7568,-0.0609,-0.0513,0.0416,-2.6997,1.4631,-3.0489
2024-10-11T12:11:04.454Z,-0.0205,-1.0601,0.1949,0.0850,0.4797,-0.7568,-0.0658,-0.0606,0.0396,-2.6997,1.4631,-3.0489
2024-10-11T12:11:04.465Z,-0.0196,-1.0565,0.1950,0.1116,0.6101,-0.8839,-0.0658,-0.0606,0.0396,-2.7130,1.4648,-3.0377
2024-10-11T12:11:04.474Z,-0.0106,-1.0519,0.1894,0.1116,0.6101,-0.8839,-0.0694,-0.0759,0.0417,-2.7130,1.4648,-3.0377
2024-10-11T12:11:04.484Z,-0.0172,-1.0526,0.1845,0.1116,0.6101,-0.8839,-0.0766,-0.0952,0.0415,-2.7130,1.4648,-3.0377
2024-10-11T12:11:04.494Z,-0.0227,-1.0505,0.1664,0.1116,0.6101,-0.8839,-0.0773,-0.1029,0.0413,-2.7130,1.4648,-3.0377
2024-10-11T12:11:04.505Z,-0.0254,-1.0315,0.1526,0.1039,0.5704,-0.6516,-0.0763,-0.1098,0.0422,-2.7272,1.4669,-3.0265
2024-10-11T12:11:04.514Z,-0.0345,-1.0175,0.1390,0.1039,0.5704,-0.6516,-0.0786,-0.1067,0.0355,-2.7272,1.4669,-3.0265
2024-10-11T12:11:04.525Z,-0.0450,-1.0074,0.1161,0.1039,0.5704,-0.6516,-0.0755,-0.1099,0.0351,-2.7272,1.4669,-3.0265
2024-10-11T12:11:04.534Z,-0.0441,-1.0019,0.0908,0.2988,0.1404,-0.2092,-0.0716,-0.1057,0.0327,-2.7411,1.4690,-3.0162
2024-10-11T12:11:04.544Z,-0.0349,-0.9996,0.0761,0.2988,0.1404,-0.2092,-0.0654,-0.1095,0.0328,-2.7411,1.4690,-3.0162
2024-10-11T12:11:04.555Z,-0.0215,-1.0072,0.0633,0.2988,0.1404,-0.2092,-0.0608,-0.1045,0.0334,-2.7411,1.4690,-3.0162
2024-10-11T12:11:04.564Z,-0.0173,-1.0136,0.0334,0.1039,0.0889,0.2959,-0.0545,-0.1019,0.0356,-2.7536,1.4709,-3.0072
2024-10-11T12:11:04.575Z,-0.0285,-1.0145,0.0152,0.1039,0.0889,0.2959,-0.0458,-0.0986,0.0316,-2.7536,1.4709,-3.0072
2024-10-11T12:11:04.584Z,-0.0403,-1.0154,-0.0014,0.1039,0.0889,0.2959,-0.0364,-0.0956,0.0315,-2.7536,1.4709,-3.0072
2024-10-11T12:11:04.594Z,-0.0346,-1.0194,-0.0033,0.2349,0.1965,0.9330,-0.0314,-0.0937,0.0291,-2.7659,1.4722,-2.9982
2024-10-11T12:11:04.604Z,-0.0315,-1.0184,0.0199,0.2349,0.1965,0.9330,-0.0256,-0.0988,0.0285,-2.7659,1.4722,-2.9982
2024-10-11T12:11:04.615Z,-0.0285,-1.0205,0.0529,0.1382,0.2480,0.4966,-0.0238,-0.0992,0.0266,-2.7764,1.4729,-2.9909
2024-10-11T12:11:04.625Z,-0.0425,-1.0190,0.0863,0.1382,0.2480,0.4966,-0.0255,-0.1043,0.0224,-2.7764,1.4729,-2.9909
2024-10-11T12:11:04.634Z,-0.0517,-1.0180,0.1002,0.1382,0.2480,0.4966,-0.0337,-0.0976,0.0203,-2.7764,1.4729,-2.9909
2024-10-11T12:11:04.645Z,-0.0663,-1.0251,0.1162,0.5065,0.2717,-0.1661,-0.0338,-0.0985,0.0161,-2.7846,1.4737,-2.9859
2024-10-11T12:11:04.654Z,-0.0440,-1.0276,0.1238,0.5065,0.2717,-0.1661,-0.0345,-0.0939,0.0130,-2.7846,1.4737,-2.9859
2024-10-11T12:11:04.664Z,-0.0459,-1.0283,0.1247,0.5065,0.2717,-0.1661,-0.0349,-0.0955,0.0084,-2.7846,1.4737,-2.9859
2024-10-11T12:11:04.675Z,-0.0445,-1.0258,0.1301,0.3073,0.3157,-0.3192,-0.0349,-0.0955,0.0084,-2.7898,1.4746,-2.9839
2024-10-11T12:11:04.684Z,-0.0496,-1.0287,0.1304,0.3073,0.3157,-0.3192,-0.0318,-0.0949,0.0013,-2.7898,1.4746,-2.9839
2024-10-11T12:11:04.695Z,-0.0474,-1.0377,0.1296,0.3073,0.3157,-0.3192,-0.0317,-0.0901,-0.0001,-2.7898,1.4746,-2.9839
2024-10-11T12:11:04.704Z,-0.0318,-1.0468,0.1288,0.3073,0.3157,-0.3192,-0.0296,-0.0809,-0.0009,-2.7898,1.4746,-2.9839
2024-10-11T12:11:04.715Z,-0.0248,-1.0597,0.1153,0.1973,0.4823,-0.3507,-0.0252,-0.0815,-0.0056,-2.7920,1.4754,-2.9847
2024-10-11T12:11:04.725Z,-0.0279,-1.0690,0.0956,0.1973,0.4823,-0.3507,-0.0153,-0.0794,-0.0078,-2.7920,1.4754,-2.9847
2024-10-11T12:11:04.735Z,-0.0333,-1.0750,0.0719,0.1753,0.7656,0.1488,-0.0036,-0.0729,-0.0125,-2.7911,1.4760,-2.9883
2024-10-11T12:11:04.744Z,-0.0315,-1.0773,0.0371,0.1753,0.7656,0.1488,0.0132,-0.0707,-0.0138,-2.7911,1.4760,-2.9883
2024-10-11T12:11:04.754Z,-0.0196,-1.0757,0.0124,0.1753,0.7656,0.1488,0.0254,-0.0655,-0.0142,-2.7911,1.4760,-2.9883
2024-10-11T12:11:04.765Z,-0.0172,-1.0671,0.0076,0.0388,0.7365,0.8694,0.0359,-0.0526,-0.0162,-2.7863,1.4755,-2.9952
2024-10-11T12:11:04.776Z,-0.0149,-1.0551,0.0247,0.0388,0.7365,0.8694,0.0432,-0.0454,-0.0135,-2.7863,1.4755,-2.9952
2024-10-11T12:11:04.784Z,0.0041,-1.0390,0.0298,0.0388,0.7365,0.8694,0.0531,-0.0407,-0.0150,-2.7863,1.4755,-2.9952
2024-10-11T12:11:04.794Z,0.0031,-1.0266,0.0354,0.0388,0.7365,0.8694,0.0555,-0.0271,-0.0176,-2.7863,1.4755,-2.9952
2024-10-11T12:11:04.804Z,-0.0048,-1.0111,0.0612,-0.1832,0.3439,0.6290,0.0537,-0.0182,-0.0201,-2.7798,1.4741,-3.0032
2024-10-11T12:11:04.814Z,-0.0003,-1.0005,0.0745,-0.1832,0.3439,0.6290,0.0531,-0.0083,-0.0204,-2.7798,1.4741,-3.0032
2024-10-11T12:11:04.825Z,-0.0097,-0.9876,0.0841,-0.0389,-0.0421,0.1516,0.0531,-0.0083,-0.0204,-2.7720,1.4726,-3.0117
2024-10-11T12:11:04.834Z,-0.0068,-0.9765,0.0850,-0.0389,-0.0421,0.1516,0.0585,0.0089,-0.0257,-2.7720,1.4726,-3.0117
2024-10-11T12:11:04.844Z,-0.0204,-0.9706,0.0757,-0.0389,-0.0421,0.1516,0.0631,0.0169,-0.0322,-2.7720,1.4726,-3.0117
2024-10-11T12:11:04.854Z,-0.0144,-0.9697,0.0615,-0.0389,-0.0421,0.1516,0.0679,0.0246,-0.0369,-2.7720,1.4726,-3.0117
2024-10-11T12:11:04.864Z,-0.0079,-0.9669,0.0494,0.0572,-0.2443,0.3288,0.0728,0.0273,-0.0385,-2.7613,1.4709,-3.0222
2024-10-11T12:11:04.875Z,-0.0064,-0.9667,0.0474,0.0572,-0.2443,0.3288,0.0803,0.0332,-0.0455,-2.7613,1.4709,-3.0222
2024-10-11T12:11:04.885Z,-0.0175,-0.9656,0.0569,0.0468,-0.2918,0.4670,0.0801,0.0357,-0.0480,-2.7469,1.4688,-3.0357
2024-10-11T12:11:04.894Z,-0.0119,-0.9721,0.0686,0.0468,-0.2918,0.4670,0.0798,0.0386,-0.0477,-2.7469,1.4688,-3.0357
2024-10-11T12:11:04.904Z,0.0037,-0.9764,0.0801,0.0468,-0.2918,0.4670,0.0790,0.0337,-0.0476,-2.7469,1.4688,-3.0357
2024-10-11T12:11:04.915Z,0.0042,-0.9800,0.0898,-0.1555,-0.1505,0.1692,0.0727,0.0329,-0.0498,-2.7311,1.4666,-3.0506
2024-10-11T12:11:04.925Z,-0.0038,-0.9846,0.1131,-0.1555,-0.1505,0.1692,0.0659,0.0227,-0.0496,-2.7311,1.4666,-3.0506
2024-10-11T12:11:04.935Z,-0.0039,-0.9913,0.1309,-0.1555,-0.1505,0.1692,0.0575,0.0118,-0.0515,-2.7311,1.4666,-3.0506
2024-10-11T12:11:04.945Z,-0.0099,-0.9952,0.1382,0.0006,0.0067,-0.2960,0.0511,0.0055,-0.0500,-2.7156,1.4648,-3.0658
2024-10-11T12:11:04.954Z,-0.0099,-0.9960,0.1586,0.0006,0.0067,-0.2960,0.0364,0.0002,-0.0455,-2.7156,1.4648,-3.0658
2024-10-11T12:11:04.964Z,0.0054,-0.9992,0.1868,0.0006,0.0067,-0.2960,0.0221,0.0012,-0.0455,-2.7156,1.4648,-3.0658
2024-10-11T12:11:04.976Z,0.0077,-1.0015,0.1966,-0.1440,0.0792,-0.8738,0.0221,0.0012,-0.0455,-2.7023,1.4641,-3.0792
2024-10-11T12:11:04.984Z,0.0078,-0.9943,0.2106,-0.1440,0.0792,-0.8738,-0.0112,0.0115,-0.0407,-2.7023,1.4641,-3.0792
2024-10-11T12:11:04.994Z,-0.0018,-0.9828,0.2365,-0.1440,0.0792,-0.8738,-0.0321,0.0084,-0.0414,-2.7023,1.4641,-3.0792
2024-10-11T12:11:05.005Z,-0.0060,-0.9779,0.2469,-0.0027,-0.1516,-1.3813,-0.0473,0.0057,-0.0404,-2.6915,1.4647,-3.0900
2024-10-11T12:11:05.014Z,-0.0108,-0.9794,0.2413,-0.0027,-0.1516,-1.3813,-0.0610,0.0131,-0.0390,-2.6915,1.4647,-3.0900
2024-10-11T12:11:05.025Z,-0.0102,-0.9790,0.2360,-0.0027,-0.1516,-1.3813,-0.0682,0.0190,-0.0393,-2.6915,1.4647,-3.0900
2024-10-11T12:11:05.035Z,-0.0131,-0.9689,0.2157,0.0706,-0.2239,-1.1541,-0.0781,0.0310,-0.0363,-2.6816,1.4667,-3.0996
2024-10-11T12:11:05.044Z,-0.0083,-0.9605,0.1865,0.0706,-0.2239,-1.1541,-0.0771,0.0324,-0.0396,-2.6816,1.4667,-3.0996
2024-10-11T12:11:05.053Z,-0.0099,-0.9554,0.1586,0.0706,-0.2239,-1.1541,-0.0808,0.0368,-0.0389,-2.6816,1.4667,-3.0996
2024-10-11T12:11:05.064Z,-0.0150,-0.9478,0.1350,0.1021,-0.4423,-0.3731,-0.0773,0.0354,-0.0429,-2.6712,1.4690,-3.1092
2024-10-11T12:11:05.074Z,-0.0138,-0.9358,0.1128,0.1021,-0.4423,-0.3731,-0.0799,0.0382,-0.0454,-2.6712,1.4690,-3.1092
2024-10-11T12:11:05.084Z,-0.0061,-0.9299,0.1012,0.1021,-0.4423,-0.3731,-0.0747,0.0488,-0.0462,-2.6712,1.4690,-3.1092
2024-10-11T12:11:05.094Z,-0.0035,-0.9273,0.0797,0.0036,-0.6673,0.1266,-0.0747,0.0488,-0.0462,-2.6586,1.4713,-3.1206
2024-10-11T12:11:05.104Z,-0.0078,-0.9250,0.0562,0.0036,-0.6673,0.1266,-0.0659,0.0539,-0.0521,-2.6586,1.4713,-3.1206
2024-10-11T12:11:05.114Z,-0.0029,-0.9244,0.0367,0.0036,-0.6673,0.1266,-0.0553,0.0485,-0.0543,-2.6586,1.4713,-3.1206
2024-10-11T12:11:05.127Z,-0.0113,-0.9296,0.0234,0.0929,-0.6624,0.6932,-0.0492,0.0437,-0.0607,-2.6426,1.4731,-3.1352
2024-10-11T12:11:05.134Z,-0.0086,-0.9398,0.0144,0.0929,-0.6624,0.6932,-0.0405,0.0423,-0.0610,-2.6426,1.4731,-3.1352
2024-10-11T12:11:05.144Z,0.0050,-0.9450,0.0286,0.0929,-0.6624,0.6932,-0.0331,0.0415,-0.0601,-2.6426,1.4731,-3.1352
2024-10-11T12:11:05.154Z,0.0157,-0.9415,0.0454,-0.1132,-0.5108,0.5291,-0.0251,0.0388,-0.0566,-2.6245,1.4742,3.1309
2024-10-11T12:11:05.164Z,0.0151,-0.9387,0.0540,-0.1132,-0.5108,0.5291,-0.0227,0.0291,-0.0595,-2.6245,1.4742,3.1309
2024-10-11T12:11:05.174Z,0.0042,-0.9400,0.0583,-0.1132,-0.5108,0.5291,-0.0160,0.0164,-0.0573,-2.6245,1.4742,3.1309
2024-10-11T12:11:05.184Z,0.0076,-0.9447,0.0718,-0.0497,-0.5012,0.2632,-0.0151,0.0089,-0.0555,-2.6066,1.4747,3.1135
2024-10-11T12:11:05.193Z,0.0173,-0.9490,0.0807,-0.0497,-0.5012,0.2632,-0.0120,0.0096,-0.0506,-2.6066,1.4747,3.1135
2024-10-11T12:11:05.204Z,0.0393,-0.9591,0.0831,-0.0497,-0.5012,0.2632,-0.0106,0.0089,-0.0428,-2.6066,1.4747,3.1135
2024-10-11T12:11:05.214Z,0.0400,-0.9701,0.0887,-0.3604,-0.2716,0.0673,-0.0103,0.0170,-0.0427,-2.5920,1.4749,3.0991
2024-10-11T12:11:05.224Z,0.0310,-0.9785,0.0893,-0.3604,-0.2716,0.0673,-0.0100,0.0237,-0.0369,-2.5920,1.4749,3.0991
2024-10-11T12:11:05.234Z,0.0178,-0.9825,0.0846,-0.3604,-0.2716,0.0673,-0.0081,0.0317,-0.0352,-2.5920,1.4749,3.0991
2024-10-11T12:11:05.245Z,0.0227,-0.9866,0.0740,-0.1576,-0.0900,0.1828,-0.0050,0.0385,-0.0315,-2.5811,1.4751,3.0887
2024-10-11T12:11:05.254Z,0.0150,-0.9860,0.0708,-0.1576,-0.0900,0.1828,-0.0050,0.0450,-0.0283,-2.5811,1.4751,3.0887
2024-10-11T12:11:05.264Z,0.0232,-0.9852,0.0721,-0.1576,-0.0900,0.1828,-0.0014,0.0542,-0.0244,-2.5811,1.4751,3.0887
2024-10-11T12:11:05.276Z,0.0228,-0.9821,0.0665,-0.1846,-0.1284,0.2713,0.0020,0.0641,-0.0228,-2.5729,1.4752,3.0819
2024-10-11T12:11:05.284Z,0.0230,-0.9813,0.0606,-0.1846,-0.1284,0.2713,0.0098,0.0717,-0.0166,-2.5729,1.4752,3.0819
2024-10-11T12:11:05.294Z,0.0318,-0.9851,0.0610,-0.1846,-0.1284,0.2713,0.0134,0.0779,-0.0148,-2.5729,1.4752,3.0819
2024-10-11T12:11:05.304Z,0.0383,-0.9886,0.0592,-0.2846,-0.0802,0.3701,0.0181,0.0801,-0.0094,-2.5685,1.4748,3.0794
2024-10-11T12:11:05.314Z,0.0487,-0.9915,0.0611,-0.2846,-0.0802,0.3701,0.0272,0.0798,-0.0050,-2.5685,1.4748,3.0794
2024-10-11T12:11:05.325Z,0.0361,-0.9940,0.0516,-0.2846,-0.0802,0.3701,0.0354,0.0749,-0.0002,-2.5685,1.4748,3.0794
2024-10-11T12:11:05.334Z,0.0421,-0.9968,0.0454,-0.3316,0.0166,0.5067,0.0407,0.0760,0.0056,-2.5687,1.4739,3.0817
2024-10-11T12:11:05.344Z,0.0445,-0.9939,0.0476,-0.3316,0.0166,0.5067,0.0468,0.0706,0.0099,-2.5687,1.4739,3.0817
2024-10-11T12:11:05.354Z,0.0301,-0.9932,0.0586,-0.3316,0.0166,0.5067,0.0552,0.0605,0.0114,-2.5687,1.4739,3.0817
2024-10-11T12:11:05.365Z,0.0267,-0.9925,0.0655,-0.2202,-0.0260,0.3435,0.0587,0.0521,0.0131,-2.5729,1.4723,3.0875
2024-10-11T12:11:05.375Z,0.0246,-0.9938,0.0821,-0.2202,-0.0260,0.3435,0.0607,0.0465,0.0156,-2.5729,1.4723,3.0875
2024-10-11T12:11:05.384Z,0.0259,-0.9951,0.0925,-0.2202,-0.0260,0.3435,0.0705,0.0357,0.0209,-2.5729,1.4723,3.0875
2024-10-11T12:11:05.395Z,0.0218,-1.0006,0.0867,-0.1597,0.0316,0.0997,0.0727,0.0350,0.0197,-2.5794,1.4704,3.0950
2024-10-11T12:11:05.404Z,0.0244,-1.0084,0.0874,-0.1597,0.0316,0.0997,0.0753,0.0291,0.0250,-2.5794,1.4704,3.0950
2024-10-11T12:11:05.414Z,0.0373,-1.0154,0.1001,-0.1597,0.0316,0.0997,0.0734,0.0265,0.0242,-2.5794,1.4704,3.0950
2024-10-11T12:11:05.425Z,0.0202,-1.0295,0.1109,-0.2299,0.2997,-0.0843,0.0725,0.0195,0.0287,-2.5877,1.4682,3.1038
2024-10-11T12:11:05.434Z,0.0160,-1.0467,0.1146,-0.2299,0.2997,-0.0843,0.0753,0.0116,0.0313,-2.5877,1.4682,3.1038
2024-10-11T12:11:05.444Z,0.0305,-1.0562,0.1287,-0.2299,0.2997,-0.0843,0.0725,0.0087,0.0329,-2.5877,1.4682,3.1038
2024-10-11T12:11:05.454Z,0.0214,-1.0653,0.1348,-0.1851,0.6669,-0.3005,0.0676,0.0074,0.0400,-2.5983,1.4660,3.1145
2024-10-11T12:11:05.464Z,0.0216,-1.0741,0.1379,-0.1851,0.6669,-0.3005,0.0623,0.0089,0.0420,-2.5983,1.4660,3.1145
2024-10-11T12:11:05.474Z,0.0220,-1.0764,0.1342,-0.1851,0.6669,-0.3005,0.0606,0.0098,0.0475,-2.5983,1.4660,3.1145
2024-10-11T12:11:05.484Z,0.0120,-1.0804,0.1367,-0.1396,0.8361,-0.2982,0.0577,0.0087,0.0502,-2.6115,1.4642,3.1276
2024-10-11T12:11:05.494Z,0.0093,-1.0799,0.1481,-0.1396,0.8361,-0.2982,0.0505,0.0086,0.0565,-2.6115,1.4642,3.1276
2024-10-11T12:11:05.504Z,0.0064,-1.0734,0.1615,-0.1396,0.8361,-0.2982,0.0466,0.0038,0.0611,-2.6115,1.4642,3.1276
2024-10-11T12:11:05.514Z,0.0117,-1.0608,0.1706,-0.1075,0.6928,-0.6005,0.0388,0.0120,0.0640,-2.6283,1.4627,-3.1389
2024-10-11T12:11:05.524Z,0.0085,-1.0478,0.1691,-0.1075,0.6928,-0.6005,0.0271,0.0233,0.0676,-2.6283,1.4627,-3.1389
2024-10-11T12:11:05.534Z,-0.0079,-1.0331,0.1808,-0.1075,0.6928,-0.6005,0.0182,0.0308,0.0654,-2.6283,1.4627,-3.1389
2024-10-11T12:11:05.544Z,-0.0126,-1.0207,0.1820,0.1040,0.2836,-0.7119,0.0083,0.0420,0.0660,-2.6466,1.4620,-3.1201
2024-10-11T12:11:05.554Z,-0.0066,-1.0139,0.1692,0.1040,0.2836,-0.7119,0.0001,0.0510,0.0628,-2.6466,1.4620,-3.1201
2024-10-11T12:11:05.564Z,-0.0050,-1.0109,0.1710,0.1040,0.2836,-0.7119,-0.0058,0.0574,0.0622,-2.6466,1.4620,-3.1201
2024-10-11T12:11:05.577Z,-0.0157,-1.0082,0.1684,0.0775,0.1443,-0.6158,-0.0117,0.0663,0.0594,-2.6643,1.4620,-3.1011
2024-10-11T12:11:05.584Z,-0.0249,-1.0170,0.1460,0.0775,0.1443,-0.6158,-0.0160,0.0780,0.0585,-2.6643,1.4620,-3.1011
2024-10-11T12:11:05.595Z,-0.0185,-1.0245,0.1242,0.0775,0.1443,-0.6158,-0.0185,0.0866,0.0573,-2.6643,1.4620,-3.1011
2024-10-11T12:11:05.604Z,-0.0282,-1.0271,0.1141,0.1741,0.3160,-0.0662,-0.0239,0.0947,0.0485,-2.6802,1.4624,-3.0831
2024-10-11T12:11:05.614Z,-0.0394,-1.0287,0.1077,0.1741,0.3160,-0.0662,-0.0253,0.0978,0.0453,-2.6802,1.4624,-3.0831
2024-10-11T12:11:05.624Z,-0.0358,-1.0300,0.1067,0.1741,0.3160,-0.0662,-0.0268,0.0972,0.0427,-2.6802,1.4624,-3.0831
2024-10-11T12:11:05.634Z,-0.0399,-1.0274,0.1082,0.3036,0.3377,-0.0068,-0.0309,0.1035,0.0379,-2.6931,1.4630,-3.0675
2024-10-11T12:11:05.644Z,-0.0399,-1.0242,0.1190,0.3036,0.3377,-0.0068,-0.0323,0.1089,0.0356,-2.6931,1.4630,-3.0675
2024-10-11T12:11:05.654Z,-0.0309,-1.0248,0.1211,0.3036,0.3377,-0.0068,-0.0435,0.1147,0.0314,-2.6931,1.4630,-3.0675
2024-10-11T12:11:05.664Z,-0.0348,-1.0247,0.1281,0.2289,0.2977,-0.2192,-0.0473,0.1156,0.0288,-2.7035,1.4641,-3.0541
2024-10-11T12:11:05.675Z,-0.0354,-1.0175,0.1341,0.2289,0.2977,-0.2192,-0.0522,0.1154,0.0234,-2.7035,1.4641,-3.0541
2024-10-11T12:11:05.684Z,-0.0293,-1.0101,0.1281,0.2289,0.2977,-0.2192,-0.0539,0.1156,0.0212,-2.7035,1.4641,-3.0541
2024-10-11T12:11:05.693Z,-0.0209,-1.0020,0.1390,0.1359,0.0820,-0.3042,-0.0539,0.1156,0.0212,-2.7115,1.4655,-3.0429
2024-10-11T12:11:05.703Z,-0.0085,-0.9944,0.1427,0.1359,0.0820,-0.3042,-0.0593,0.1224,0.0183,-2.7115,1.4655,-3.0429
2024-10-11T12:11:05.714Z,-0.0137,-0.9834,0.1477,0.1359,0.0820,-0.3042,-0.0667,0.1249,0.0162,-2.7115,1.4655,-3.0429
2024-10-11T12:11:05.725Z,-0.0132,-0.9668,0.1574,0.0138,-0.2237,-0.5073,-0.0709,0.1285,0.0163,-2.7186,1.4673,-3.0324
2024-10-11T12:11:05.734Z,-0.0129,-0.9549,0.1623,0.0138,-0.2237,-0.5073,-0.0755,0.1251,0.0180,-2.7186,1.4673,-3.0324
2024-10-11T12:11:05.744Z,0.0090,-0.9551,0.1551,0.0138,-0.2237,-0.5073,-0.0741,0.1188,0.0233,-2.7186,1.4673,-3.0324
2024-10-11T12:11:05.754Z,0.0074,-0.9604,0.1519,-0.2318,-0.3514,-0.5110,-0.0716,0.1136,0.0215,-2.7271,1.4694,-3.0206
2024-10-11T12:11:05.764Z,-0.0096,-0.9720,0.1465,-0.2318,-0.3514,-0.5110,-0.0667,0.1132,0.0174,-2.7271,1.4694,-3.0206
2024-10-11T12:11:05.775Z,-0.0228,-0.9873,0.1298,-0.2318,-0.3514,-0.5110,-0.0644,0.1102,0.0169,-2.7271,1.4694,-3.0206
2024-10-11T12:11:05.784Z,-0.0232,-1.0076,0.1062,0.1232,0.0895,-0.1022,-0.0647,0.1076,0.0086,-2.7349,1.4713,-3.0097
2024-10-11T12:11:05.794Z,-0.0209,-1.0151,0.0934,0.1232,0.0895,-0.1022,-0.0603,0.1026,0.0058,-2.7349,1.4713,-3.0097
2024-10-11T12:11:05.804Z,-0.0242,-1.0190,0.0820,0.1232,0.0895,-0.1022,-0.0571,0.0913,0.0045,-2.7349,1.4713,-3.0097
2024-10-11T12:11:05.815Z,-0.0137,-1.0197,0.0642,0.0019,0.2560,0.2933,-0.0509,0.0812,-0.0026,-2.7386,1.4729,-3.0035
2024-10-11T12:11:05.826Z,-0.0253,-1.0181,0.0541,0.0019,0.2560,0.2933,-0.0425,0.0691,-0.0100,-2.7386,1.4729,-3.0035
2024-10-11T12:11:05.834Z,-0.0153,-1.0077,0.0337,0.0019,0.2560,0.2933,-0.0379,0.0677,-0.0142,-2.7386,1.4729,-3.0035
2024-10-11T12:11:05.844Z,-0.0159,-0.9886,0.0194,0.0108,-0.0228,0.7216,-0.0275,0.0631,-0.0161,-2.7373,1.4741,-3.0029
2024-10-11T12:11:05.854Z,-0.0105,-0.9745,0.0102,0.0108,-0.0228,0.7216,-0.0191,0.0604,-0.0217,-2.7373,1.4741,-3.0029
2024-10-11T12:11:05.864Z,-0.0061,-0.9567,-0.0036,0.0108,-0.0228,0.7216,-0.0079,0.0490,-0.0282,-2.7373,1.4741,-3.0029
2024-10-11T12:11:05.875Z,-0.0224,-0.9420,-0.0074,0.0534,-0.4793,1.0165,0.0033,0.0389,-0.0329,-2.7306,1.4746,-3.0083
2024-10-11T12:11:05.884Z,-0.0184,-0.9274,-0.0013,0.0534,-0.4793,1.0165,0.0126,0.0314,-0.0346,-2.7306,1.4746,-3.0083
2024-10-11T12:11:05.894Z,-0.0012,-0.9181,0.0055,0.0534,-0.4793,1.0165,0.0209,0.0233,-0.0359,-2.7306,1.4746,-3.0083
2024-10-11T12:11:05.904Z,0.0000,-0.9157,0.0128,-0.1174,-0.7750,0.8366,0.0274,0.0215,-0.0370,-2.7195,1.4742,-3.0186
2024-10-11T12:11:05.914Z,0.0036,-0.9142,0.0320,-0.1174,-0.7750,0.8366,0.0371,0.0164,-0.0365,-2.7195,1.4742,-3.0186
2024-10-11T12:11:05.925Z,0.0163,-0.9155,0.0409,-0.1174,-0.7750,0.8366,0.0413,0.0142,-0.0369,-2.7195,1.4742,-3.0186
2024-10-11T12:11:05.934Z,0.0096,-0.9233,0.0364,-0.2179,-0.7378,0.5716,0.0466,0.0135,-0.0371,-2.7070,1.4732,-3.0309
2024-10-11T12:11:05.944Z,0.0086,-0.9388,0.0356,-0.2179,-0.7378,0.5716,0.0519,0.0211,-0.0405,-2.7070,1.4732,-3.0309
2024-10-11T12:11:05.954Z,-0.0027,-0.9483,0.0459,-0.2179,-0.7378,0.5716,0.0525,0.0209,-0.0399,-2.7070,1.4732,-3.0309
2024-10-11T12:11:05.964Z,-0.0090,-0.9595,0.0618,-0.0069,-0.3697,0.4269,0.0554,0.0281,-0.0425,-2.6938,1.4717,-3.0437
2024-10-11T12:11:05.975Z,-0.0227,-0.9698,0.0831,-0.0069,-0.3697,0.4269,0.0506,0.0321,-0.0462,-2.6938,1.4717,-3.0437
2024-10-11T12:11:05.984Z,-0.0334,-0.9794,0.0984,-0.0069,-0.3697,0.4269,0.0466,0.0308,-0.0518,-2.6938,1.4717,-3.0437
2024-10-11T12:11:05.995Z,-0.0290,-0.9794,0.1083,0.1974,-0.1554,-0.0647,0.0439,0.0356,-0.0563,-2.6778,1.4704,-3.0588
2024-10-11T12:11:06.004Z,-0.0293,-0.9820,0.1124,0.1974,-0.1554,-0.0647,0.0387,0.0357,-0.0558,-2.6778,1.4704,-3.0588
2024-10-11T12:11:06.014Z,-0.0253,-0.9813,0.1095,0.1974,-0.1554,-0.0647,0.0345,0.0384,-0.0588,-2.6778,1.4704,-3.0588
2024-10-11T12:11:06.026Z,-0.0237,-0.9786,0.1132,0.1748,-0.1559,-0.1238,0.0332,0.0424,-0.0561,-2.6603,1.4694,-3.0753
2024-10-11T12:11:06.034Z,-0.0212,-0.9702,0.1003,0.1748,-0.1559,-0.1238,0.0348,0.0462,-0.0596,-2.6603,1.4694,-3.0753
2024-10-11T12:11:06.044Z,-0.0209,-0.9595,0.0772,0.1748,-0.1559,-0.1238,0.0393,0.0486,-0.0621,-2.6603,1.4694,-3.0753
2024-10-11T12:11:06.054Z,-0.0196,-0.9476,0.0512,0.1235,-0.4224,0.4411,0.0464,0.0475,-0.0622,-2.6418,1.4683,-3.0927
2024-10-11T12:11:06.064Z,-0.0343,-0.9393,0.0454,0.1235,-0.4224,0.4411,0.0521,0.0434,-0.0654,-2.6418,1.4683,-3.0927
2024-10-11T12:11:06.075Z,-0.0302,-0.9304,0.0432,0.1235,-0.4224,0.4411,0.0585,0.0434,-0.0690,-2.6418,1.4683,-3.0927
2024-10-11T12:11:06.084Z,-0.0317,-0.9229,0.0361,0.2626,-0.6993,0.6402,0.0608,0.0484,-0.0724,-2.6221,1.4668,-3.1112
2024-10-11T12:11:06.094Z,-0.0280,-0.9176,0.0483,0.2626,-0.6993,0.6402,0.0604,0.0541,-0.0730,-2.6221,1.4668,-3.1112
2024-10-11T12:11:06.104Z,-0.0260,-0.9140,0.0618,0.2626,-0.6993,0.6402,0.0609,0.0535,-0.0771,-2.6221,1.4668,-3.1112
2024-10-11T12:11:06.114Z,-0.0287,-0.9180,0.0707,0.2799,-0.7624,0.3547,0.0617,0.0579,-0.0804,-2.6003,1.4650,-3.1315
2024-10-11T12:11:06.125Z,-0.0215,-0.9254,0.0672,0.2799,-0.7624,0.3547,0.0637,0.0595,-0.0836,-2.6003,1.4650,-3.1315
2024-10-11T12:11:06.134Z,-0.0150,-0.9316,0.0674,0.2799,-0.7624,0.3547,0.0652,0.0618,-0.0838,-2.6003,1.4650,-3.1315
2024-10-11T12:11:06.145Z,-0.0093,-0.9353,0.0712,0.1003,-0.5829,0.3678,0.0653,0.0645,-0.0836,-2.5774,1.4630,3.1305
2024-10-11T12:11:06.154Z,-0.0106,-0.9339,0.0788,0.1003,-0.5829,0.3678,0.0649,0.0717,-0.0849,-2.5774,1.4630,3.1305
2024-10-11T12:11:06.164Z,-0.0129,-0.9320,0.0904,0.1003,-0.5829,0.3678,0.0626,0.0767,-0.0853,-2.5774,1.4630,3.1305
