time,gFx,gFy,gFz,ax,ay,az,wx,wy,wz,yaw,pitch,roll
2024-10-11T11:58:41.956Z,0.0127,-0.9749,0.1150,0.0996,-0.0742,0.2017,0.0098,0.0056,0.0077,-2.6000,1.4460,2.9651
2024-10-11T11:58:41.960Z,0.0065,-0.9844,0.1045,0.0996,-0.0742,0.2017,0.0171,-0.0077,0.0007,-2.6000,1.4460,2.9651
2024-10-11T11:58:41.971Z,0.0026,-0.9839,0.1086,0.0996,-0.0742,0.2017,0.0182,-0.0082,-0.0032,-2.6000,1.4460,2.9651
2024-10-11T11:58:41.981Z,0.0126,-0.9778,0.1145,0.0584,-0.1846,0.0636,0.0175,-0.0051,-0.0059,-2.6000,1.4455,2.9645
2024-10-11T11:58:41.991Z,0.0182,-0.9746,0.1157,0.0584,-0.1846,0.0636,0.0204,-0.0071,-0.0046,-2.6000,1.4455,2.9645
2024-10-11T11:58:42.000Z,0.0275,-0.9840,0.1108,0.0584,-0.1846,0.0636,0.0240,-0.0137,-0.0035,-2.6000,1.4455,2.9645
2024-10-11T11:58:42.010Z,0.0293,-0.9937,0.1114,-0.0075,0.0434,0.0177,0.0267,-0.0118,-0.0062,-2.6002,1.4448,2.9643
2024-10-11T11:58:42.021Z,0.0216,-0.9968,0.1279,-0.0075,0.0434,0.0177,0.0200,-0.0129,-0.0052,-2.6002,1.4448,2.9643
2024-10-11T11:58:42.031Z,0.0262,-0.9944,0.1389,-0.0075,0.0434,0.0177,0.0194,-0.0163,-0.0039,-2.6002,1.4448,2.9643
2024-10-11T11:58:42.041Z,0.0284,-0.9913,0.1386,-0.0972,0.0055,-0.1953,0.0202,-0.0143,-0.0015,-2.6006,1.4443,2.9639
2024-10-11T11:58:42.050Z,0.0350,-0.9944,0.1426,-0.0972,0.0055,-0.1953,0.0124,-0.0169,-0.0033,-2.6006,1.4443,2.9639
2024-10-11T11:58:42.061Z,0.0296,-0.9998,0.1510,-0.0972,0.0055,-0.1953,0.0099,-0.0178,-0.0029,-2.6006,1.4443,2.9639
2024-10-11T11:58:42.071Z,0.0109,-1.0008,0.1484,0.1661,0.0836,-0.2693,0.0086,-0.0239,-0.0072,-2.6004,1.4440,2.9630
2024-10-11T11:58:42.081Z,0.0067,-1.0023,0.1495,0.1661,0.0836,-0.2693,0.0068,-0.0185,-0.0060,-2.6004,1.4440,2.9630
2024-10-11T11:58:42.090Z,0.0199,-1.0040,0.1432,0.1661,0.0836,-0.2693,0.0038,-0.0236,-0.0063,-2.6004,1.4440,2.9630
2024-10-11T11:58:42.100Z,0.0242,-1.0002,0.1449,-0.0173,0.0586,-0.1900,0.0035,-0.0177,-0.0048,-2.5989,1.4438,2.9607
2024-10-11T11:58:42.111Z,0.0276,-0.9942,0.1463,-0.0173,0.0586,-0.1900,-0.0007,-0.0184,-0.0080,-2.5989,1.4438,2.9607
2024-10-11T11:58:42.121Z,0.0252,-0.9954,0.1492,-0.0173,0.0586,-0.1900,-0.0059,-0.0184,-0.0038,-2.5989,1.4438,2.9607
2024-10-11T11:58:42.132Z,0.0312,-1.0002,0.1461,-0.0896,0.0837,-0.1314,-0.0042,-0.0201,-0.0037,-2.5976,1.4439,2.9587
2024-10-11T11:58:42.141Z,0.0316,-0.9973,0.1346,-0.0896,0.0837,-0.1314,-0.0073,-0.0152,-0.0057,-2.5976,1.4439,2.9587
2024-10-11T11:58:42.151Z,0.0328,-0.9974,0.1351,-0.0896,0.0837,-0.1314,-0.0080,-0.0168,-0.0026,-2.5976,1.4439,2.9587
2024-10-11T11:58:42.161Z,0.0316,-0.9951,0.1269,-0.0479,0.0152,0.0037,-0.0120,-0.0070,-0.0003,-2.5973,1.4441,2.9579
2024-10-11T11:58:42.170Z,0.0276,-0.9916,0.1259,-0.0479,0.0152,0.0037,-0.0094,-0.0086,0.0015,-2.5973,1.4441,2.9579
2024-10-11T11:58:42.181Z,0.0300,-0.9886,0.1213,-0.0479,0.0152,0.0037,-0.0116,-0.0059,0.0026,-2.5973,1.4441,2.9579
2024-10-11T11:58:42.190Z,0.0262,-0.9871,0.1203,-0.0376,-0.0783,0.0886,-0.0107,-0.0100,0.0042,-2.5975,1.4444,2.9578
2024-10-11T11:58:42.201Z,0.0298,-0.9794,0.1107,-0.0376,-0.0783,0.0886,-0.0119,-0.0043,0.0053,-2.5975,1.4444,2.9578
2024-10-11T11:58:42.211Z,0.0348,-0.9777,0.1076,-0.0376,-0.0783,0.0886,-0.0116,0.0011,0.0061,-2.5975,1.4444,2.9578
2024-10-11T11:58:42.221Z,0.0309,-0.9759,0.1077,-0.0579,-0.1824,0.1625,-0.0070,0.0033,0.0056,-2.5984,1.4446,2.9585
2024-10-11T11:58:42.231Z,0.0282,-0.9713,0.1022,-0.0579,-0.1824,0.1625,-0.0101,0.0013,0.0081,-2.5984,1.4446,2.9585
2024-10-11T11:58:42.241Z,0.0269,-0.9654,0.1114,-0.0579,-0.1824,0.1625,-0.0111,0.0008,0.0039,-2.5984,1.4446,2.9585
2024-10-11T11:58:42.251Z,0.0114,-0.9642,0.1109,0.1614,-0.2663,0.1254,-0.0110,0.0035,0.0027,-2.5992,1.4450,2.9592
2024-10-11T11:58:42.261Z,0.0058,-0.9671,0.1107,0.1614,-0.2663,0.1254,-0.0107,0.0031,0.0006,-2.5992,1.4450,2.9592
2024-10-11T11:58:42.271Z,0.0088,-0.9658,0.1115,0.1614,-0.2663,0.1254,-0.0090,-0.0067,0.0001,-2.5992,1.4450,2.9592
2024-10-11T11:58:42.283Z,0.0100,-0.9638,0.1096,0.0979,-0.3021,0.1525,-0.0053,-0.0051,-0.0018,-2.5988,1.4452,2.9585
2024-10-11T11:58:42.290Z,0.0143,-0.9586,0.1118,0.0979,-0.3021,0.1525,-0.0069,-0.0049,-0.0039,-2.5988,1.4452,2.9585
2024-10-11T11:58:42.301Z,0.0092,-0.9645,0.1246,0.0979,-0.3021,0.1525,-0.0047,-0.0005,-0.0055,-2.5988,1.4452,2.9585
2024-10-11T11:58:42.311Z,0.0171,-0.9891,0.1219,0.0153,0.0472,0.0291,-0.0033,-0.0007,-0.0061,-2.5976,1.4453,2.9570
2024-10-11T11:58:42.320Z,0.0210,-1.0018,0.1176,0.0153,0.0472,0.0291,-0.0048,-0.0005,-0.0027,-2.5976,1.4453,2.9570
2024-10-11T11:58:42.331Z,0.0188,-0.9954,0.1093,0.0153,0.0472,0.0291,-0.0009,-0.0039,-0.0061,-2.5976,1.4453,2.9570
2024-10-11T11:58:42.341Z,0.0073,-0.9890,0.1242,0.1803,-0.0377,-0.0358,-0.0054,-0.0044,-0.0076,-2.5965,1.4455,2.9556
2024-10-11T11:58:42.351Z,0.0088,-0.9882,0.1283,0.1803,-0.0377,-0.0358,-0.0091,-0.0032,-0.0077,-2.5965,1.4455,2.9556
2024-10-11T11:58:42.360Z,0.0197,-0.9914,0.1158,0.1803,-0.0377,-0.0358,-0.0126,-0.0017,-0.0100,-2.5965,1.4455,2.9556
2024-10-11T11:58:42.370Z,0.0078,-0.9840,0.1145,0.1753,-0.0800,0.0647,-0.0147,-0.0011,-0.0108,-2.5940,1.4458,2.9529
2024-10-11T11:58:42.381Z,0.0047,-0.9833,0.1203,0.1753,-0.0800,0.0647,-0.0181,-0.0042,-0.0141,-2.5940,1.4458,2.9529
2024-10-11T11:58:42.390Z,-0.0024,-0.9830,0.1191,0.1753,-0.0800,0.0647,-0.0200,-0.0078,-0.0135,-2.5940,1.4458,2.9529
2024-10-11T11:58:42.401Z,0.0271,-0.9862,0.1209,-0.1294,-0.0830,-0.0302,-0.0225,-0.0092,-0.0158,-2.5898,1.4463,2.9483
2024-10-11T11:58:42.411Z,0.0292,-0.9821,0.1257,-0.1294,-0.0830,-0.0302,-0.0229,-0.0076,-0.0150,-2.5898,1.4463,2.9483
2024-10-11T11:58:42.421Z,0.0126,-0.9929,0.1362,-0.1294,-0.0830,-0.0302,-0.0235,-0.0091,-0.0167,-2.5898,1.4463,2.9483
2024-10-11T11:58:42.431Z,0.0300,-1.0051,0.1352,-0.1614,0.2111,-0.0766,-0.0242,-0.0060,-0.0141,-2.5858,1.4469,2.9439
2024-10-11T11:58:42.441Z,0.0471,-1.0161,0.1233,-0.1614,0.2111,-0.0766,-0.0288,-0.0041,-0.0085,-2.5858,1.4469,2.9439
2024-10-11T11:58:42.450Z,0.0475,-0.9962,0.1381,-0.1614,0.2111,-0.0766,-0.0321,-0.0004,-0.0057,-2.5858,1.4469,2.9439
2024-10-11T11:58:42.461Z,0.0504,-0.9725,0.1578,-0.2081,-0.1503,-0.3772,-0.0334,0.0020,0.0012,-2.5840,1.4478,2.9419
2024-10-11T11:58:42.470Z,0.0395,-0.9852,0.1443,-0.2081,-0.1503,-0.3772,-0.0291,0.0044,0.0007,-2.5840,1.4478,2.9419
2024-10-11T11:58:42.481Z,0.0495,-0.9935,0.1152,-0.2081,-0.1503,-0.3772,-0.0240,0.0029,0.0014,-2.5840,1.4478,2.9419
2024-10-11T11:58:42.491Z,0.0386,-0.9892,0.1142,-0.0787,-0.0546,0.0404,-0.0191,0.0033,0.0033,-2.5838,1.4485,2.9417
2024-10-11T11:58:42.501Z,0.0345,-0.9869,0.1098,-0.0787,-0.0546,0.0404,-0.0090,0.0034,0.0060,-2.5838,1.4485,2.9417
2024-10-11T11:58:42.511Z,0.0382,-0.9942,0.0952,-0.0787,-0.0546,0.0404,0.0008,0.0049,0.0060,-2.5838,1.4485,2.9417
2024-10-11T11:58:42.522Z,0.0282,-1.0004,0.0874,-0.0187,0.0944,0.3094,0.0071,-0.0032,0.0059,-2.5851,1.4485,2.9428
2024-10-11T11:58:42.533Z,0.0198,-1.0034,0.0956,-0.0187,0.0944,0.3094,0.0173,-0.0115,0.0048,-2.5851,1.4485,2.9428
2024-10-11T11:58:42.541Z,0.0134,-1.0075,0.1076,-0.0187,0.0944,0.3094,0.0193,-0.0117,0.0059,-2.5851,1.4485,2.9428
2024-10-11T11:58:42.551Z,0.0243,-1.0146,0.1196,-0.0510,0.2415,0.0540,0.0258,-0.0175,0.0046,-2.5871,1.4478,2.9441
2024-10-11T11:58:42.561Z,0.0306,-1.0218,0.1081,-0.0510,0.2415,0.0540,0.0306,-0.0201,0.0072,-2.5871,1.4478,2.9441
2024-10-11T11:58:42.571Z,0.0350,-1.0206,0.1140,-0.0510,0.2415,0.0540,0.0297,-0.0189,0.0085,-2.5871,1.4478,2.9441
2024-10-11T11:58:42.582Z,0.0393,-1.0110,0.1303,-0.1521,0.1891,-0.1497,0.0298,-0.0131,0.0122,-2.5909,1.4469,2.9472
2024-10-11T11:58:42.591Z,0.0399,-1.0174,0.1384,-0.1521,0.1891,-0.1497,0.0365,-0.0153,0.0141,-2.5909,1.4469,2.9472
2024-10-11T11:58:42.601Z,0.0401,-1.0276,0.1228,-0.1521,0.1891,-0.1497,0.0337,-0.0094,0.0154,-2.5909,1.4469,2.9472
2024-10-11T11:58:42.611Z,0.0345,-1.0181,0.1296,-0.0953,0.1721,-0.1317,0.0384,-0.0086,0.0171,-2.5966,1.4460,2.9523
2024-10-11T11:58:42.621Z,0.0302,-1.0069,0.1375,-0.0953,0.1721,-0.1317,0.0396,-0.0041,0.0172,-2.5966,1.4460,2.9523
2024-10-11T11:58:42.632Z,0.0142,-1.0065,0.1321,-0.0953,0.1721,-0.1317,0.0409,-0.0055,0.0141,-2.5966,1.4460,2.9523
2024-10-11T11:58:42.641Z,-0.0035,-1.0069,0.1439,0.3158,0.1523,-0.2754,0.0413,-0.0087,0.0100,-2.6013,1.4449,2.9565
2024-10-11T11:58:42.651Z,-0.0081,-1.0074,0.1553,0.3158,0.1523,-0.2754,0.0410,-0.0154,0.0068,-2.6013,1.4449,2.9565
2024-10-11T11:58:42.661Z,0.0019,-1.0012,0.1637,0.3158,0.1523,-0.2754,0.0429,-0.0181,0.0055,-2.6013,1.4449,2.9565
2024-10-11T11:58:42.671Z,0.0067,-0.9971,0.1648,0.1250,0.0371,-0.3605,0.0385,-0.0161,0.0039,-2.6041,1.4438,2.9587
2024-10-11T11:58:42.682Z,0.0146,-0.9961,0.1566,0.1250,0.0371,-0.3605,0.0393,-0.0142,0.0009,-2.6041,1.4438,2.9587
2024-10-11T11:58:42.690Z,0.0082,-0.9989,0.1475,0.1250,0.0371,-0.3605,0.0413,-0.0060,0.0023,-2.6041,1.4438,2.9587
2024-10-11T11:58:42.700Z,0.0069,-0.9995,0.1588,0.0669,0.0464,-0.3620,0.0371,-0.0018,0.0027,-2.6064,1.4426,2.9604
2024-10-11T11:58:42.710Z,0.0246,-0.9941,0.1642,0.0669,0.0464,-0.3620,0.0340,-0.0024,0.0027,-2.6064,1.4426,2.9604
2024-10-11T11:58:42.721Z,0.0324,-1.0002,0.1703,0.0669,0.0464,-0.3620,0.0321,0.0042,0.0048,-2.6064,1.4426,2.9604
2024-10-11T11:58:42.732Z,0.0336,-1.0060,0.1829,-0.0927,0.1326,-0.6193,0.0312,0.0075,0.0074,-2.6097,1.4416,2.9636
2024-10-11T11:58:42.741Z,0.0288,-1.0059,0.1939,-0.0927,0.1326,-0.6193,0.0231,0.0150,0.0076,-2.6097,1.4416,2.9636
2024-10-11T11:58:42.751Z,0.0147,-1.0122,0.1918,-0.0927,0.1326,-0.6193,0.0214,0.0144,0.0088,-2.6097,1.4416,2.9636
2024-10-11T11:58:42.761Z,0.0066,-1.0122,0.1941,0.1315,0.2086,-0.6957,0.0181,0.0145,0.0062,-2.6125,1.4410,2.9664
2024-10-11T11:58:42.770Z,0.0141,-1.0142,0.1962,0.1315,0.2086,-0.6957,0.0118,0.0133,0.0069,-2.6125,1.4410,2.9664
2024-10-11T11:58:42.782Z,0.0148,-1.0174,0.1852,0.1315,0.2086,-0.6957,0.0099,0.0186,0.0034,-2.6125,1.4410,2.9664
2024-10-11T11:58:42.791Z,0.0037,-1.0194,0.1821,0.1573,0.2875,-0.4705,0.0041,0.0218,0.0035,-2.6141,1.4407,2.9683
2024-10-11T11:58:42.801Z,0.0133,-1.0229,0.1663,0.1573,0.2875,-0.4705,0.0061,0.0246,0.0041,-2.6141,1.4407,2.9683
2024-10-11T11:58:42.811Z,0.0244,-1.0233,0.1460,0.1573,0.2875,-0.4705,0.0021,0.0267,0.0047,-2.6141,1.4407,2.9683
2024-10-11T11:58:42.821Z,0.0272,-1.0297,0.1470,-0.0480,0.3756,-0.2209,0.0006,0.0298,0.0076,-2.6156,1.4406,2.9704
2024-10-11T11:58:42.832Z,0.0230,-1.0284,0.1490,-0.0480,0.3756,-0.2209,-0.0024,0.0264,0.0052,-2.6156,1.4406,2.9704
2024-10-11T11:58:42.841Z,0.0149,-1.0337,0.1452,-0.0480,0.3756,-0.2209,-0.0026,0.0304,0.0052,-2.6156,1.4406,2.9704
2024-10-11T11:58:42.851Z,0.0209,-1.0356,0.1344,0.0136,0.3671,-0.0321,-0.0020,0.0275,0.0029,-2.6170,1.4406,2.9725
2024-10-11T11:58:42.861Z,0.0164,-1.0193,0.1283,0.0136,0.3671,-0.0321,-0.0041,0.0315,0.0017,-2.6170,1.4406,2.9725
2024-10-11T11:58:42.871Z,0.0207,-1.0050,0.1283,0.0136,0.3671,-0.0321,-0.0028,0.0332,0.0035,-2.6170,1.4406,2.9725
2024-10-11T11:58:42.882Z,0.0250,-0.9950,0.1326,-0.0122,0.0274,-0.0692,-0.0035,0.0370,0.0023,-2.6181,1.4406,2.9743
2024-10-11T11:58:42.890Z,0.0212,-0.9978,0.1360,-0.0122,0.0274,-0.0692,-0.0017,0.0392,0.0040,-2.6181,1.4406,2.9743
2024-10-11T11:58:42.901Z,0.0289,-1.0015,0.1348,-0.0122,0.0274,-0.0692,-0.0009,0.0328,0.0034,-2.6181,1.4406,2.9743
2024-10-11T11:58:42.911Z,0.0455,-1.0025,0.1341,-0.1636,0.1696,-0.0814,-0.0004,0.0278,0.0034,-2.6190,1.4406,2.9760
2024-10-11T11:58:42.920Z,0.0304,-1.0116,0.1348,-0.1636,0.1696,-0.0814,0.0019,0.0272,0.0034,-2.6190,1.4406,2.9760
2024-10-11T11:58:42.931Z,0.0414,-1.0093,0.1367,-0.1636,0.1696,-0.0814,0.0026,0.0180,0.0052,-2.6190,1.4406,2.9760
2024-10-11T11:58:42.941Z,0.0317,-1.0066,0.1369,-0.0323,0.1685,-0.0868,-0.0006,0.0164,0.0034,-2.6202,1.4405,2.9774
2024-10-11T11:58:42.952Z,0.0258,-1.0103,0.1320,-0.0323,0.1685,-0.0868,0.0047,0.0065,0.0032,-2.6202,1.4405,2.9774
2024-10-11T11:58:42.961Z,0.0355,-1.0067,0.1196,-0.0323,0.1685,-0.0868,0.0049,0.0024,0.0009,-2.6202,1.4405,2.9774
2024-10-11T11:58:42.971Z,0.0303,-0.9968,0.1193,-0.1055,-0.0423,0.0705,0.0079,-0.0011,0.0031,-2.6211,1.4404,2.9780
2024-10-11T11:58:42.981Z,0.0337,-0.9754,0.1291,-0.1055,-0.0423,0.0705,0.0023,-0.0028,0.0037,-2.6211,1.4404,2.9780
2024-10-11T11:58:42.991Z,0.0293,-0.9599,0.1343,-0.1055,-0.0423,0.0705,0.0022,-0.0046,0.0020,-2.6211,1.4404,2.9780
2024-10-11T11:58:43.001Z,0.0256,-0.9671,0.1295,-0.0152,-0.2026,-0.0085,0.0012,-0.0075,0.0029,-2.6216,1.4402,2.9780
2024-10-11T11:58:43.010Z,0.0221,-0.9737,0.1336,-0.0152,-0.2026,-0.0085,-0.0022,-0.0101,0.0014,-2.6216,1.4402,2.9780
2024-10-11T11:58:43.021Z,0.0302,-0.9752,0.1462,-0.0152,-0.2026,-0.0085,-0.0016,-0.0124,0.0027,-2.6216,1.4402,2.9780
2024-10-11T11:58:43.031Z,0.0196,-0.9738,0.1512,-0.0140,-0.1559,-0.1749,-0.0043,-0.0101,0.0029,-2.6220,1.4402,2.9778
2024-10-11T11:58:43.041Z,0.0315,-0.9790,0.1438,-0.0140,-0.1559,-0.1749,-0.0039,-0.0104,0.0037,-2.6220,1.4402,2.9778
2024-10-11T11:58:43.050Z,0.0286,-0.9811,0.1244,-0.0140,-0.1559,-0.1749,-0.0050,-0.0097,0.0064,-2.6220,1.4402,2.9778
2024-10-11T11:58:43.061Z,0.0159,-0.9787,0.1234,0.0844,-0.1432,0.0670,-0.0073,-0.0088,0.0056,-2.6228,1.4404,2.9780
2024-10-11T11:58:43.070Z,0.0139,-0.9753,0.1232,0.0844,-0.1432,0.0670,-0.0040,-0.0092,0.0051,-2.6228,1.4404,2.9780
2024-10-11T11:58:43.081Z,0.0222,-0.9824,0.1209,0.0844,-0.1432,0.0670,-0.0053,-0.0118,0.0048,-2.6228,1.4404,2.9780
2024-10-11T11:58:43.091Z,0.0161,-0.9786,0.1209,0.1332,-0.1497,0.0582,-0.0078,-0.0136,0.0038,-2.6238,1.4406,2.9784
2024-10-11T11:58:43.100Z,0.0023,-0.9720,0.1240,0.1332,-0.1497,0.0582,-0.0088,-0.0071,0.0004,-2.6238,1.4406,2.9784
2024-10-11T11:58:43.111Z,0.0069,-0.9659,0.1365,0.1332,-0.1497,0.0582,-0.0109,-0.0078,0.0005,-2.6238,1.4406,2.9784
2024-10-11T11:58:43.121Z,0.0145,-0.9757,0.1358,0.0039,-0.0701,-0.0398,-0.0144,-0.0080,-0.0013,-2.6237,1.4408,2.9778
2024-10-11T11:58:43.131Z,0.0224,-0.9892,0.1259,0.0039,-0.0701,-0.0398,-0.0162,-0.0057,0.0023,-2.6237,1.4408,2.9778
2024-10-11T11:58:43.141Z,0.0177,-0.9847,0.1259,0.0039,-0.0701,-0.0398,-0.0180,0.0040,0.0046,-2.6237,1.4408,2.9778
2024-10-11T11:58:43.151Z,0.0209,-0.9782,0.1310,0.0258,-0.1225,-0.0350,-0.0236,0.0040,0.0044,-2.6239,1.4414,2.9776
2024-10-11T11:58:43.161Z,0.0143,-0.9855,0.1239,0.0258,-0.1225,-0.0350,-0.0240,0.0053,0.0027,-2.6239,1.4414,2.9776
2024-10-11T11:58:43.171Z,0.0188,-0.9988,0.1297,0.0258,-0.1225,-0.0350,-0.0273,0.0060,0.0047,-2.6239,1.4414,2.9776
2024-10-11T11:58:43.182Z,0.0147,-0.9886,0.1291,0.0902,-0.0981,-0.0529,-0.0324,0.0067,0.0037,-2.6244,1.4422,2.9779
2024-10-11T11:58:43.191Z,0.0105,-0.9799,0.1247,0.0902,-0.0981,-0.0529,-0.0320,0.0089,0.0041,-2.6244,1.4422,2.9779
2024-10-11T11:58:43.200Z,0.0075,-0.9782,0.1138,0.0902,-0.0981,-0.0529,-0.0337,0.0104,0.0044,-2.6244,1.4422,2.9779
2024-10-11T11:58:43.211Z,0.0068,-0.9830,0.1115,0.1470,-0.0960,0.1403,-0.0350,0.0055,0.0034,-2.6242,1.4432,2.9777
2024-10-11T11:58:43.221Z,0.0003,-0.9817,0.1093,0.1470,-0.0960,0.1403,-0.0307,0.0037,-0.0008,-2.6242,1.4432,2.9777
2024-10-11T11:58:43.231Z,-0.0069,-0.9829,0.1096,0.1470,-0.0960,0.1403,-0.0320,-0.0034,-0.0027,-2.6242,1.4432,2.9777
2024-10-11T11:58:43.241Z,-0.0048,-0.9819,0.1053,0.2599,-0.0680,0.2595,-0.0323,0.0030,-0.0063,-2.6224,1.4441,2.9757
2024-10-11T11:58:43.250Z,-0.0040,-0.9895,0.0930,0.2599,-0.0680,0.2595,-0.0299,0.0045,-0.0059,-2.6224,1.4441,2.9757
2024-10-11T11:58:43.261Z,0.0079,-0.9923,0.0904,0.2599,-0.0680,0.2595,-0.0305,0.0038,-0.0094,-2.6224,1.4441,2.9757
2024-10-11T11:58:43.271Z,0.0075,-0.9856,0.1003,0.1401,-0.0615,0.2024,-0.0286,0.0066,-0.0098,-2.6197,1.4449,2.9728
2024-10-11T11:58:43.281Z,0.0103,-0.9865,0.1067,0.1401,-0.0615,0.2024,-0.0325,0.0113,-0.0067,-2.6197,1.4449,2.9728
2024-10-11T11:58:43.291Z,0.0253,-0.9893,0.1102,0.1401,-0.0615,0.2024,-0.0336,0.0158,-0.0043,-2.6197,1.4449,2.9728
2024-10-11T11:58:43.300Z,0.0387,-0.9849,0.1194,-0.0989,-0.1126,0.0318,-0.0375,0.0241,-0.0019,-2.6181,1.4460,2.9715
2024-10-11T11:58:43.311Z,0.0200,-0.9782,0.1220,-0.0989,-0.1126,0.0318,-0.0401,0.0313,0.0005,-2.6181,1.4460,2.9715
2024-10-11T11:58:43.321Z,0.0014,-0.9858,0.1128,-0.0989,-0.1126,0.0318,-0.0407,0.0346,-0.0030,-2.6181,1.4460,2.9715
2024-10-11T11:58:43.331Z,-0.0032,-0.9946,0.1070,0.2469,0.0481,0.1812,-0.0395,0.0335,-0.0030,-2.6163,1.4472,2.9705
2024-10-11T11:58:43.341Z,-0.0013,-0.9970,0.1000,0.2469,0.0481,0.1812,-0.0391,0.0360,-0.0061,-2.6163,1.4472,2.9705
2024-10-11T11:58:43.350Z,0.0079,-0.9990,0.1036,0.2469,0.0481,0.1812,-0.0391,0.0360,-0.0061,-2.6163,1.4472,2.9705
2024-10-11T11:58:43.361Z,0.0033,-0.9924,0.1136,0.1914,-0.0228,0.0605,-0.0413,0.0425,-0.0101,-2.6131,1.4484,2.9683
2024-10-11T11:58:43.370Z,-0.0002,-0.9884,0.1117,0.1914,-0.0228,0.0605,-0.0394,0.0485,-0.0120,-2.6131,1.4484,2.9683
2024-10-11T11:58:43.381Z,0.0075,-0.9873,0.0977,0.1914,-0.0228,0.0605,-0.0371,0.0522,-0.0152,-2.6131,1.4484,2.9683
2024-10-11T11:58:43.391Z,0.0185,-0.9825,0.0910,-0.0232,-0.1802,0.2678,-0.0354,0.0556,-0.0123,-2.6089,1.4494,2.9654
2024-10-11T11:58:43.401Z,0.0303,-0.9696,0.0896,-0.0232,-0.1802,0.2678,-0.0341,0.0592,-0.0113,-2.6089,1.4494,2.9654
2024-10-11T11:58:43.411Z,0.0437,-0.9708,0.0893,-0.0232,-0.1802,0.2678,-0.0276,0.0611,-0.0062,-2.6089,1.4494,2.9654
2024-10-11T11:58:43.421Z,0.0434,-0.9808,0.0853,-0.2103,-0.0670,0.3390,-0.0247,0.0614,-0.0054,-2.6070,1.4503,2.9651
2024-10-11T11:58:43.432Z,0.0431,-0.9882,0.0833,-0.2103,-0.0670,0.3390,-0.0114,0.0554,0.0005,-2.6070,1.4503,2.9651
2024-10-11T11:58:43.441Z,0.0448,-0.9848,0.0807,-0.2103,-0.0670,0.3390,-0.0114,0.0554,0.0005,-2.6070,1.4503,2.9651
2024-10-11T11:58:43.451Z,0.0394,-0.9880,0.0771,-0.1292,-0.0726,0.3837,-0.0112,0.0528,0.0014,-2.6065,1.4506,2.9659
2024-10-11T11:58:43.462Z,0.0299,-0.9839,0.0850,-0.1292,-0.0726,0.3837,-0.0033,0.0383,-0.0026,-2.6065,1.4506,2.9659
2024-10-11T11:58:43.471Z,0.0284,-0.9843,0.0855,-0.1292,-0.0726,0.3837,-0.0033,0.0383,-0.0026,-2.6065,1.4506,2.9659
2024-10-11T11:58:43.482Z,0.0358,-0.9803,0.0833,-0.1937,-0.1460,0.3484,0.0073,0.0231,-0.0014,-2.6063,1.4506,2.9665
2024-10-11T11:58:43.492Z,0.0393,-0.9735,0.0806,-0.1937,-0.1460,0.3484,0.0073,0.0188,0.0002,-2.6063,1.4506,2.9665
2024-10-11T11:58:43.501Z,0.0316,-0.9703,0.0825,-0.1937,-0.1460,0.3484,0.0073,0.0188,0.0002,-2.6063,1.4506,2.9665
2024-10-11T11:58:43.510Z,0.0320,-0.9644,0.0786,-0.1330,-0.3047,0.4047,0.0152,0.0146,-0.0022,-2.6062,1.4503,2.9667
2024-10-11T11:58:43.522Z,0.0364,-0.9583,0.0753,-0.1330,-0.3047,0.4047,0.0256,0.0054,-0.0022,-2.6062,1.4503,2.9667
2024-10-11T11:58:43.532Z,0.0354,-0.9601,0.0658,-0.1330,-0.3047,0.4047,0.0322,-0.0049,-0.0040,-2.6062,1.4503,2.9667
2024-10-11T11:58:43.542Z,0.0401,-0.9667,0.0653,-0.1878,-0.2416,0.5217,0.0366,-0.0092,0.0006,-2.6070,1.4496,2.9673
2024-10-11T11:58:43.552Z,0.0376,-0.9680,0.0630,-0.1878,-0.2416,0.5217,0.0407,-0.0083,-0.0004,-2.6070,1.4496,2.9673
2024-10-11T11:58:43.562Z,0.0310,-0.9668,0.0722,-0.1878,-0.2416,0.5217,0.0441,-0.0121,0.0015,-2.6070,1.4496,2.9673
2024-10-11T11:58:43.571Z,0.0311,-0.9668,0.0711,-0.1381,-0.2287,0.4740,0.0518,-0.0123,0.0024,-2.6086,1.4484,2.9683
2024-10-11T11:58:43.582Z,0.0369,-0.9720,0.0732,-0.1381,-0.2287,0.4740,0.0538,-0.0190,0.0029,-2.6086,1.4484,2.9683
2024-10-11T11:58:43.592Z,0.0295,-0.9803,0.0876,-0.1381,-0.2287,0.4740,0.0564,-0.0210,0.0025,-2.6086,1.4484,2.9683
2024-10-11T11:58:43.602Z,0.0288,-0.9907,0.0974,-0.0732,0.0307,0.2115,0.0564,-0.0210,0.0025,-2.6111,1.4469,2.9701
2024-10-11T11:58:43.611Z,0.0283,-0.9996,0.1038,-0.0732,0.0307,0.2115,0.0551,-0.0241,0.0030,-2.6111,1.4469,2.9701
2024-10-11T11:58:43.621Z,0.0252,-0.9985,0.1022,-0.0732,0.0307,0.2115,0.0578,-0.0216,0.0045,-2.6111,1.4469,2.9701
2024-10-11T11:58:43.631Z,0.0205,-1.0007,0.1014,0.0072,0.0864,0.1742,0.0573,-0.0204,0.0023,-2.6141,1.4454,2.9723
2024-10-11T11:58:43.642Z,0.0178,-1.0036,0.1149,0.0072,0.0864,0.1742,0.0577,-0.0121,0.0100,-2.6141,1.4454,2.9723
2024-10-11T11:58:43.651Z,0.0218,-1.0087,0.1193,0.0072,0.0864,0.1742,0.0591,-0.0088,0.0088,-2.6141,1.4454,2.9723
2024-10-11T11:58:43.661Z,0.0284,-1.0113,0.1116,-0.0102,0.1595,0.0999,0.0587,-0.0038,0.0074,-2.6179,1.4438,2.9755
2024-10-11T11:58:43.671Z,0.0133,-1.0060,0.1180,-0.0102,0.1595,0.0999,0.0570,-0.0025,0.0079,-2.6179,1.4438,2.9755
2024-10-11T11:58:43.681Z,0.0043,-1.0040,0.1227,-0.0102,0.1595,0.0999,0.0560,-0.0003,0.0068,-2.6179,1.4438,2.9755
2024-10-11T11:58:43.691Z,0.0030,-1.0065,0.1349,0.1716,0.1816,-0.1024,0.0535,0.0045,0.0057,-2.6220,1.4422,2.9793
2024-10-11T11:58:43.702Z,0.0042,-1.0123,0.1362,0.1716,0.1816,-0.1024,0.0499,0.0139,0.0093,-2.6220,1.4422,2.9793
2024-10-11T11:58:43.711Z,0.0117,-1.0116,0.1400,0.1716,0.1816,-0.1024,0.0506,0.0194,0.0101,-2.6220,1.4422,2.9793
2024-10-11T11:58:43.720Z,0.0115,-1.0067,0.1460,0.1327,0.1633,-0.1905,0.0506,0.0194,0.0101,-2.6256,1.4407,2.9831
2024-10-11T11:58:43.731Z,0.0036,-1.0111,0.1456,0.1327,0.1633,-0.1905,0.0395,0.0231,0.0062,-2.6256,1.4407,2.9831
2024-10-11T11:58:43.741Z,0.0088,-1.0103,0.1464,0.1327,0.1633,-0.1905,0.0385,0.0278,0.0087,-2.6256,1.4407,2.9831
2024-10-11T11:58:43.752Z,0.0094,-1.0058,0.1504,0.0917,0.1503,-0.1633,0.0346,0.0296,0.0066,-2.6287,1.4395,2.9868
2024-10-11T11:58:43.761Z,0.0139,-1.0054,0.1382,0.0917,0.1503,-0.1633,0.0339,0.0313,0.0059,-2.6287,1.4395,2.9868
2024-10-11T11:58:43.770Z,0.0109,-1.0016,0.1385,0.0917,0.1503,-0.1633,0.0339,0.0313,0.0059,-2.6287,1.4395,2.9868
2024-10-11T11:58:43.781Z,0.0013,-0.9977,0.1303,0.1696,0.0193,-0.0325,0.0300,0.0329,0.0026,-2.6313,1.4385,2.9901
2024-10-11T11:58:43.791Z,0.0027,-0.9884,0.1414,0.1696,0.0193,-0.0325,0.0258,0.0333,-0.0023,-2.6313,1.4385,2.9901
2024-10-11T11:58:43.801Z,-0.0002,-0.9862,0.1508,0.1696,0.0193,-0.0325,0.0258,0.0333,-0.0023,-2.6313,1.4385,2.9901
2024-10-11T11:58:43.811Z,-0.0009,-0.9928,0.1483,0.1563,0.0354,-0.1307,0.0230,0.0407,-0.0018,-2.6323,1.4377,2.9920
2024-10-11T11:58:43.822Z,0.0097,-0.9953,0.1433,0.1563,0.0354,-0.1307,0.0183,0.0475,-0.0025,-2.6323,1.4377,2.9920
2024-10-11T11:58:43.831Z,0.0138,-0.9934,0.1414,0.1563,0.0354,-0.1307,0.0142,0.0540,-0.0037,-2.6323,1.4377,2.9920
2024-10-11T11:58:43.841Z,0.0074,-0.9904,0.1531,0.1423,0.0140,-0.2178,0.0109,0.0569,-0.0022,-2.6324,1.4372,2.9935
2024-10-11T11:58:43.851Z,0.0043,-0.9975,0.1538,0.1423,0.0140,-0.2178,0.0109,0.0569,-0.0022,-2.6324,1.4372,2.9935
2024-10-11T11:58:43.862Z,0.0212,-1.0083,0.1450,0.1423,0.0140,-0.2178,0.0068,0.0526,-0.0010,-2.6324,1.4372,2.9935
2024-10-11T11:58:43.871Z,0.0212,-1.0083,0.1450,-0.0206,0.1446,-0.1476,0.0041,0.0504,-0.0004,-2.6325,1.4370,2.9950
2024-10-11T11:58:43.882Z,0.0141,-1.0060,0.1390,-0.0206,0.1446,-0.1476,-0.0006,0.0497,0.0006,-2.6325,1.4370,2.9950
2024-10-11T11:58:43.891Z,0.0141,-1.0060,0.1390,-0.0206,0.1446,-0.1476,-0.0012,0.0503,0.0005,-2.6325,1.4370,2.9950
2024-10-11T11:58:43.901Z,0.0100,-1.0067,0.1376,0.0532,0.1578,0.0331,-0.0012,0.0503,0.0005,-2.6328,1.4369,2.9965
2024-10-11T11:58:43.911Z,0.0184,-1.0065,0.1244,0.0532,0.1578,0.0331,-0.0037,0.0514,0.0014,-2.6328,1.4369,2.9965
2024-10-11T11:58:43.921Z,0.0128,-1.0011,0.1263,0.0532,0.1578,0.0331,-0.0074,0.0469,-0.0018,-2.6328,1.4369,2.9965
2024-10-11T11:58:43.931Z,0.0023,-1.0005,0.1374,0.2001,0.0881,-0.0942,-0.0101,0.0458,-0.0066,-2.6325,1.4371,2.9975
2024-10-11T11:58:43.942Z,0.0067,-1.0016,0.1331,0.2001,0.0881,-0.0942,-0.0109,0.0458,-0.0062,-2.6325,1.4371,2.9975
2024-10-11T11:58:43.952Z,0.0067,-1.0016,0.1331,0.2001,0.0881,-0.0942,-0.0127,0.0434,-0.0028,-2.6325,1.4371,2.9975
2024-10-11T11:58:43.961Z,0.0477,-0.9973,0.1348,-0.1204,0.0598,-0.0198,-0.0132,0.0439,-0.0009,-2.6313,1.4373,2.9974
2024-10-11T11:58:43.971Z,0.0477,-0.9973,0.1348,-0.1204,0.0598,-0.0198,-0.0165,0.0463,0.0022,-2.6313,1.4373,2.9974
2024-10-11T11:58:43.981Z,0.0455,-1.0045,0.1419,-0.1204,0.0598,-0.0198,-0.0198,0.0500,0.0006,-2.6313,1.4373,2.9974
2024-10-11T11:58:43.991Z,0.0335,-1.0076,0.1429,-0.1762,0.1300,-0.1340,-0.0211,0.0468,0.0020,-2.6311,1.4378,2.9983
2024-10-11T11:58:44.002Z,0.0335,-1.0076,0.1429,-0.1762,0.1300,-0.1340,-0.0270,0.0438,0.0047,-2.6311,1.4378,2.9983
2024-10-11T11:58:44.011Z,0.0362,-1.0121,0.1225,-0.1762,0.1300,-0.1340,-0.0305,0.0420,0.0051,-2.6311,1.4378,2.9983
2024-10-11T11:58:44.021Z,0.0362,-1.0121,0.1225,-0.1123,0.1932,0.0536,-0.0343,0.0359,0.0037,-2.6313,1.4386,2.9996
2024-10-11T11:58:44.032Z,0.0144,-1.0142,0.1179,-0.1123,0.1932,0.0536,-0.0390,0.0348,0.0029,-2.6313,1.4386,2.9996
2024-10-11T11:58:44.041Z,0.0144,-1.0142,0.1179,-0.1123,0.1932,0.0536,-0.0460,0.0327,-0.0015,-2.6313,1.4386,2.9996
2024-10-11T11:58:44.052Z,0.0089,-1.0112,0.1253,0.1158,0.1926,0.0016,-0.0425,0.0289,-0.0011,-2.6302,1.4398,2.9993
2024-10-11T11:58:44.062Z,0.0074,-1.0199,0.1131,0.1158,0.1926,0.0016,-0.0438,0.0232,-0.0036,-2.6302,1.4398,2.9993
2024-10-11T11:58:44.072Z,0.0170,-1.0208,0.1132,0.1158,0.1926,0.0016,-0.0466,0.0220,-0.0073,-2.6302,1.4398,2.9993
2024-10-11T11:58:44.081Z,0.0249,-1.0153,0.1084,-0.0088,0.2755,0.1501,-0.0460,0.0243,-0.0060,-2.6275,1.4411,2.9971
2024-10-11T11:58:44.091Z,0.0249,-1.0153,0.1084,-0.0088,0.2755,0.1501,-0.0475,0.0271,-0.0009,-2.6275,1.4411,2.9971
2024-10-11T11:58:44.101Z,0.0355,-1.0124,0.1033,-0.0088,0.2755,0.1501,-0.0518,0.0304,-0.0010,-2.6275,1.4411,2.9971
2024-10-11T11:58:44.111Z,0.0296,-1.0078,0.1005,-0.1245,0.1820,0.2473,-0.0473,0.0273,-0.0001,-2.6255,1.4425,2.9955
2024-10-11T11:58:44.121Z,0.0296,-1.0078,0.1005,-0.1245,0.1820,0.2473,-0.0544,0.0265,0.0029,-2.6255,1.4425,2.9955
2024-10-11T11:58:44.131Z,0.0134,-1.0037,0.1052,-0.1245,0.1820,0.2473,-0.0554,0.0250,0.0045,-2.6255,1.4425,2.9955
2024-10-11T11:58:44.141Z,0.0141,-0.9940,0.1107,0.0563,0.0793,0.1703,-0.0604,0.0234,0.0038,-2.6248,1.4441,2.9954
2024-10-11T11:58:44.152Z,0.0141,-0.9940,0.1107,0.0563,0.0793,0.1703,-0.0619,0.0245,0.0037,-2.6248,1.4441,2.9954
2024-10-11T11:58:44.161Z,0.0011,-0.9915,0.1312,0.0563,0.0793,0.1703,-0.0661,0.0249,0.0051,-2.6248,1.4441,2.9954
2024-10-11T11:58:44.171Z,0.0046,-0.9879,0.1400,0.1299,-0.0323,-0.1231,-0.0661,0.0249,0.0051,-2.6242,1.4460,2.9952
2024-10-11T11:58:44.181Z,0.0055,-0.9928,0.1354,0.1299,-0.0323,-0.1231,-0.0664,0.0218,0.0061,-2.6242,1.4460,2.9952
2024-10-11T11:58:44.191Z,0.0040,-0.9935,0.1322,0.1299,-0.0323,-0.1231,-0.0689,0.0218,0.0035,-2.6242,1.4460,2.9952
2024-10-11T11:58:44.201Z,0.0040,-0.9935,0.1322,0.1510,-0.0023,-0.1186,-0.0682,0.0188,0.0066,-2.6233,1.4480,2.9947
2024-10-11T11:58:44.211Z,0.0148,-0.9977,0.1369,0.1510,-0.0023,-0.1186,-0.0676,0.0189,0.0045,-2.6233,1.4480,2.9947
2024-10-11T11:58:44.221Z,0.0148,-0.9977,0.1369,0.1510,-0.0023,-0.1186,-0.0702,0.0182,0.0087,-2.6233,1.4480,2.9947
2024-10-11T11:58:44.231Z,0.0141,-1.0146,0.1419,0.0210,0.1932,-0.1437,-0.0685,0.0195,0.0097,-2.6229,1.4500,2.9947
2024-10-11T11:58:44.241Z,0.0141,-1.0146,0.1419,0.0210,0.1932,-0.1437,-0.0655,0.0126,0.0128,-2.6229,1.4500,2.9947
2024-10-11T11:58:44.251Z,0.0169,-1.0116,0.1387,0.0210,0.1932,-0.1437,-0.0709,0.0111,0.0130,-2.6229,1.4500,2.9947
2024-10-11T11:58:44.261Z,0.0163,-1.0127,0.1484,-0.0078,0.2001,-0.2269,-0.0721,0.0139,0.0131,-2.6237,1.4521,2.9955
2024-10-11T11:58:44.272Z,0.0123,-1.0133,0.1508,-0.0078,0.2001,-0.2269,-0.0776,0.0097,0.0130,-2.6237,1.4521,2.9955
2024-10-11T11:58:44.281Z,0.0120,-1.0206,0.1443,-0.0078,0.2001,-0.2269,-0.0766,0.0077,0.0139,-2.6237,1.4521,2.9955
2024-10-11T11:58:44.291Z,0.0109,-1.0240,0.1460,0.0477,0.2985,-0.2922,-0.0803,0.0019,0.0157,-2.6248,1.4543,2.9966
2024-10-11T11:58:44.302Z,0.0109,-1.0240,0.1460,0.0477,0.2985,-0.2922,-0.0838,-0.0006,0.0144,-2.6248,1.4543,2.9966
2024-10-11T11:58:44.311Z,0.0131,-1.0158,0.1439,0.0477,0.2985,-0.2922,-0.0863,-0.0026,0.0126,-2.6248,1.4543,2.9966
2024-10-11T11:58:44.321Z,0.0242,-1.0091,0.1400,-0.0172,0.1738,-0.3313,-0.0860,-0.0099,0.0139,-2.6252,1.4568,2.9967
2024-10-11T11:58:44.331Z,0.0286,-1.0063,0.1355,-0.0172,0.1738,-0.3313,-0.0898,-0.0153,0.0128,-2.6252,1.4568,2.9967
2024-10-11T11:58:44.341Z,0.0267,-0.9992,0.1288,-0.0172,0.1738,-0.3313,-0.0847,-0.0226,0.0110,-2.6252,1.4568,2.9967
2024-10-11T11:58:44.352Z,0.0264,-0.9863,0.1317,-0.1081,-0.0049,-0.2396,-0.0843,-0.0323,0.0115,-2.6257,1.4594,2.9965
2024-10-11T11:58:44.361Z,0.0292,-0.9825,0.1336,-0.1081,-0.0049,-0.2396,-0.0820,-0.0356,0.0109,-2.6257,1.4594,2.9965
2024-10-11T11:58:44.371Z,0.0342,-0.9902,0.1162,-0.1081,-0.0049,-0.2396,-0.0763,-0.0413,0.0089,-2.6257,1.4594,2.9965
2024-10-11T11:58:44.381Z,0.0434,-0.9918,0.1045,-0.2317,-0.0122,-0.0278,-0.0722,-0.0532,0.0147,-2.6261,1.4618,2.9955
2024-10-11T11:58:44.391Z,0.0394,-0.9803,0.1124,-0.2317,-0.0122,-0.0278,-0.0656,-0.0632,0.0149,-2.6261,1.4618,2.9955
2024-10-11T11:58:44.402Z,0.0403,-0.9710,0.1197,-0.2317,-0.0122,-0.0278,-0.0612,-0.0756,0.0158,-2.6261,1.4618,2.9955
2024-10-11T11:58:44.411Z,0.0472,-0.9731,0.1069,-0.2677,-0.2273,-0.0815,-0.0552,-0.0871,0.0168,-2.6277,1.4637,2.9948
2024-10-11T11:58:44.422Z,0.0543,-0.9734,0.1039,-0.2677,-0.2273,-0.0815,-0.0505,-0.0967,0.0191,-2.6277,1.4637,2.9948
2024-10-11T11:58:44.431Z,0.0605,-0.9699,0.1022,-0.2677,-0.2273,-0.0815,-0.0479,-0.1100,0.0199,-2.6277,1.4637,2.9948
2024-10-11T11:58:44.441Z,0.0499,-0.9724,0.0932,-0.4085,-0.2360,0.0716,-0.0458,-0.1269,0.0207,-2.6310,1.4653,2.9948
2024-10-11T11:58:44.452Z,0.0400,-0.9826,0.0834,-0.4085,-0.2360,0.0716,-0.0394,-0.1423,0.0211,-2.6310,1.4653,2.9948
2024-10-11T11:58:44.461Z,0.0483,-0.9850,0.0800,-0.4085,-0.2360,0.0716,-0.0322,-0.1528,0.0247,-2.6310,1.4653,2.9948
2024-10-11T11:58:44.471Z,0.0473,-0.9810,0.0708,-0.3288,-0.1155,0.3008,-0.0319,-0.1651,0.0235,-2.6362,1.4665,2.9954
2024-10-11T11:58:44.481Z,0.0482,-0.9843,0.0665,-0.3288,-0.1155,0.3008,-0.0250,-0.1747,0.0294,-2.6362,1.4665,2.9954
2024-10-11T11:58:44.491Z,0.0561,-0.9926,0.0651,-0.3288,-0.1155,0.3008,-0.0230,-0.1874,0.0354,-2.6362,1.4665,2.9954
2024-10-11T11:58:44.502Z,0.0580,-0.9950,0.0554,-0.4294,0.0100,0.4270,-0.0163,-0.1918,0.0422,-2.6443,1.4673,2.9979
2024-10-11T11:58:44.511Z,0.0462,-0.9842,0.0556,-0.4294,0.0100,0.4270,-0.0111,-0.1961,0.0441,-2.6443,1.4673,2.9979
2024-10-11T11:58:44.521Z,0.0361,-0.9724,0.0503,-0.4294,0.0100,0.4270,-0.0025,-0.1886,0.0490,-2.6443,1.4673,2.9979
2024-10-11T11:58:44.531Z,0.0309,-0.9776,0.0345,-0.1994,-0.2115,0.5748,0.0056,-0.1848,0.0530,-2.6575,1.4677,3.0050
2024-10-11T11:58:44.541Z,0.0226,-0.9814,0.0265,-0.1994,-0.2115,0.5748,0.0147,-0.1770,0.0550,-2.6575,1.4677,3.0050
2024-10-11T11:58:44.552Z,0.0095,-0.9778,0.0383,-0.1994,-0.2115,0.5748,0.0246,-0.1641,0.0578,-2.6575,1.4677,3.0050
2024-10-11T11:58:44.560Z,-0.0107,-0.9745,0.0453,0.1392,-0.1923,0.5963,0.0322,-0.1449,0.0588,-2.6744,1.4674,3.0164
2024-10-11T11:58:44.570Z,-0.0107,-0.9745,0.0453,0.1392,-0.1923,0.5963,0.0374,-0.1248,0.0586,-2.6744,1.4674,3.0164
2024-10-11T11:58:44.581Z,-0.0162,-0.9819,0.0466,0.1392,-0.1923,0.5963,0.0484,-0.1086,0.0603,-2.6744,1.4674,3.0164
2024-10-11T11:58:44.591Z,-0.0396,-0.9736,0.0567,0.3459,-0.1643,0.4871,0.0539,-0.0909,0.0549,-2.6933,1.4663,3.0313
2024-10-11T11:58:44.601Z,-0.0632,-0.9688,0.0607,0.3459,-0.1643,0.4871,0.0621,-0.0704,0.0508,-2.6933,1.4663,3.0313
2024-10-11T11:58:44.611Z,-0.0654,-0.9648,0.0504,0.3459,-0.1643,0.4871,0.0734,-0.0450,0.0472,-2.6933,1.4663,3.0313
2024-10-11T11:58:44.620Z,-0.0654,-0.9648,0.0504,0.7671,-0.3234,0.5354,0.0808,-0.0183,0.0410,-2.7093,1.4645,3.0452
2024-10-11T11:58:44.631Z,-0.0639,-0.9451,0.0439,0.7671,-0.3234,0.5354,0.0961,0.0102,0.0357,-2.7093,1.4645,3.0452
2024-10-11T11:58:44.641Z,-0.0521,-0.9320,0.0501,0.7671,-0.3234,0.5354,0.1018,0.0338,0.0279,-2.7093,1.4645,3.0452
2024-10-11T11:58:44.652Z,-0.0571,-0.9284,0.0460,0.6483,-0.6440,0.5660,0.1116,0.0534,0.0255,-2.7214,1.4617,3.0574
2024-10-11T11:58:44.661Z,-0.0435,-0.9335,0.0316,0.6483,-0.6440,0.5660,0.1201,0.0764,0.0221,-2.7214,1.4617,3.0574
2024-10-11T11:58:44.671Z,-0.0316,-0.9339,0.0320,0.6483,-0.6440,0.5660,0.1262,0.0954,0.0191,-2.7214,1.4617,3.0574
2024-10-11T11:58:44.681Z,-0.0250,-0.9390,0.0427,0.3558,-0.5618,0.6975,0.1355,0.1039,0.0151,-2.7301,1.4581,3.0683
2024-10-11T11:58:44.691Z,-0.0287,-0.9469,0.0524,0.3558,-0.5618,0.6975,0.1402,0.1049,0.0112,-2.7301,1.4581,3.0683
2024-10-11T11:58:44.702Z,-0.0184,-0.9562,0.0521,0.3558,-0.5618,0.6975,0.1447,0.0974,0.0091,-2.7301,1.4581,3.0683
2024-10-11T11:58:44.711Z,-0.0148,-0.9556,0.0505,0.2148,-0.3521,0.6156,0.1466,0.0936,0.0031,-2.7361,1.4539,3.0770
2024-10-11T11:58:44.722Z,-0.0172,-0.9469,0.0595,0.2148,-0.3521,0.6156,0.1495,0.0830,0.0029,-2.7361,1.4539,3.0770
2024-10-11T11:58:44.731Z,-0.0032,-0.9398,0.0697,0.2148,-0.3521,0.6156,0.1479,0.0676,0.0012,-2.7361,1.4539,3.0770
2024-10-11T11:58:44.741Z,0.0063,-0.9402,0.0804,0.0391,-0.5135,0.4338,0.1506,0.0530,0.0021,-2.7392,1.4494,3.0822
2024-10-11T11:58:44.753Z,0.0195,-0.9461,0.0862,0.0391,-0.5135,0.4338,0.1506,0.0394,0.0028,-2.7392,1.4494,3.0822
2024-10-11T11:58:44.760Z,0.0403,-0.9498,0.0958,0.0391,-0.5135,0.4338,0.1497,0.0279,0.0062,-2.7392,1.4494,3.0822
2024-10-11T11:58:44.770Z,0.0462,-0.9536,0.1041,-0.3938,-0.3933,0.2495,0.1497,0.0279,0.0062,-2.7427,1.4450,3.0866
2024-10-11T11:58:44.781Z,0.0475,-0.9573,0.1099,-0.3938,-0.3933,0.2495,0.1471,0.0138,0.0127,-2.7427,1.4450,3.0866
2024-10-11T11:58:44.791Z,0.0547,-0.9568,0.1172,-0.3938,-0.3933,0.2495,0.1483,0.0091,0.0164,-2.7427,1.4450,3.0866
2024-10-11T11:58:44.802Z,0.0596,-0.9539,0.1233,-0.5236,-0.3617,0.1062,0.1534,0.0042,0.0169,-2.7481,1.4405,3.0920
2024-10-11T11:58:44.811Z,0.0529,-0.9543,0.1224,-0.5236,-0.3617,0.1062,0.1530,-0.0004,0.0154,-2.7481,1.4405,3.0920
2024-10-11T11:58:44.821Z,0.0529,-0.9543,0.1224,-0.5236,-0.3617,0.1062,0.1551,-0.0051,0.0178,-2.7481,1.4405,3.0920
2024-10-11T11:58:44.831Z,0.0389,-0.9480,0.1479,-0.3512,-0.3991,-0.0824,0.1579,-0.0148,0.0156,-2.7538,1.4359,3.0973
2024-10-11T11:58:44.841Z,0.0339,-0.9441,0.1503,-0.3512,-0.3991,-0.0824,0.1537,-0.0188,0.0174,-2.7538,1.4359,3.0973
2024-10-11T11:58:44.852Z,0.0333,-0.9439,0.1587,-0.3512,-0.3991,-0.0824,0.1536,-0.0276,0.0168,-2.7538,1.4359,3.0973
2024-10-11T11:58:44.860Z,0.0322,-0.9502,0.1709,-0.2835,-0.4235,-0.2409,0.1513,-0.0376,0.0208,-2.7591,1.4313,3.1018
2024-10-11T11:58:44.871Z,0.0322,-0.9502,0.1709,-0.2835,-0.4235,-0.2409,0.1428,-0.0472,0.0216,-2.7591,1.4313,3.1018
2024-10-11T11:58:44.881Z,0.0274,-0.9563,0.1962,-0.2835,-0.4235,-0.2409,0.1397,-0.0563,0.0234,-2.7591,1.4313,3.1018
2024-10-11T11:58:44.891Z,0.0272,-0.9594,0.2162,-0.2157,-0.3286,-0.6405,0.1311,-0.0605,0.0254,-2.7653,1.4270,3.1061
2024-10-11T11:58:44.901Z,0.0215,-0.9682,0.2060,-0.2157,-0.3286,-0.6405,0.1227,-0.0580,0.0255,-2.7653,1.4270,3.1061
2024-10-11T11:58:44.911Z,0.0227,-0.9731,0.1883,-0.2157,-0.3286,-0.6405,0.1142,-0.0504,0.0239,-2.7653,1.4270,3.1061
2024-10-11T11:58:44.921Z,0.0219,-0.9693,0.1961,-0.1785,-0.1605,-0.4571,0.1038,-0.0455,0.0230,-2.7715,1.4234,3.1104
2024-10-11T11:58:44.931Z,0.0085,-0.9589,0.1981,-0.1785,-0.1605,-0.4571,0.0929,-0.0390,0.0208,-2.7715,1.4234,3.1104
2024-10-11T11:58:44.941Z,0.0056,-0.9549,0.1801,-0.1785,-0.1605,-0.4571,0.0821,-0.0369,0.0190,-2.7715,1.4234,3.1104
2024-10-11T11:58:44.950Z,0.0014,-0.9502,0.1713,0.0144,-0.3689,-0.2798,0.0718,-0.0381,0.0144,-2.7764,1.4207,3.1137
2024-10-11T11:58:44.961Z,-0.0068,-0.9492,0.1575,0.0144,-0.3689,-0.2798,0.0624,-0.0367,0.0109,-2.7764,1.4207,3.1137
2024-10-11T11:58:44.971Z,-0.0119,-0.9459,0.1499,0.0144,-0.3689,-0.2798,0.0541,-0.0378,0.0073,-2.7764,1.4207,3.1137
2024-10-11T11:58:44.981Z,-0.0019,-0.9379,0.1441,0.0999,-0.4496,0.0218,0.0453,-0.0431,0.0054,-2.7791,1.4189,3.1150
2024-10-11T11:58:44.991Z,-0.0006,-0.9358,0.1356,0.0999,-0.4496,0.0218,0.0413,-0.0529,0.0062,-2.7791,1.4189,3.1150
2024-10-11T11:58:45.001Z,-0.0032,-0.9337,0.1385,0.0999,-0.4496,0.0218,0.0322,-0.0562,0.0056,-2.7791,1.4189,3.1150
2024-10-11T11:58:45.011Z,-0.0099,-0.9340,0.1416,0.0951,-0.5434,0.1149,0.0239,-0.0553,0.0012,-2.7807,1.4178,3.1149
2024-10-11T11:58:45.021Z,-0.0073,-0.9370,0.1438,0.0951,-0.5434,0.1149,0.0158,-0.0576,0.0035,-2.7807,1.4178,3.1149
2024-10-11T11:58:45.031Z,-0.0051,-0.9332,0.1375,0.0951,-0.5434,0.1149,0.0097,-0.0554,-0.0017,-2.7807,1.4178,3.1149
2024-10-11T11:58:45.041Z,-0.0151,-0.9272,0.1417,0.1403,-0.5579,0.1383,-0.0002,-0.0499,-0.0017,-2.7810,1.4173,3.1133
2024-10-11T11:58:45.051Z,-0.0156,-0.9182,0.1486,0.1403,-0.5579,0.1383,-0.0023,-0.0441,-0.0036,-2.7810,1.4173,3.1133
2024-10-11T11:58:45.061Z,-0.0205,-0.9231,0.1547,0.1403,-0.5579,0.1383,-0.0100,-0.0361,-0.0045,-2.7810,1.4173,3.1133
2024-10-11T11:58:45.071Z,-0.0239,-0.9306,0.1558,0.2576,-0.5646,0.0061,-0.0109,-0.0315,-0.0054,-2.7807,1.4175,3.1114
2024-10-11T11:58:45.081Z,-0.0258,-0.9292,0.1663,0.2576,-0.5646,0.0061,-0.0142,-0.0222,-0.0061,-2.7807,1.4175,3.1114
2024-10-11T11:58:45.091Z,-0.0292,-0.9277,0.1599,0.2576,-0.5646,0.0061,-0.0147,-0.0159,-0.0033,-2.7807,1.4175,3.1114
2024-10-11T11:58:45.100Z,-0.0195,-0.9319,0.1577,0.3006,-0.5863,-0.0555,-0.0138,-0.0049,-0.0044,-2.7799,1.4179,3.1097
2024-10-11T11:58:45.111Z,-0.0162,-0.9385,0.1596,0.3006,-0.5863,-0.0555,-0.0166,0.0047,-0.0044,-2.7799,1.4179,3.1097
2024-10-11T11:58:45.121Z,-0.0283,-0.9398,0.1629,0.3006,-0.5863,-0.0555,-0.0149,0.0067,-0.0041,-2.7799,1.4179,3.1097
2024-10-11T11:58:45.131Z,-0.0287,-0.9398,0.1673,0.3251,-0.4935,-0.1329,-0.0165,0.0157,-0.0033,-2.7791,1.4183,3.1088
2024-10-11T11:58:45.140Z,-0.0228,-0.9520,0.1613,0.3251,-0.4935,-0.1329,-0.0154,0.0147,-0.0020,-2.7791,1.4183,3.1088
2024-10-11T11:58:45.150Z,-0.0127,-0.9533,0.1540,0.3251,-0.4935,-0.1329,-0.0163,0.0211,-0.0016,-2.7791,1.4183,3.1088
2024-10-11T11:58:45.161Z,-0.0170,-0.9512,0.1555,0.2141,-0.3567,-0.0124,-0.0188,0.0275,-0.0021,-2.7788,1.4188,3.1089
2024-10-11T11:58:45.171Z,-0.0076,-0.9498,0.1563,0.2141,-0.3567,-0.0124,-0.0241,0.0312,-0.0006,-2.7788,1.4188,3.1089
2024-10-11T11:58:45.181Z,-0.0031,-0.9432,0.1494,0.2141,-0.3567,-0.0124,-0.0263,0.0400,0.0045,-2.7788,1.4188,3.1089
2024-10-11T11:58:45.191Z,-0.0037,-0.9460,0.1405,0.1043,-0.4385,0.0664,-0.0292,0.0415,0.0053,-2.7793,1.4194,3.1102
2024-10-11T11:58:45.201Z,0.0031,-0.9415,0.1280,0.1043,-0.4385,0.0664,-0.0297,0.0477,0.0094,-2.7793,1.4194,3.1102
2024-10-11T11:58:45.211Z,-0.0153,-0.9359,0.1234,0.1043,-0.4385,0.0664,-0.0337,0.0504,0.0091,-2.7793,1.4194,3.1102
2024-10-11T11:58:45.220Z,-0.0103,-0.9374,0.1059,0.1985,-0.5187,0.3898,-0.0346,0.0511,0.0105,-2.7812,1.4203,3.1132
2024-10-11T11:58:45.231Z,0.0032,-0.9507,0.0916,0.1985,-0.5187,0.3898,-0.0302,0.0441,0.0130,-2.7812,1.4203,3.1132
2024-10-11T11:58:45.241Z,0.0011,-0.9608,0.0797,0.1985,-0.5187,0.3898,-0.0242,0.0396,0.0177,-2.7812,1.4203,3.1132
2024-10-11T11:58:45.251Z,-0.0098,-0.9708,0.0825,0.0434,-0.2295,0.7165,-0.0199,0.0430,0.0157,-2.7844,1.4211,3.1174
2024-10-11T11:58:45.261Z,-0.0229,-0.9770,0.1065,0.0434,-0.2295,0.7165,-0.0213,0.0451,0.0104,-2.7844,1.4211,3.1174
2024-10-11T11:58:45.271Z,-0.0297,-0.9759,0.1217,0.0434,-0.2295,0.7165,-0.0159,0.0506,0.0043,-2.7844,1.4211,3.1174
2024-10-11T11:58:45.281Z,-0.0302,-0.9768,0.1309,0.3415,-0.1273,0.1838,-0.0181,0.0502,-0.0001,-2.7864,1.4216,3.1205
2024-10-11T11:58:45.291Z,-0.0347,-0.9709,0.1366,0.3415,-0.1273,0.1838,-0.0155,0.0498,-0.0043,-2.7864,1.4216,3.1205
2024-10-11T11:58:45.300Z,-0.0251,-0.9712,0.1436,0.3415,-0.1273,0.1838,-0.0120,0.0432,-0.0080,-2.7864,1.4216,3.1205
2024-10-11T11:58:45.311Z,-0.0120,-0.9679,0.1557,0.1807,-0.1944,-0.0420,-0.0102,0.0414,-0.0107,-2.7856,1.4220,3.1207
2024-10-11T11:58:45.321Z,0.0048,-0.9749,0.1609,0.1807,-0.1944,-0.0420,-0.0138,0.0418,-0.0147,-2.7856,1.4220,3.1207
2024-10-11T11:58:45.331Z,0.0090,-0.9709,0.1631,0.1807,-0.1944,-0.0420,-0.0138,0.0369,-0.0182,-2.7856,1.4220,3.1207
2024-10-11T11:58:45.341Z,0.0201,-0.9709,0.1739,-0.0184,-0.1871,-0.2246,-0.0184,0.0200,-0.0196,-2.7823,1.4225,3.1184
2024-10-11T11:58:45.351Z,0.0333,-0.9689,0.1882,-0.0184,-0.1871,-0.2246,-0.0256,0.0117,-0.0222,-2.7823,1.4225,3.1184
2024-10-11T11:58:45.360Z,0.0441,-0.9747,0.2055,-0.0184,-0.1871,-0.2246,-0.0308,0.0016,-0.0212,-2.7823,1.4225,3.1184
2024-10-11T11:58:45.372Z,0.0397,-0.9800,0.2099,-0.3796,-0.1081,-0.6515,-0.0382,-0.0100,-0.0211,-2.7780,1.4233,3.1142
2024-10-11T11:58:45.381Z,0.0549,-0.9856,0.2074,-0.3796,-0.1081,-0.6515,-0.0431,-0.0226,-0.0232,-2.7780,1.4233,3.1142
2024-10-11T11:58:45.391Z,0.0390,-0.9974,0.2059,-0.3796,-0.1081,-0.6515,-0.0472,-0.0372,-0.0245,-2.7780,1.4233,3.1142
2024-10-11T11:58:45.402Z,0.0466,-1.0004,0.2056,-0.3433,0.1099,-0.5858,-0.0485,-0.0490,-0.0250,-2.7733,1.4245,3.1085
2024-10-11T11:58:45.411Z,0.0545,-1.0089,0.2079,-0.3433,0.1099,-0.5858,-0.0549,-0.0563,-0.0239,-2.7733,1.4245,3.1085
2024-10-11T11:58:45.421Z,0.0466,-1.0070,0.2197,-0.3433,0.1099,-0.5858,-0.0538,-0.0497,-0.0227,-2.7733,1.4245,3.1085
2024-10-11T11:58:45.431Z,0.0331,-1.0145,0.2191,-0.3208,0.1844,-0.7245,-0.0582,-0.0490,-0.0250,-2.7680,1.4260,3.1014
2024-10-11T11:58:45.441Z,0.0443,-1.0216,0.2270,-0.3208,0.1844,-0.7245,-0.0608,-0.0512,-0.0232,-2.7680,1.4260,3.1014
2024-10-11T11:58:45.451Z,0.0423,-1.0210,0.2357,-0.3208,0.1844,-0.7245,-0.0681,-0.0491,-0.0190,-2.7680,1.4260,3.1014
2024-10-11T11:58:45.461Z,0.0478,-1.0175,0.2392,-0.3252,0.3088,-0.9226,-0.0682,-0.0521,-0.0138,-2.7633,1.4278,3.0950
2024-10-11T11:58:45.471Z,0.0562,-1.0198,0.2283,-0.3252,0.3088,-0.9226,-0.0674,-0.0502,-0.0107,-2.7633,1.4278,3.0950
2024-10-11T11:58:45.481Z,0.0335,-1.0360,0.2211,-0.3252,0.3088,-0.9226,-0.0662,-0.0506,-0.0064,-2.7633,1.4278,3.0950
2024-10-11T11:58:45.491Z,0.0202,-1.0341,0.2090,-0.1499,0.4817,-0.7445,-0.0656,-0.0497,-0.0057,-2.7607,1.4298,3.0908
2024-10-11T11:58:45.501Z,0.0171,-1.0264,0.1871,-0.1499,0.4817,-0.7445,-0.0558,-0.0446,-0.0071,-2.7607,1.4298,3.0908
2024-10-11T11:58:45.511Z,-0.0095,-1.0337,0.1820,-0.1499,0.4817,-0.7445,-0.0520,-0.0390,-0.0100,-2.7607,1.4298,3.0908
2024-10-11T11:58:45.521Z,-0.0074,-1.0287,0.1804,0.1801,0.3955,-0.3984,-0.0456,-0.0352,-0.0100,-2.7585,1.4314,3.0871
2024-10-11T11:58:45.531Z,-0.0173,-1.0341,0.1831,0.1801,0.3955,-0.3984,-0.0373,-0.0258,-0.0144,-2.7585,1.4314,3.0871
2024-10-11T11:58:45.541Z,-0.0395,-1.0446,0.1824,0.1801,0.3955,-0.3984,-0.0330,-0.0143,-0.0160,-2.7585,1.4314,3.0871
2024-10-11T11:58:45.551Z,-0.0279,-1.0454,0.1801,0.4038,0.5125,-0.4427,-0.0247,-0.0003,-0.0164,-2.7553,1.4325,3.0829
2024-10-11T11:58:45.561Z,-0.0262,-1.0536,0.1771,0.4038,0.5125,-0.4427,-0.0183,0.0081,-0.0166,-2.7553,1.4325,3.0829
2024-10-11T11:58:45.571Z,-0.0235,-1.0564,0.1758,0.4038,0.5125,-0.4427,-0.0133,0.0127,-0.0180,-2.7553,1.4325,3.0829
2024-10-11T11:58:45.581Z,-0.0195,-1.0507,0.1821,0.2830,0.6116,-0.4047,-0.0046,0.0224,-0.0114,-2.7514,1.4329,3.0791
2024-10-11T11:58:45.591Z,-0.0236,-1.0524,0.1826,0.2830,0.6116,-0.4047,0.0054,0.0331,-0.0100,-2.7514,1.4329,3.0791
2024-10-11T11:58:45.601Z,-0.0161,-1.0600,0.1764,0.2830,0.6116,-0.4047,0.0143,0.0378,-0.0054,-2.7514,1.4329,3.0791
2024-10-11T11:58:45.611Z,-0.0156,-1.0610,0.1723,0.2306,0.6956,-0.3466,0.0235,0.0513,0.0019,-2.7501,1.4327,3.0787
2024-10-11T11:58:45.621Z,-0.0145,-1.0621,0.1708,0.2306,0.6956,-0.3466,0.0347,0.0504,0.0044,-2.7501,1.4327,3.0787
2024-10-11T11:58:45.631Z,0.0013,-1.0624,0.1674,0.2306,0.6956,-0.3466,0.0464,0.0519,0.0098,-2.7501,1.4327,3.0787
2024-10-11T11:58:45.641Z,0.0002,-1.0703,0.1707,0.0638,0.7313,-0.2993,0.0570,0.0595,0.0119,-2.7523,1.4315,3.0821
2024-10-11T11:58:45.651Z,-0.0013,-1.0857,0.1771,0.0638,0.7313,-0.2993,0.0713,0.0701,0.0130,-2.7523,1.4315,3.0821
2024-10-11T11:58:45.661Z,0.0079,-1.1007,0.1726,0.0638,0.7313,-0.2993,0.0825,0.0782,0.0157,-2.7523,1.4315,3.0821
2024-10-11T11:58:45.671Z,0.0141,-1.1096,0.1642,-0.0458,1.1696,-0.2570,0.0883,0.0836,0.0163,-2.7564,1.4294,3.0881
2024-10-11T11:58:45.680Z,0.0254,-1.0817,0.1826,-0.0458,1.1696,-0.2570,0.0886,0.0935,0.0188,-2.7564,1.4294,3.0881
2024-10-11T11:58:45.691Z,0.0242,-1.0688,0.2093,-0.0458,1.1696,-0.2570,0.0893,0.1009,0.0204,-2.7564,1.4294,3.0881
2024-10-11T11:58:45.701Z,0.0366,-1.0661,0.1983,-0.2276,0.7669,-0.6421,0.0915,0.1054,0.0220,-2.7614,1.4267,3.0955
2024-10-11T11:58:45.711Z,0.0405,-1.0723,0.1916,-0.2276,0.7669,-0.6421,0.0934,0.1052,0.0236,-2.7614,1.4267,3.0955
2024-10-11T11:58:45.721Z,0.0389,-1.0794,0.1999,-0.2276,0.7669,-0.6421,0.0961,0.1001,0.0246,-2.7614,1.4267,3.0955
2024-10-11T11:58:45.731Z,0.0309,-1.0802,0.2098,-0.2759,0.8852,-0.5839,0.0986,0.1013,0.0248,-2.7674,1.4239,3.1043
2024-10-11T11:58:45.741Z,0.0385,-1.0811,0.2255,-0.2759,0.8852,-0.5839,0.0957,0.1024,0.0264,-2.7674,1.4239,3.1043
2024-10-11T11:58:45.751Z,0.0274,-1.0845,0.2285,-0.2759,0.8852,-0.5839,0.0991,0.0954,0.0258,-2.7674,1.4239,3.1043
2024-10-11T11:58:45.760Z,0.0241,-1.0934,0.2479,-0.1717,0.9881,-0.8393,0.0946,0.0938,0.0246,-2.7736,1.4210,3.1132
2024-10-11T11:58:45.770Z,0.0355,-1.0948,0.2877,-0.1717,0.9881,-0.8393,0.0889,0.0892,0.0225,-2.7736,1.4210,3.1132
2024-10-11T11:58:45.781Z,0.0414,-1.1109,0.3254,-0.1717,0.9881,-0.8393,0.0823,0.0889,0.0264,-2.7736,1.4210,3.1132
2024-10-11T11:58:45.790Z,0.0288,-1.1229,0.3336,-0.3124,1.2959,-1.7573,0.0674,0.0782,0.0213,-2.7791,1.4183,3.1211
2024-10-11T11:58:45.801Z,0.0193,-1.1187,0.3529,-0.3124,1.2959,-1.7573,0.0542,0.0682,0.0156,-2.7791,1.4183,3.1211
2024-10-11T11:58:45.812Z,0.0035,-1.1098,0.3748,-0.0330,1.1949,-2.1193,0.0400,0.0624,0.0064,-2.7819,1.4167,3.1257
2024-10-11T11:58:45.821Z,0.0147,-1.1158,0.3561,-0.0330,1.1949,-2.1193,0.0298,0.0646,0.0034,-2.7819,1.4167,3.1257
2024-10-11T11:58:45.832Z,0.0356,-1.1302,0.3398,-0.0330,1.1949,-2.1193,0.0201,0.0666,0.0018,-2.7819,1.4167,3.1257
2024-10-11T11:58:45.840Z,0.0267,-1.1270,0.3316,-0.0330,1.1949,-2.1193,0.0147,0.0616,-0.0078,-2.7819,1.4167,3.1257
2024-10-11T11:58:45.851Z,-0.0221,-1.1206,0.3008,-0.0150,1.3202,-1.5843,0.0093,0.0698,-0.0146,-2.7818,1.4161,3.1272
2024-10-11T11:58:45.860Z,-0.0345,-1.1264,0.2855,-0.0150,1.3202,-1.5843,0.0013,0.0782,-0.0171,-2.7818,1.4161,3.1272
2024-10-11T11:58:45.870Z,-0.0159,-1.1272,0.2879,-0.0150,1.3202,-1.5843,-0.0047,0.0922,-0.0223,-2.7818,1.4161,3.1272
2024-10-11T11:58:45.881Z,-0.0134,-1.1120,0.2813,0.1511,1.2789,-1.2878,-0.0125,0.1049,-0.0233,-2.7781,1.4161,3.1260
2024-10-11T11:58:45.890Z,-0.0194,-1.1112,0.2712,0.1511,1.2789,-1.2878,-0.0177,0.1118,-0.0253,-2.7781,1.4161,3.1260
2024-10-11T11:58:45.903Z,-0.0168,-1.1166,0.2699,0.2079,1.3144,-1.1825,-0.0201,0.1122,-0.0295,-2.7729,1.4166,3.1238
2024-10-11T11:58:45.911Z,-0.0244,-1.1322,0.2739,0.2079,1.3144,-1.1825,-0.0255,0.1182,-0.0324,-2.7729,1.4166,3.1238
2024-10-11T11:58:45.921Z,-0.0251,-1.1309,0.2738,0.2079,1.3144,-1.1825,-0.0320,0.1240,-0.0350,-2.7729,1.4166,3.1238
2024-10-11T11:58:45.931Z,-0.0203,-1.1324,0.2779,0.1798,1.4980,-1.2463,-0.0401,0.1357,-0.0362,-2.7658,1.4176,3.1204
2024-10-11T11:58:45.941Z,-0.0087,-1.1527,0.2767,0.1798,1.4980,-1.2463,-0.0477,0.1514,-0.0383,-2.7658,1.4176,3.1204
2024-10-11T11:58:45.951Z,-0.0012,-1.1649,0.2658,0.1798,1.4980,-1.2463,-0.0547,0.1625,-0.0406,-2.7658,1.4176,3.1204
2024-10-11T11:58:45.961Z,0.0032,-1.1727,0.2654,0.0110,1.8554,-1.1247,-0.0600,0.1796,-0.0428,-2.7578,1.4192,3.1175
2024-10-11T11:58:45.971Z,0.0024,-1.1829,0.2590,0.0110,1.8554,-1.1247,-0.0662,0.1950,-0.0429,-2.7578,1.4192,3.1175
2024-10-11T11:58:45.981Z,0.0070,-1.1918,0.2499,0.0110,1.8554,-1.1247,-0.0746,0.2111,-0.0386,-2.7578,1.4192,3.1175
2024-10-11T11:58:45.991Z,0.0178,-1.1997,0.2452,-0.1540,2.0710,-0.9022,-0.0752,0.2224,-0.0371,-2.7501,1.4213,3.1159
2024-10-11T11:58:46.001Z,0.0236,-1.1951,0.2345,-0.1540,2.0710,-0.9022,-0.0769,0.2295,-0.0299,-2.7501,1.4213,3.1159
2024-10-11T11:58:46.011Z,0.0379,-1.1855,0.2333,-0.1540,2.0710,-0.9022,-0.0793,0.2340,-0.0209,-2.7501,1.4213,3.1159
2024-10-11T11:58:46.022Z,0.0356,-1.1790,0.2424,-0.3030,1.7891,-1.0267,-0.0835,0.2439,-0.0133,-2.7457,1.4237,3.1184
2024-10-11T11:58:46.031Z,0.0362,-1.1640,0.2529,-0.3030,1.7891,-1.0267,-0.0849,0.2480,-0.0105,-2.7457,1.4237,3.1184
2024-10-11T11:58:46.041Z,0.0411,-1.1590,0.2508,-0.3030,1.7891,-1.0267,-0.0840,0.2563,-0.0009,-2.7457,1.4237,3.1184
2024-10-11T11:58:46.051Z,0.0431,-1.1476,0.2523,-0.4016,1.5231,-1.0913,-0.0867,0.2682,0.0014,-2.7448,1.4263,3.1249
2024-10-11T11:58:46.062Z,0.0429,-1.1407,0.2542,-0.4016,1.5231,-1.0913,-0.0831,0.2764,0.0010,-2.7448,1.4263,3.1249
2024-10-11T11:58:46.071Z,0.0471,-1.1380,0.2385,-0.4016,1.5231,-1.0913,-0.0854,0.2862,0.0044,-2.7448,1.4263,3.1249
2024-10-11T11:58:46.082Z,0.0552,-1.1456,0.2116,-0.6267,1.4600,-0.5495,-0.0805,0.2774,0.0142,-2.7459,1.4288,3.1343
2024-10-11T11:58:46.091Z,0.0776,-1.1306,0.1890,-0.6267,1.4600,-0.5495,-0.0805,0.2774,0.0142,-2.7459,1.4288,3.1343
2024-10-11T11:58:46.102Z,0.0836,-1.1201,0.1939,-0.6267,1.4600,-0.5495,-0.0787,0.2416,0.0324,-2.7459,1.4288,3.1343
2024-10-11T11:58:46.112Z,0.0849,-1.1022,0.2091,-0.8165,1.0226,-0.7010,-0.0780,0.2275,0.0403,-2.7517,1.4311,-3.1356
2024-10-11T11:58:46.121Z,0.0774,-1.0890,0.2128,-0.8165,1.0226,-0.7010,-0.0780,0.2275,0.0403,-2.7517,1.4311,-3.1356
2024-10-11T11:58:46.132Z,0.0666,-1.0750,0.2147,-0.8165,1.0226,-0.7010,-0.0752,0.2085,0.0365,-2.7517,1.4311,-3.1356
2024-10-11T11:58:46.140Z,0.0568,-1.0683,0.2230,-0.3996,0.7434,-0.9103,-0.0752,0.2085,0.0365,-2.7609,1.4333,-3.1205
2024-10-11T11:58:46.152Z,0.0226,-1.0610,0.2397,-0.3996,0.7434,-0.9103,-0.0601,0.2046,0.0201,-2.7609,1.4333,-3.1205
2024-10-11T11:58:46.161Z,0.0294,-1.0412,0.2296,-0.3996,0.7434,-0.9103,-0.0601,0.2046,0.0201,-2.7609,1.4333,-3.1205
2024-10-11T11:58:46.172Z,0.0379,-1.0403,0.2288,-0.3827,0.4824,-0.8744,-0.0513,0.2152,0.0100,-2.7647,1.4350,-3.1101
2024-10-11T11:58:46.182Z,0.0266,-1.0367,0.2219,-0.3827,0.4824,-0.8744,-0.0282,0.2323,-0.0002,-2.7647,1.4350,-3.1101
2024-10-11T11:58:46.191Z,0.0213,-1.0140,0.1944,-0.3827,0.4824,-0.8744,-0.0282,0.2323,-0.0002,-2.7647,1.4350,-3.1101
2024-10-11T11:58:46.202Z,0.0282,-0.9901,0.1924,-0.2018,-0.1092,-0.5925,-0.0136,0.2519,-0.0127,-2.7643,1.4359,-3.1038
2024-10-11T11:58:46.211Z,0.0058,-0.9679,0.1980,-0.2018,-0.1092,-0.5925,-0.0136,0.2519,-0.0127,-2.7643,1.4359,-3.1038
2024-10-11T11:58:46.221Z,-0.0084,-0.9411,0.1969,-0.2018,-0.1092,-0.5925,-0.0070,0.2586,-0.0189,-2.7643,1.4359,-3.1038
2024-10-11T11:58:46.231Z,-0.0174,-0.9248,0.1800,0.2473,-0.5733,-0.3632,-0.0020,0.3119,-0.0442,-2.7593,1.4361,-3.1009
2024-10-11T11:58:46.241Z,-0.0489,-0.9436,0.1615,0.2473,-0.5733,-0.3632,0.0078,0.3211,-0.0577,-2.7593,1.4361,-3.1009
2024-10-11T11:58:46.252Z,-0.0427,-0.9502,0.1321,0.2473,-0.5733,-0.3632,0.0136,0.3329,-0.0647,-2.7593,1.4361,-3.1009
2024-10-11T11:58:46.260Z,-0.0155,-0.9877,0.1054,0.1518,0.1346,0.4428,0.0136,0.3329,-0.0647,-2.7462,1.4359,-3.1042
2024-10-11T11:58:46.272Z,-0.0383,-1.0128,0.0734,0.1518,0.1346,0.4428,0.0135,0.3383,-0.0742,-2.7462,1.4359,-3.1042
2024-10-11T11:58:46.281Z,-0.0344,-1.0223,0.0663,0.1518,0.1346,0.4428,0.0097,0.3204,-0.0788,-2.7462,1.4359,-3.1042
2024-10-11T11:58:46.292Z,-0.0157,-1.0240,0.0718,0.0997,0.2848,0.5506,-0.0040,0.2975,-0.0784,-2.7290,1.4358,-3.1121
2024-10-11T11:58:46.301Z,-0.0093,-1.0127,0.0768,0.0997,0.2848,0.5506,-0.0212,0.2687,-0.0801,-2.7290,1.4358,-3.1121
2024-10-11T11:58:46.311Z,-0.0024,-0.9930,0.0648,0.0997,0.2848,0.5506,-0.0330,0.2432,-0.0805,-2.7290,1.4358,-3.1121
2024-10-11T11:58:46.324Z,-0.0007,-0.9827,0.0546,-0.0667,-0.1338,0.7110,-0.0431,0.2169,-0.0790,-2.7116,1.4369,-3.1225
2024-10-11T11:58:46.331Z,0.0068,-0.9705,0.0698,-0.0667,-0.1338,0.7110,-0.0481,0.1946,-0.0792,-2.7116,1.4369,-3.1225
2024-10-11T11:58:46.341Z,0.0096,-0.9605,0.0772,-0.0667,-0.1338,0.7110,-0.0485,0.1779,-0.0786,-2.7116,1.4369,-3.1225
2024-10-11T11:58:46.351Z,0.0123,-0.9584,0.0812,-0.1678,-0.3188,0.4910,-0.0456,0.1667,-0.0778,-2.6944,1.4383,-3.1345
2024-10-11T11:58:46.361Z,0.0204,-0.9604,0.0776,-0.1678,-0.3188,0.4910,-0.0412,0.1616,-0.0786,-2.6944,1.4383,-3.1345
2024-10-11T11:58:46.371Z,0.0200,-0.9585,0.0842,-0.1678,-0.3188,0.4910,-0.0370,0.1591,-0.0822,-2.6944,1.4383,-3.1345
2024-10-11T11:58:46.381Z,0.0153,-0.9543,0.0934,-0.1181,-0.3782,0.2938,-0.0338,0.1639,-0.0860,-2.6760,1.4394,3.1349
2024-10-11T11:58:46.390Z,0.0094,-0.9516,0.1048,-0.1181,-0.3782,0.2938,-0.0297,0.1648,-0.0933,-2.6760,1.4394,3.1349
2024-10-11T11:58:46.401Z,-0.0065,-0.9431,0.1161,-0.1181,-0.3782,0.2938,-0.0268,0.1621,-0.1006,-2.6760,1.4394,3.1349
2024-10-11T11:58:46.411Z,-0.0076,-0.9292,0.1217,0.0030,-0.6788,0.0850,-0.0302,0.1555,-0.1066,-2.6530,1.4402,3.1167
2024-10-11T11:58:46.421Z,0.0181,-0.9147,0.1243,0.0030,-0.6788,0.0850,-0.0338,0.1450,-0.1054,-2.6530,1.4402,3.1167
2024-10-11T11:58:46.431Z,0.0444,-0.9093,0.1204,0.0030,-0.6788,0.0850,-0.0400,0.1192,-0.0941,-2.6530,1.4402,3.1167
2024-10-11T11:58:46.441Z,0.0565,-0.9062,0.1135,-0.4162,-0.8621,0.2339,-0.0483,0.0908,-0.0845,-2.6316,1.4413,3.0986
2024-10-11T11:58:46.451Z,0.0352,-0.8994,0.0988,-0.4162,-0.8621,0.2339,-0.0537,0.0652,-0.0804,-2.6316,1.4413,3.0986
2024-10-11T11:58:46.461Z,0.0187,-0.8928,0.1040,-0.4162,-0.8621,0.2339,-0.0590,0.0473,-0.0783,-2.6316,1.4413,3.0986
2024-10-11T11:58:46.473Z,0.0269,-0.8985,0.1031,-0.2731,-0.8480,0.3213,-0.0581,0.0297,-0.0763,-2.6129,1.4429,3.0811
2024-10-11T11:58:46.481Z,0.0410,-0.9119,0.0858,-0.2731,-0.8480,0.3213,-0.0513,0.0055,-0.0772,-2.6129,1.4429,3.0811
2024-10-11T11:58:46.491Z,0.0361,-0.9205,0.0647,-0.2731,-0.8480,0.3213,-0.0338,0.0023,-0.0756,-2.6129,1.4429,3.0811
2024-10-11T11:58:46.501Z,0.0335,-0.9276,0.0443,-0.2403,-0.5814,0.9543,-0.0289,-0.0039,-0.0814,-2.5939,1.4438,3.0624
2024-10-11T11:58:46.511Z,0.0385,-0.9303,0.0174,-0.2403,-0.5814,0.9543,-0.0156,-0.0013,-0.0784,-2.5939,1.4438,3.0624
2024-10-11T11:58:46.521Z,0.0817,-0.9215,-0.0238,-0.2403,-0.5814,0.9543,-0.0033,-0.0254,-0.0715,-2.5939,1.4438,3.0624
2024-10-11T11:58:46.531Z,0.0904,-0.9384,-0.0091,-0.6156,-0.8314,1.2891,0.0122,-0.0437,-0.0646,-2.5774,1.4437,3.0449
2024-10-11T11:58:46.541Z,0.0655,-0.8883,-0.0149,-0.6156,-0.8314,1.2891,0.0195,-0.0512,-0.0538,-2.5774,1.4437,3.0449
2024-10-11T11:58:46.551Z,0.0734,-0.8889,-0.0063,-0.6156,-0.8314,1.2891,0.0298,-0.0622,-0.0508,-2.5774,1.4437,3.0449
2024-10-11T11:58:46.561Z,0.1064,-0.8666,-0.0531,-0.9336,-1.1536,1.7752,0.0368,-0.0889,-0.0429,-2.5684,1.4424,3.0322
2024-10-11T11:58:46.572Z,0.0921,-0.8773,-0.0382,-0.9336,-1.1536,1.7752,0.0423,-0.1208,-0.0315,-2.5684,1.4424,3.0322
2024-10-11T11:58:46.580Z,0.0894,-0.8590,-0.0047,-0.9336,-1.1536,1.7752,0.0441,-0.1552,-0.0242,-2.5684,1.4424,3.0322
2024-10-11T11:58:46.591Z,0.0698,-0.8678,-0.0121,-0.4888,-1.1710,1.4846,0.0532,-0.1723,-0.0191,-2.5647,1.4409,3.0232
2024-10-11T11:58:46.601Z,0.0772,-0.8745,-0.0432,-0.4888,-1.1710,1.4846,0.0606,-0.1912,-0.0168,-2.5647,1.4409,3.0232
2024-10-11T11:58:46.611Z,0.0759,-0.8800,-0.0601,-0.4888,-1.1710,1.4846,0.0677,-0.1949,-0.0158,-2.5647,1.4409,3.0232
2024-10-11T11:58:46.622Z,0.0616,-0.8736,-0.0351,-0.6257,-1.1991,1.4696,0.0726,-0.2077,-0.0159,-2.5631,1.4388,3.0157
2024-10-11T11:58:46.631Z,0.0891,-0.8655,-0.0113,-0.6257,-1.1991,1.4696,0.0794,-0.2147,-0.0096,-2.5631,1.4388,3.0157
2024-10-11T11:58:46.641Z,0.0737,-0.8598,0.0064,-0.6257,-1.1991,1.4696,0.0847,-0.2194,-0.0067,-2.5631,1.4388,3.0157
2024-10-11T11:58:46.651Z,0.0652,-0.8465,0.0090,-0.4210,-1.4645,1.1563,0.0957,-0.2217,-0.0063,-2.5644,1.4361,3.0104
2024-10-11T11:58:46.661Z,0.0524,-0.8397,0.0268,-0.4210,-1.4645,1.1563,0.1077,-0.2169,-0.0073,-2.5644,1.4361,3.0104
2024-10-11T11:58:46.671Z,0.0437,-0.8450,0.0488,-0.4210,-1.4645,1.1563,0.1136,-0.2135,-0.0080,-2.5644,1.4361,3.0104
2024-10-11T11:58:46.681Z,0.0450,-0.8517,0.0621,-0.2336,-1.3089,0.5802,0.1169,-0.2147,-0.0120,-2.5657,1.4327,3.0048
2024-10-11T11:58:46.691Z,0.0429,-0.8611,0.0948,-0.2336,-1.3089,0.5802,0.1176,-0.2228,-0.0108,-2.5657,1.4327,3.0048
2024-10-11T11:58:46.701Z,0.0515,-0.8683,0.1279,-0.2336,-1.3089,0.5802,0.1167,-0.2301,-0.0094,-2.5657,1.4327,3.0048
2024-10-11T11:58:46.711Z,0.0570,-0.8725,0.1445,-0.3613,-1.1327,-0.0968,0.1107,-0.2292,-0.0067,-2.5672,1.4293,2.9991
2024-10-11T11:58:46.723Z,0.0528,-0.8763,0.1566,-0.3613,-1.1327,-0.0968,0.1020,-0.2325,-0.0088,-2.5672,1.4293,2.9991
2024-10-11T11:58:46.731Z,0.0488,-0.8827,0.1694,-0.3613,-1.1327,-0.0968,0.0922,-0.2438,-0.0089,-2.5672,1.4293,2.9991
2024-10-11T11:58:46.741Z,0.0589,-0.8771,0.1705,-0.3314,-1.1453,-0.2005,0.0829,-0.2600,-0.0023,-2.5690,1.4266,2.9932
2024-10-11T11:58:46.751Z,0.0467,-0.8719,0.1546,-0.3314,-1.1453,-0.2005,0.0742,-0.2678,0.0040,-2.5690,1.4266,2.9932
2024-10-11T11:58:46.761Z,0.0401,-0.8819,0.1533,-0.3314,-1.1453,-0.2005,0.0637,-0.2710,0.0080,-2.5690,1.4266,2.9932
2024-10-11T11:58:46.772Z,0.0464,-0.8840,0.1829,-0.2256,-1.0270,-0.4988,0.0551,-0.2717,0.0092,-2.5725,1.4248,2.9883
2024-10-11T11:58:46.780Z,0.0397,-0.8860,0.2011,-0.2256,-1.0270,-0.4988,0.0446,-0.2671,0.0097,-2.5725,1.4248,2.9883
2024-10-11T11:58:46.791Z,0.0344,-0.8888,0.2062,-0.2256,-1.0270,-0.4988,0.0373,-0.2663,0.0113,-2.5725,1.4248,2.9883
2024-10-11T11:58:46.801Z,0.0418,-0.8875,0.2039,-0.1400,-1.0078,-0.6257,0.0280,-0.2626,0.0107,-2.5754,1.4238,2.9832
2024-10-11T11:58:46.811Z,0.0271,-0.8842,0.2146,-0.1400,-1.0078,-0.6257,0.0147,-0.2541,0.0086,-2.5754,1.4238,2.9832
2024-10-11T11:58:46.822Z,0.0073,-0.8878,0.2243,-0.1400,-1.0078,-0.6257,0.0008,-0.2528,0.0076,-2.5754,1.4238,2.9832
2024-10-11T11:58:46.831Z,0.0113,-0.8919,0.2148,0.0870,-0.9814,-0.7445,-0.0139,-0.2583,0.0064,-2.5770,1.4239,2.9769
2024-10-11T11:58:46.841Z,0.0158,-0.8852,0.2225,0.0870,-0.9814,-0.7445,-0.0292,-0.2620,0.0117,-2.5770,1.4239,2.9769
2024-10-11T11:58:46.851Z,0.0148,-0.8724,0.2033,0.0870,-0.9814,-0.7445,-0.0379,-0.2602,0.0135,-2.5770,1.4239,2.9769
2024-10-11T11:58:46.861Z,0.0001,-0.8683,0.1729,0.2201,-1.1906,-0.2308,-0.0459,-0.2516,0.0177,-2.5786,1.4251,2.9705
2024-10-11T11:58:46.872Z,0.0070,-0.8674,0.1680,0.2201,-1.1906,-0.2308,-0.0504,-0.2401,0.0168,-2.5786,1.4251,2.9705
2024-10-11T11:58:46.881Z,0.0013,-0.8698,0.1827,0.2201,-1.1906,-0.2308,-0.0572,-0.2241,0.0167,-2.5786,1.4251,2.9705
2024-10-11T11:58:46.891Z,0.0014,-0.8783,0.1888,0.1988,-1.1096,-0.4215,-0.0560,-0.2171,0.0216,-2.5805,1.4267,2.9656
2024-10-11T11:58:46.901Z,0.0023,-0.8746,0.1833,0.1988,-1.1096,-0.4215,-0.0560,-0.2069,0.0227,-2.5805,1.4267,2.9656
2024-10-11T11:58:46.910Z,-0.0101,-0.8682,0.1891,0.1988,-1.1096,-0.4215,-0.0614,-0.1973,0.0221,-2.5805,1.4267,2.9656
2024-10-11T11:58:46.922Z,-0.0168,-0.8624,0.2174,0.5210,-1.2590,-0.8713,-0.0680,-0.1907,0.0243,-2.5828,1.4286,2.9620
2024-10-11T11:58:46.931Z,-0.0386,-0.8595,0.2345,0.5210,-1.2590,-0.8713,-0.0753,-0.1812,0.0215,-2.5828,1.4286,2.9620
2024-10-11T11:58:46.940Z,-0.0487,-0.8485,0.2085,0.5210,-1.2590,-0.8713,-0.0782,-0.1781,0.0219,-2.5828,1.4286,2.9620
2024-10-11T11:58:46.951Z,-0.0411,-0.8467,0.1874,0.6648,-1.3690,-0.4707,-0.0836,-0.1712,0.0194,-2.5841,1.4310,2.9578
2024-10-11T11:58:46.961Z,-0.0480,-0.8555,0.1942,0.6648,-1.3690,-0.4707,-0.0886,-0.1568,0.0153,-2.5841,1.4310,2.9578
2024-10-11T11:58:46.971Z,-0.0508,-0.8668,0.2038,0.6648,-1.3690,-0.4707,-0.0944,-0.1445,0.0101,-2.5841,1.4310,2.9578
2024-10-11T11:58:46.981Z,-0.0429,-0.8812,0.1929,0.7126,-0.9988,-0.4801,-0.1002,-0.1273,0.0046,-2.5825,1.4339,2.9519
2024-10-11T11:58:46.991Z,-0.0545,-0.8941,0.1749,0.7126,-0.9988,-0.4801,-0.1046,-0.1143,-0.0005,-2.5825,1.4339,2.9519
2024-10-11T11:58:47.001Z,-0.0565,-0.8975,0.1624,0.7126,-0.9988,-0.4801,-0.1049,-0.1015,-0.0011,-2.5825,1.4339,2.9519
2024-10-11T11:58:47.011Z,-0.0362,-0.8878,0.1479,0.5592,-1.0521,-0.1441,-0.1068,-0.0884,-0.0047,-2.5773,1.4369,2.9437
2024-10-11T11:58:47.021Z,-0.0327,-0.8778,0.1407,0.5592,-1.0521,-0.1441,-0.1113,-0.0711,-0.0057,-2.5773,1.4369,2.9437
2024-10-11T11:58:47.031Z,-0.0477,-0.8639,0.1469,0.5592,-1.0521,-0.1441,-0.1180,-0.0523,-0.0110,-2.5773,1.4369,2.9437
2024-10-11T11:58:47.041Z,-0.0453,-0.8520,0.1383,0.6347,-1.3507,-0.0209,-0.1231,-0.0369,-0.0126,-2.5700,1.4403,2.9347
2024-10-11T11:58:47.051Z,-0.0317,-0.8552,0.1154,0.6347,-1.3507,-0.0209,-0.1302,-0.0157,-0.0109,-2.5700,1.4403,2.9347
2024-10-11T11:58:47.061Z,-0.0271,-0.8561,0.1135,0.6347,-1.3507,-0.0209,-0.1372,0.0045,-0.0118,-2.5700,1.4403,2.9347
2024-10-11T11:58:47.071Z,-0.0273,-0.8607,0.1236,0.5619,-1.2017,-0.0478,-0.1476,0.0144,-0.0121,-2.5609,1.4443,2.9254
2024-10-11T11:58:47.081Z,-0.0388,-0.8801,0.1224,0.5619,-1.2017,-0.0478,-0.1544,0.0233,-0.0118,-2.5609,1.4443,2.9254
2024-10-11T11:58:47.091Z,-0.0549,-0.8948,0.1151,0.5619,-1.2017,-0.0478,-0.1615,0.0337,-0.0176,-2.5609,1.4443,2.9254
2024-10-11T11:58:47.101Z,-0.0550,-0.8980,0.1061,0.6883,-0.9317,0.1196,-0.1697,0.0366,-0.0148,-2.5488,1.4490,2.9141
2024-10-11T11:58:47.111Z,-0.0321,-0.8958,0.1105,0.6883,-0.9317,0.1196,-0.1766,0.0363,-0.0150,-2.5488,1.4490,2.9141
2024-10-11T11:58:47.121Z,-0.0237,-0.8865,0.1097,0.6883,-0.9317,0.1196,-0.1828,0.0384,-0.0086,-2.5488,1.4490,2.9141
2024-10-11T11:58:47.131Z,-0.0144,-0.8877,0.0980,0.3966,-1.0670,0.2641,-0.1847,0.0426,-0.0022,-2.5364,1.4542,2.9027
2024-10-11T11:58:47.141Z,-0.0153,-0.8823,0.0840,0.3966,-1.0670,0.2641,-0.1825,0.0503,-0.0020,-2.5364,1.4542,2.9027
2024-10-11T11:58:47.151Z,-0.0253,-0.8764,0.0795,0.3966,-1.0670,0.2641,-0.1843,0.0542,-0.0021,-2.5364,1.4542,2.9027
2024-10-11T11:58:47.161Z,-0.0294,-0.8721,0.0882,0.5440,-1.1913,0.2171,-0.1830,0.0587,-0.0054,-2.5243,1.4594,2.8919
2024-10-11T11:58:47.171Z,-0.0229,-0.8750,0.0858,0.5440,-1.1913,0.2171,-0.1742,0.0572,-0.0078,-2.5243,1.4594,2.8919
2024-10-11T11:58:47.181Z,-0.0200,-0.8777,0.0691,0.5440,-1.1913,0.2171,-0.1682,0.0583,-0.0117,-2.5243,1.4594,2.8919
2024-10-11T11:58:47.191Z,-0.0181,-0.8721,0.0636,0.3354,-1.1897,0.4835,-0.1605,0.0537,-0.0121,-2.5100,1.4641,2.8794
2024-10-11T11:58:47.201Z,0.0063,-0.8747,0.0501,0.3354,-1.1897,0.4835,-0.1509,0.0426,-0.0078,-2.5100,1.4641,2.8794
2024-10-11T11:58:47.211Z,0.0276,-0.8715,0.0602,0.3354,-1.1897,0.4835,-0.1471,0.0429,0.0012,-2.5100,1.4641,2.8794
2024-10-11T11:58:47.221Z,0.0269,-0.8531,0.0956,0.0621,-1.4629,-0.0644,-0.1472,0.0416,0.0076,-2.4992,1.4683,2.8698
2024-10-11T11:58:47.230Z,0.0170,-0.8434,0.1005,0.0621,-1.4629,-0.0644,-0.1435,0.0375,0.0122,-2.4992,1.4683,2.8698
2024-10-11T11:58:47.240Z,0.0110,-0.8439,0.0823,0.0621,-1.4629,-0.0644,-0.1323,0.0417,0.0180,-2.4992,1.4683,2.8698
2024-10-11T11:58:47.251Z,0.0115,-0.8555,0.0629,0.0706,-1.2709,0.3644,-0.1199,0.0465,0.0237,-2.4950,1.4722,2.8663
2024-10-11T11:58:47.261Z,0.0267,-0.8723,0.0517,0.0706,-1.2709,0.3644,-0.1140,0.0559,0.0258,-2.4950,1.4722,2.8663
2024-10-11T11:58:47.271Z,0.0350,-0.8778,0.0698,0.0706,-1.2709,0.3644,-0.1080,0.0705,0.0273,-2.4950,1.4722,2.8663
2024-10-11T11:58:47.281Z,0.0394,-0.8880,0.0775,-0.1376,-0.9574,0.1068,-0.1043,0.0770,0.0303,-2.4951,1.4754,2.8682
2024-10-11T11:58:47.290Z,0.0377,-0.9082,0.0755,-0.1376,-0.9574,0.1068,-0.1007,0.0854,0.0315,-2.4951,1.4754,2.8682
2024-10-11T11:58:47.301Z,0.0363,-0.9183,0.0633,-0.1376,-0.9574,0.1068,-0.0930,0.0946,0.0331,-2.4951,1.4754,2.8682
2024-10-11T11:58:47.311Z,0.0370,-0.9162,0.0629,-0.1347,-0.8351,0.1389,-0.0904,0.0993,0.0375,-2.4979,1.4784,2.8735
2024-10-11T11:58:47.321Z,0.0362,-0.9071,0.0838,-0.1347,-0.8351,0.1389,-0.0865,0.1138,0.0349,-2.4979,1.4784,2.8735
2024-10-11T11:58:47.331Z,0.0210,-0.9099,0.0887,-0.1347,-0.8351,0.1389,-0.0825,0.1275,0.0368,-2.4979,1.4784,2.8735
2024-10-11T11:58:47.341Z,0.0214,-0.9155,0.1015,-0.0162,-0.8133,-0.1902,-0.0816,0.1460,0.0362,-2.5021,1.4810,2.8816
2024-10-11T11:58:47.351Z,0.0245,-0.9118,0.1141,-0.0162,-0.8133,-0.1902,-0.0829,0.1632,0.0300,-2.5021,1.4810,2.8816
2024-10-11T11:58:47.361Z,0.0017,-0.9129,0.1204,-0.0162,-0.8133,-0.1902,-0.0835,0.1735,0.0251,-2.5021,1.4810,2.8816
2024-10-11T11:58:47.371Z,-0.0096,-0.9098,0.1293,0.2657,-0.8575,-0.3611,-0.0876,0.1837,0.0191,-2.5033,1.4837,2.8876
2024-10-11T11:58:47.381Z,0.0035,-0.9115,0.1079,0.2657,-0.8575,-0.3611,-0.0861,0.1848,0.0154,-2.5033,1.4837,2.8876
2024-10-11T11:58:47.390Z,0.0102,-0.9214,0.0866,0.2657,-0.8575,-0.3611,-0.0934,0.1884,0.0143,-2.5033,1.4837,2.8876
2024-10-11T11:58:47.401Z,0.0104,-0.9274,0.1137,0.0924,-0.6013,-0.3946,-0.0984,0.1905,0.0150,-2.4999,1.4865,2.8897
2024-10-11T11:58:47.411Z,0.0154,-0.9437,0.1247,0.0924,-0.6013,-0.3946,-0.1073,0.1876,0.0140,-2.4999,1.4865,2.8897
2024-10-11T11:58:47.421Z,0.0198,-0.9526,0.1198,0.0924,-0.6013,-0.3946,-0.1163,0.1838,0.0166,-2.4999,1.4865,2.8897
2024-10-11T11:58:47.431Z,0.0178,-0.9536,0.1049,0.0350,-0.4287,-0.2137,-0.1208,0.1810,0.0157,-2.4956,1.4900,2.8906
2024-10-11T11:58:47.440Z,0.0124,-0.9491,0.0980,0.0350,-0.4287,-0.2137,-0.1211,0.1739,0.0162,-2.4956,1.4900,2.8906
2024-10-11T11:58:47.451Z,0.0026,-0.9486,0.0967,0.0350,-0.4287,-0.2137,-0.1233,0.1701,0.0139,-2.4956,1.4900,2.8906
2024-10-11T11:58:47.461Z,0.0008,-0.9538,0.0757,0.1656,-0.4219,0.0150,-0.1192,0.1703,0.0120,-2.4898,1.4936,2.8897
2024-10-11T11:58:47.471Z,0.0054,-0.9546,0.0672,0.1656,-0.4219,0.0150,-0.1170,0.1666,0.0104,-2.4898,1.4936,2.8897
2024-10-11T11:58:47.481Z,0.0128,-0.9476,0.0609,0.1656,-0.4219,0.0150,-0.1186,0.1617,0.0081,-2.4898,1.4936,2.8897
2024-10-11T11:58:47.491Z,0.0048,-0.9449,0.0501,0.1331,-0.5503,0.1735,-0.1178,0.1547,0.0037,-2.4813,1.4970,2.8859
2024-10-11T11:58:47.501Z,0.0026,-0.9408,0.0493,0.1331,-0.5503,0.1735,-0.1139,0.1482,-0.0013,-2.4813,1.4970,2.8859
2024-10-11T11:58:47.511Z,-0.0049,-0.9487,0.0285,0.1331,-0.5503,0.1735,-0.1107,0.1372,-0.0062,-2.4813,1.4970,2.8859
2024-10-11T11:58:47.521Z,-0.0055,-0.9490,0.0179,0.2668,-0.5388,0.4878,-0.1054,0.1265,-0.0090,-2.4679,1.5001,2.8763
2024-10-11T11:58:47.531Z,-0.0145,-0.9393,0.0130,0.2668,-0.5388,0.4878,-0.0979,0.1177,-0.0166,-2.4679,1.5001,2.8763
2024-10-11T11:58:47.541Z,-0.0056,-0.9402,-0.0212,0.2668,-0.5388,0.4878,-0.0815,0.1048,-0.0200,-2.4679,1.5001,2.8763
2024-10-11T11:58:47.551Z,0.0083,-0.9478,-0.0383,0.1294,-0.4710,1.0901,-0.0650,0.1021,-0.0244,-2.4508,1.5021,2.8622
2024-10-11T11:58:47.560Z,0.0057,-0.9519,-0.0549,0.1294,-0.4710,1.0901,-0.0485,0.0978,-0.0286,-2.4508,1.5021,2.8622
2024-10-11T11:58:47.571Z,0.0130,-0.9517,-0.0806,0.1294,-0.4710,1.0901,-0.0304,0.0948,-0.0319,-2.4508,1.5021,2.8622
2024-10-11T11:58:47.581Z,0.0301,-0.9603,-0.0927,-0.1420,-0.3354,1.5991,-0.0125,0.0810,-0.0345,-2.4343,1.5026,2.8481
2024-10-11T11:58:47.591Z,0.0336,-0.9624,-0.0897,-0.1420,-0.3354,1.5991,0.0005,0.0733,-0.0350,-2.4343,1.5026,2.8481
2024-10-11T11:58:47.601Z,0.0295,-0.9654,-0.0692,-0.1420,-0.3354,1.5991,0.0152,0.0538,-0.0385,-2.4343,1.5026,2.8481
2024-10-11T11:58:47.611Z,0.0222,-0.9743,-0.0634,0.0361,-0.1836,1.2353,0.0268,0.0463,-0.0445,-2.4200,1.5018,2.8353
2024-10-11T11:58:47.621Z,0.0165,-0.9760,-0.0520,0.0361,-0.1836,1.2353,0.0412,0.0280,-0.0462,-2.4200,1.5018,2.8353
2024-10-11T11:58:47.631Z,0.0225,-0.9738,-0.0295,0.0361,-0.1836,1.2353,0.0484,0.0140,-0.0497,-2.4200,1.5018,2.8353
2024-10-11T11:58:47.641Z,0.0269,-0.9707,-0.0139,-0.0726,-0.2596,0.6852,0.0590,-0.0046,-0.0522,-2.4072,1.4998,2.8224
2024-10-11T11:58:47.651Z,0.0295,-0.9703,0.0024,-0.0726,-0.2596,0.6852,0.0688,-0.0278,-0.0471,-2.4072,1.4998,2.8224
2024-10-11T11:58:47.661Z,0.0354,-0.9753,0.0045,-0.0726,-0.2596,0.6852,0.0812,-0.0454,-0.0455,-2.4072,1.4998,2.8224
2024-10-11T11:58:47.671Z,0.0344,-1.0005,0.0018,-0.0670,0.1400,0.6437,0.0927,-0.0650,-0.0400,-2.4006,1.4970,2.8140
2024-10-11T11:58:47.681Z,0.0304,-1.0208,0.0071,-0.0670,0.1400,0.6437,0.1036,-0.0741,-0.0413,-2.4006,1.4970,2.8140
2024-10-11T11:58:47.691Z,0.0361,-1.0351,0.0261,-0.0670,0.1400,0.6437,0.1042,-0.0786,-0.0433,-2.4006,1.4970,2.8140
2024-10-11T11:58:47.701Z,0.0361,-1.0639,0.0465,-0.1324,0.8463,0.2746,0.1137,-0.0856,-0.0437,-2.3984,1.4935,2.8091
2024-10-11T11:58:47.711Z,0.0433,-1.0982,0.0347,-0.1324,0.8463,0.2746,0.1182,-0.0912,-0.0453,-2.3984,1.4935,2.8091
2024-10-11T11:58:47.721Z,0.0562,-1.1184,0.0309,-0.1324,0.8463,0.2746,0.1247,-0.0947,-0.0434,-2.3984,1.4935,2.8091
2024-10-11T11:58:47.731Z,0.0652,-1.1418,0.0340,-0.4364,1.4720,0.4023,0.1266,-0.0972,-0.0392,-2.3993,1.4896,2.8069
2024-10-11T11:58:47.741Z,0.0793,-1.1478,0.0525,-0.4364,1.4720,0.4023,0.1240,-0.1012,-0.0360,-2.3993,1.4896,2.8069
2024-10-11T11:58:47.751Z,0.0747,-1.1372,0.0710,-0.4364,1.4720,0.4023,0.1240,-0.1144,-0.0356,-2.3993,1.4896,2.8069
2024-10-11T11:58:47.761Z,0.0531,-1.1336,0.0671,-0.2061,1.3198,0.1052,0.1218,-0.1280,-0.0299,-2.4031,1.4858,2.8068
2024-10-11T11:58:47.771Z,0.0543,-1.1287,0.0862,-0.2061,1.3198,0.1052,0.1203,-0.1455,-0.0256,-2.4031,1.4858,2.8068
2024-10-11T11:58:47.781Z,0.0625,-1.1255,0.1100,-0.2061,1.3198,0.1052,0.1192,-0.1548,-0.0179,-2.4031,1.4858,2.8068
2024-10-11T11:58:47.791Z,0.0543,-1.1254,0.1296,-0.2328,1.2526,-0.5158,0.1181,-0.1567,-0.0140,-2.4113,1.4822,2.8101
2024-10-11T11:58:47.802Z,0.0557,-1.1202,0.1433,-0.2328,1.2526,-0.5158,0.1240,-0.1752,-0.0022,-2.4113,1.4822,2.8101
2024-10-11T11:58:47.811Z,0.0490,-1.1157,0.1471,-0.2328,1.2526,-0.5158,0.1240,-0.1752,-0.0022,-2.4113,1.4822,2.8101
2024-10-11T11:58:47.821Z,0.0460,-1.1123,0.1443,-0.1634,1.1506,-0.6361,0.1286,-0.1823,0.0095,-2.4259,1.4787,2.8192
2024-10-11T11:58:47.831Z,0.0436,-1.1132,0.1583,-0.1634,1.1506,-0.6361,0.1356,-0.1929,0.0202,-2.4259,1.4787,2.8192
2024-10-11T11:58:47.842Z,0.0258,-1.1075,0.1881,-0.1634,1.1506,-0.6361,0.1336,-0.1970,0.0332,-2.4259,1.4787,2.8192
2024-10-11T11:58:47.852Z,0.0062,-1.1070,0.2303,0.3179,1.1731,-1.4795,0.1342,-0.1940,0.0383,-2.4482,1.4751,2.8352
2024-10-11T11:58:47.861Z,-0.0035,-1.1239,0.2455,0.3179,1.1731,-1.4795,0.1342,-0.1940,0.0383,-2.4482,1.4751,2.8352
2024-10-11T11:58:47.871Z,0.0164,-1.1333,0.2744,0.3179,1.1731,-1.4795,0.1298,-0.1854,0.0459,-2.4482,1.4751,2.8352
2024-10-11T11:58:47.881Z,0.0134,-1.1405,0.2916,0.2224,1.4979,-1.9951,0.1293,-0.1716,0.0516,-2.4738,1.4717,2.8552
2024-10-11T11:58:47.892Z,-0.0043,-1.1595,0.3004,0.2224,1.4979,-1.9951,0.1235,-0.1451,0.0537,-2.4738,1.4717,2.8552
2024-10-11T11:58:47.901Z,-0.0039,-1.1775,0.2977,0.2224,1.4979,-1.9951,0.1235,-0.1451,0.0537,-2.4738,1.4717,2.8552
2024-10-11T11:58:47.910Z,0.0022,-1.1828,0.2845,0.2373,1.8305,-1.8294,0.1174,-0.1368,0.0515,-2.4992,1.4687,2.8759
2024-10-11T11:58:47.922Z,0.0041,-1.1808,0.2885,0.2373,1.8305,-1.8294,0.0891,-0.1142,0.0554,-2.4992,1.4687,2.8759
2024-10-11T11:58:47.932Z,0.0102,-1.1823,0.2833,0.2373,1.8305,-1.8294,0.0827,-0.1046,0.0552,-2.4992,1.4687,2.8759
2024-10-11T11:58:47.942Z,0.0301,-1.1795,0.2414,0.0330,1.8093,-1.4129,0.0827,-0.1046,0.0552,-2.5215,1.4665,2.8944
2024-10-11T11:58:47.952Z,0.0301,-1.1795,0.2414,0.0330,1.8093,-1.4129,0.0607,-0.0989,0.0586,-2.5215,1.4665,2.8944
2024-10-11T11:58:47.960Z,0.0435,-1.1821,0.2434,0.0330,1.8093,-1.4129,0.0607,-0.0989,0.0586,-2.5215,1.4665,2.8944
2024-10-11T11:58:47.971Z,0.0338,-1.1747,0.2683,-0.0389,1.8080,-1.7024,0.0452,-0.0805,0.0621,-2.5421,1.4652,2.9120
2024-10-11T11:58:47.982Z,0.0270,-1.1842,0.2813,-0.0389,1.8080,-1.7024,0.0405,-0.0736,0.0642,-2.5421,1.4652,2.9120
2024-10-11T11:58:47.992Z,0.0359,-1.1886,0.2951,-0.0389,1.8080,-1.7024,0.0384,-0.0717,0.0691,-2.5421,1.4652,2.9120
2024-10-11T11:58:48.002Z,0.0410,-1.1734,0.3091,-0.2172,1.6362,-1.9584,0.0344,-0.0723,0.0739,-2.5630,1.4644,2.9303
2024-10-11T11:58:48.010Z,0.0452,-1.1530,0.2928,-0.2172,1.6362,-1.9584,0.0344,-0.0723,0.0739,-2.5630,1.4644,2.9303
2024-10-11T11:58:48.021Z,0.0351,-1.1496,0.2885,-0.2172,1.6362,-1.9584,0.0300,-0.0833,0.0844,-2.5630,1.4644,2.9303
2024-10-11T11:58:48.031Z,0.0323,-1.1514,0.2973,-0.1233,1.5824,-1.9280,0.0300,-0.0833,0.0844,-2.5873,1.4639,2.9518
2024-10-11T11:58:48.042Z,0.0297,-1.1630,0.2965,-0.1233,1.5824,-1.9280,0.0312,-0.0760,0.0909,-2.5873,1.4639,2.9518
2024-10-11T11:58:48.052Z,0.0235,-1.1844,0.2783,-0.1233,1.5824,-1.9280,0.0283,-0.0695,0.0973,-2.5873,1.4639,2.9518
2024-10-11T11:58:48.061Z,0.0302,-1.2005,0.2451,-0.1255,2.0979,-1.2498,0.0290,-0.0708,0.1016,-2.6149,1.4635,2.9768
2024-10-11T11:58:48.072Z,0.0254,-1.2130,0.2198,-0.1255,2.0979,-1.2498,0.0300,-0.0784,0.1071,-2.6149,1.4635,2.9768
2024-10-11T11:58:48.082Z,0.0259,-1.2251,0.2235,-0.1255,2.0979,-1.2498,0.0302,-0.0894,0.1124,-2.6149,1.4635,2.9768
2024-10-11T11:58:48.091Z,0.0335,-1.2329,0.2049,-0.1825,2.3628,-0.9225,0.0302,-0.0894,0.1124,-2.6464,1.4629,3.0053
2024-10-11T11:58:48.101Z,0.0311,-1.2431,0.1979,-0.1825,2.3628,-0.9225,0.0265,-0.1173,0.1263,-2.6464,1.4629,3.0053
2024-10-11T11:58:48.112Z,0.0383,-1.2624,0.1785,-0.1825,2.3628,-0.9225,0.0248,-0.1288,0.1305,-2.6464,1.4629,3.0053
2024-10-11T11:58:48.121Z,0.0362,-1.2694,0.1653,-0.2242,2.7456,-0.4657,0.0229,-0.1319,0.1342,-2.6822,1.4625,3.0370
2024-10-11T11:58:48.131Z,0.0327,-1.2788,0.1477,-0.2242,2.7456,-0.4657,0.0247,-0.1429,0.1338,-2.6822,1.4625,3.0370
2024-10-11T11:58:48.142Z,0.0267,-1.2897,0.1144,-0.2242,2.7456,-0.4657,0.0268,-0.1280,0.1290,-2.6822,1.4625,3.0370
2024-10-11T11:58:48.151Z,0.0036,-1.3029,0.0858,0.1787,2.9808,0.2356,0.0320,-0.1115,0.1234,-2.7191,1.4620,3.0696
2024-10-11T11:58:48.160Z,-0.0100,-1.2877,0.0845,0.1787,2.9808,0.2356,0.0320,-0.1115,0.1234,-2.7191,1.4620,3.0696
2024-10-11T11:58:48.171Z,-0.0213,-1.2687,0.0967,0.1787,2.9808,0.2356,0.0492,-0.0808,0.1037,-2.7191,1.4620,3.0696
2024-10-11T11:58:48.181Z,-0.0297,-1.2449,0.1213,0.3396,2.2265,-0.1830,0.0533,-0.0668,0.0978,-2.7503,1.4609,3.0977
2024-10-11T11:58:48.191Z,-0.0220,-1.1977,0.1347,0.3396,2.2265,-0.1830,0.0533,-0.0668,0.0978,-2.7503,1.4609,3.0977
2024-10-11T11:58:48.201Z,-0.0365,-1.1567,0.1467,0.3396,2.2265,-0.1830,0.0483,-0.0255,0.0846,-2.7503,1.4609,3.0977
2024-10-11T11:58:48.211Z,-0.0426,-1.1140,0.1737,0.4129,0.9910,-0.6581,0.0482,-0.0006,0.0756,-2.7751,1.4595,3.1210
2024-10-11T11:58:48.221Z,-0.0418,-1.0840,0.1824,0.4129,0.9910,-0.6581,0.0459,0.0240,0.0699,-2.7751,1.4595,3.1210
2024-10-11T11:58:48.231Z,-0.0557,-1.0904,0.1858,0.4129,0.9910,-0.6581,0.0466,0.0551,0.0570,-2.7751,1.4595,3.1210
2024-10-11T11:58:48.241Z,-0.0430,-1.1142,0.1654,0.4188,1.3384,-0.4925,0.0466,0.0551,0.0570,-2.7932,1.4581,3.1396
2024-10-11T11:58:48.251Z,-0.0425,-1.1471,0.1568,0.4188,1.3384,-0.4925,0.0510,0.1101,0.0416,-2.7932,1.4581,3.1396
2024-10-11T11:58:48.261Z,-0.0344,-1.1665,0.1557,0.4188,1.3384,-0.4925,0.0549,0.1275,0.0336,-2.7932,1.4581,3.1396
2024-10-11T11:58:48.271Z,-0.0338,-1.1820,0.1529,0.2816,1.9006,-0.4253,0.0588,0.1326,0.0310,-2.8038,1.4565,-3.1301
2024-10-11T11:58:48.281Z,-0.0165,-1.1851,0.1596,0.2816,1.9006,-0.4253,0.0622,0.1299,0.0362,-2.8038,1.4565,-3.1301
2024-10-11T11:58:48.291Z,0.0051,-1.1759,0.1805,0.2816,1.9006,-0.4253,0.0622,0.1299,0.0362,-2.8038,1.4565,-3.1301
2024-10-11T11:58:48.301Z,0.0079,-1.1664,0.1958,-0.1413,1.6071,-0.9465,0.0634,0.1110,0.0480,-2.8134,1.4546,-3.1170
2024-10-11T11:58:48.311Z,0.0142,-1.1442,0.2203,-0.1413,1.6071,-0.9465,0.0620,0.1137,0.0476,-2.8134,1.4546,-3.1170
2024-10-11T11:58:48.321Z,0.0104,-1.1172,0.2272,-0.1413,1.6071,-0.9465,0.0685,0.1301,0.0468,-2.8134,1.4546,-3.1170
2024-10-11T11:58:48.331Z,0.0034,-1.1169,0.2320,-0.0435,1.2168,-1.2453,0.0697,0.1575,0.0376,-2.8254,1.4525,-3.1019
2024-10-11T11:58:48.342Z,-0.0047,-1.1055,0.2503,-0.0435,1.2168,-1.2453,0.0740,0.1964,0.0269,-2.8254,1.4525,-3.1019
2024-10-11T11:58:48.351Z,-0.0131,-1.1103,0.2561,-0.0435,1.2168,-1.2453,0.0778,0.2230,0.0185,-2.8254,1.4525,-3.1019
2024-10-11T11:58:48.361Z,-0.0216,-1.1201,0.2642,-0.0204,1.1890,-1.3610,0.0745,0.2655,0.0116,-2.8313,1.4502,-3.0903
2024-10-11T11:58:48.372Z,-0.0208,-1.1183,0.2765,-0.0204,1.1890,-1.3610,0.0708,0.3184,0.0020,-2.8313,1.4502,-3.0903
2024-10-11T11:58:48.381Z,-0.0208,-1.1183,0.2765,-0.0204,1.1890,-1.3610,0.0678,0.3620,-0.0099,-2.8313,1.4502,-3.0903
2024-10-11T11:58:48.393Z,-0.0087,-1.0981,0.2708,0.0560,0.9483,-1.3987,0.0611,0.4246,-0.0210,-2.8302,1.4481,-3.0817
2024-10-11T11:58:48.401Z,-0.0367,-1.0792,0.2621,0.0560,0.9483,-1.3987,0.0590,0.4802,-0.0350,-2.8302,1.4481,-3.0817
2024-10-11T11:58:48.411Z,-0.0682,-1.0469,0.2528,0.0560,0.9483,-1.3987,0.0625,0.5290,-0.0469,-2.8302,1.4481,-3.0817
2024-10-11T11:58:48.421Z,-0.0489,-1.0172,0.2336,0.4445,0.1301,-1.0130,0.0645,0.5748,-0.0596,-2.8201,1.4463,-3.0772
2024-10-11T11:58:48.432Z,-0.0643,-0.9874,0.2124,0.4445,0.1301,-1.0130,0.0716,0.6036,-0.0673,-2.8201,1.4463,-3.0772
2024-10-11T11:58:48.442Z,-0.0643,-0.9874,0.2124,0.4445,0.1301,-1.0130,0.0828,0.6273,-0.0717,-2.8201,1.4463,-3.0772
2024-10-11T11:58:48.452Z,-0.0476,-0.9741,0.1614,0.3705,-0.1787,-0.4405,0.0938,0.6397,-0.0763,-2.8029,1.4442,-3.0763
2024-10-11T11:58:48.461Z,-0.0476,-0.9741,0.1614,0.3705,-0.1787,-0.4405,0.0938,0.6397,-0.0763,-2.8029,1.4442,-3.0763
2024-10-11T11:58:48.472Z,-0.0444,-0.9748,0.1303,0.3705,-0.1787,-0.4405,0.1156,0.6467,-0.0824,-2.8029,1.4442,-3.0763
2024-10-11T11:58:48.482Z,-0.0521,-0.9951,0.1142,0.3702,-0.0880,0.0357,0.1245,0.6337,-0.0853,-2.7830,1.4411,-3.0770
2024-10-11T11:58:48.493Z,-0.0521,-0.9951,0.1142,0.3702,-0.0880,0.0357,0.1304,0.5914,-0.0828,-2.7830,1.4411,-3.0770
2024-10-11T11:58:48.501Z,0.0069,-1.0215,0.0765,0.3702,-0.0880,0.0357,0.1279,0.5411,-0.0712,-2.7830,1.4411,-3.0770
2024-10-11T11:58:48.511Z,0.0069,-1.0215,0.0765,-0.2261,0.2247,0.7004,0.1223,0.4898,-0.0613,-2.7634,1.4374,-3.0793
2024-10-11T11:58:48.521Z,0.0221,-1.0085,0.0515,-0.2261,0.2247,0.7004,0.1124,0.4565,-0.0577,-2.7634,1.4374,-3.0793
2024-10-11T11:58:48.532Z,0.0248,-1.0182,0.0705,-0.2261,0.2247,0.7004,0.1092,0.4174,-0.0599,-2.7634,1.4374,-3.0793
2024-10-11T11:58:48.543Z,0.0248,-1.0182,0.0705,-0.3731,0.3406,0.5871,0.1060,0.3947,-0.0639,-2.7486,1.4342,-3.0804
2024-10-11T11:58:48.552Z,0.0105,-1.0254,0.0881,-0.3731,0.3406,0.5871,0.1061,0.3757,-0.0659,-2.7486,1.4342,-3.0804
2024-10-11T11:58:48.561Z,0.0105,-1.0254,0.0881,-0.3731,0.3406,0.5871,0.1067,0.3589,-0.0762,-2.7486,1.4342,-3.0804
2024-10-11T11:58:48.571Z,0.0075,-1.0100,0.0816,-0.2228,0.1117,0.5441,0.1126,0.3429,-0.0800,-2.7324,1.4311,-3.0856
2024-10-11T11:58:48.581Z,0.0197,-0.9965,0.0997,-0.2228,0.1117,0.5441,0.1191,0.3252,-0.0871,-2.7324,1.4311,-3.0856
2024-10-11T11:58:48.592Z,0.0124,-0.9730,0.1199,-0.2228,0.1117,0.5441,0.1241,0.3039,-0.0877,-2.7324,1.4311,-3.0856
2024-10-11T11:58:48.601Z,0.0112,-0.9082,0.1387,-0.2124,-0.6562,0.1006,0.1295,0.2870,-0.0901,-2.7128,1.4276,-3.0956
2024-10-11T11:58:48.611Z,0.0112,-0.9082,0.1387,-0.2124,-0.6562,0.1006,0.1281,0.2593,-0.0854,-2.7128,1.4276,-3.0956
2024-10-11T11:58:48.622Z,0.0238,-0.8512,0.1228,-0.2124,-0.6562,0.1006,0.1268,0.2361,-0.0849,-2.7128,1.4276,-3.0956
2024-10-11T11:58:48.631Z,0.0011,-0.8472,0.0983,-0.1809,-1.4053,0.2841,0.1213,0.2148,-0.0856,-2.6941,1.4239,-3.1066
2024-10-11T11:58:48.642Z,0.0011,-0.8472,0.0983,-0.1809,-1.4053,0.2841,0.1153,0.1800,-0.0864,-2.6941,1.4239,-3.1066
2024-10-11T11:58:48.651Z,0.0025,-0.8710,0.0589,-0.1809,-1.4053,0.2841,0.1065,0.1530,-0.0878,-2.6941,1.4239,-3.1066
2024-10-11T11:58:48.661Z,0.0025,-0.8710,0.0589,0.0042,-1.0337,0.9970,0.1023,0.1235,-0.0904,-2.6762,1.4205,-3.1195
2024-10-11T11:58:48.672Z,0.0096,-0.9217,0.0121,0.0042,-1.0337,0.9970,0.0956,0.1121,-0.1012,-2.6762,1.4205,-3.1195
2024-10-11T11:58:48.681Z,0.0096,-0.9217,0.0121,0.0042,-1.0337,0.9970,0.0869,0.1197,-0.1082,-2.6762,1.4205,-3.1195
2024-10-11T11:58:48.693Z,0.0230,-0.9382,-0.0280,-0.0484,-0.6771,1.5442,0.0899,0.1022,-0.1169,-2.6564,1.4177,-3.1365
2024-10-11T11:58:48.701Z,0.0343,-0.9500,-0.0395,-0.0484,-0.6771,1.5442,0.1012,0.0617,-0.1128,-2.6564,1.4177,-3.1365
2024-10-11T11:58:48.711Z,0.0328,-0.9060,-0.0410,-0.0484,-0.6771,1.5442,0.1044,0.0116,-0.1140,-2.6564,1.4177,-3.1365
2024-10-11T11:58:48.721Z,0.0175,-0.9072,0.0460,-0.2471,-0.7176,1.4085,0.1051,-0.0367,-0.1189,-2.6362,1.4145,3.1270
2024-10-11T11:58:48.731Z,0.0367,-0.8727,0.0267,-0.2471,-0.7176,1.4085,0.0969,-0.0742,-0.1216,-2.6362,1.4145,3.1270
2024-10-11T11:58:48.742Z,0.0355,-0.9174,-0.0213,-0.2471,-0.7176,1.4085,0.0900,-0.0938,-0.1301,-2.6362,1.4145,3.1270
2024-10-11T11:58:48.751Z,0.0530,-0.9291,-0.0430,-0.2990,-0.5969,1.8850,0.0846,-0.1078,-0.1343,-2.6125,1.4117,3.1029
2024-10-11T11:58:48.761Z,0.0706,-0.9607,-0.0469,-0.2990,-0.5969,1.8850,0.0791,-0.1155,-0.1446,-2.6125,1.4117,3.1029
2024-10-11T11:58:48.771Z,0.0839,-0.9674,-0.0267,-0.2990,-0.5969,1.8850,0.0744,-0.1438,-0.1411,-2.6125,1.4117,3.1029
2024-10-11T11:58:48.781Z,0.1205,-0.9520,-0.0280,-0.9452,-0.2740,1.7896,0.0718,-0.1682,-0.1415,-2.5865,1.4092,3.0740
2024-10-11T11:58:48.792Z,0.1209,-0.9299,-0.0441,-0.9452,-0.2740,1.7896,0.0796,-0.1909,-0.1333,-2.5865,1.4092,3.0740
2024-10-11T11:58:48.801Z,0.1422,-0.8885,-0.0337,-0.9452,-0.2740,1.7896,0.0835,-0.2124,-0.1240,-2.5865,1.4092,3.0740
2024-10-11T11:58:48.811Z,0.1389,-0.8457,0.0136,-1.2855,-1.1982,1.6952,0.0890,-0.2213,-0.1178,-2.5635,1.4065,3.0454
2024-10-11T11:58:48.821Z,0.1212,-0.8243,0.0206,-1.2855,-1.1982,1.6952,0.0940,-0.2336,-0.1089,-2.5635,1.4065,3.0454
2024-10-11T11:58:48.831Z,0.1326,-0.8282,0.0611,-1.2855,-1.1982,1.6952,0.0983,-0.2446,-0.1009,-2.5635,1.4065,3.0454
2024-10-11T11:58:48.842Z,0.1483,-0.8355,0.0941,-1.1726,-1.5244,0.7680,0.0948,-0.2515,-0.0876,-2.5466,1.4033,3.0211
2024-10-11T11:58:48.851Z,0.1542,-0.8532,0.0916,-1.1726,-1.5244,0.7680,0.0900,-0.2540,-0.0740,-2.5466,1.4033,3.0211
2024-10-11T11:58:48.861Z,0.1544,-0.8828,0.0824,-1.1726,-1.5244,0.7680,0.0840,-0.2491,-0.0619,-2.5466,1.4033,3.0211
2024-10-11T11:58:48.871Z,0.1370,-0.9088,0.1119,-1.1925,-0.8833,0.7406,0.0722,-0.2349,-0.0543,-2.5362,1.4004,3.0030
2024-10-11T11:58:48.881Z,0.1237,-0.9227,0.1217,-1.1925,-0.8833,0.7406,0.0631,-0.2229,-0.0505,-2.5362,1.4004,3.0030
2024-10-11T11:58:48.893Z,0.1087,-0.9281,0.1013,-1.1925,-0.8833,0.7406,0.0577,-0.2014,-0.0451,-2.5362,1.4004,3.0030
2024-10-11T11:58:48.901Z,0.1061,-0.9152,0.1293,-0.7538,-0.5984,0.5892,0.0475,-0.1842,-0.0364,-2.5294,1.3983,2.9898
2024-10-11T11:58:48.910Z,0.1061,-0.9152,0.1293,-0.7538,-0.5984,0.5892,0.0379,-0.1713,-0.0321,-2.5294,1.3983,2.9898
2024-10-11T11:58:48.921Z,0.1044,-0.8860,0.2001,-0.7538,-0.5984,0.5892,0.0276,-0.1576,-0.0237,-2.5294,1.3983,2.9898
2024-10-11T11:58:48.931Z,0.0997,-0.8598,0.1928,-0.6914,-1.0705,-0.2540,0.0199,-0.1528,-0.0137,-2.5255,1.3971,2.9807
2024-10-11T11:58:48.943Z,0.1107,-0.8403,0.1799,-0.6914,-1.0705,-0.2540,0.0151,-0.1557,0.0031,-2.5255,1.3971,2.9807
2024-10-11T11:58:48.951Z,0.1166,-0.8466,0.1571,-0.6914,-1.0705,-0.2540,0.0090,-0.1544,0.0147,-2.5255,1.3971,2.9807
2024-10-11T11:58:48.961Z,0.0880,-0.8479,0.1637,-0.7903,-1.3190,0.1197,0.0100,-0.1505,0.0213,-2.5270,1.3966,2.9772
2024-10-11T11:58:48.971Z,0.0608,-0.8486,0.1484,-0.7903,-1.3190,0.1197,0.0064,-0.1519,0.0260,-2.5270,1.3966,2.9772
2024-10-11T11:58:48.981Z,0.0479,-0.8578,0.1534,-0.7903,-1.3190,0.1197,0.0044,-0.1395,0.0292,-2.5270,1.3966,2.9772
2024-10-11T11:58:48.992Z,0.0503,-0.8664,0.1238,-0.1802,-1.2054,0.2962,0.0019,-0.1258,0.0289,-2.5316,1.3966,2.9772
2024-10-11T11:58:49.001Z,0.0490,-0.8666,0.1048,-0.1802,-1.2054,0.2962,-0.0009,-0.1092,0.0286,-2.5316,1.3966,2.9772
2024-10-11T11:58:49.011Z,0.0503,-0.8705,0.1042,-0.1802,-1.2054,0.2962,-0.0062,-0.1069,0.0254,-2.5316,1.3966,2.9772
2024-10-11T11:58:49.021Z,0.0421,-0.8833,0.1406,-0.2086,-1.0494,0.5098,-0.0153,-0.1061,0.0309,-2.5363,1.3968,2.9783
2024-10-11T11:58:49.030Z,0.0370,-0.8932,0.1723,-0.2086,-1.0494,0.5098,-0.0226,-0.1058,0.0363,-2.5363,1.3968,2.9783
2024-10-11T11:58:49.042Z,0.0526,-0.9014,0.1534,-0.2086,-1.0494,0.5098,-0.0337,-0.1052,0.0426,-2.5363,1.3968,2.9783
2024-10-11T11:58:49.051Z,0.0402,-0.9001,0.1477,-0.2237,-0.8297,0.2348,-0.0454,-0.1035,0.0492,-2.5422,1.3978,2.9807
2024-10-11T11:58:49.061Z,0.0165,-0.8960,0.1985,-0.2237,-0.8297,0.2348,-0.0608,-0.1078,0.0548,-2.5422,1.3978,2.9807
2024-10-11T11:58:49.070Z,0.0091,-0.8980,0.2273,-0.2237,-0.8297,0.2348,-0.0754,-0.1118,0.0571,-2.5422,1.3978,2.9807
2024-10-11T11:58:49.081Z,0.0025,-0.8928,0.1994,0.1902,-0.8717,-0.4934,-0.0863,-0.1132,0.0608,-2.5498,1.3999,2.9847
2024-10-11T11:58:49.091Z,-0.0115,-0.8815,0.1731,0.1902,-0.8717,-0.4934,-0.0991,-0.1107,0.0635,-2.5498,1.3999,2.9847
2024-10-11T11:58:49.101Z,-0.0165,-0.8750,0.1789,0.1902,-0.8717,-0.4934,-0.1146,-0.1168,0.0679,-2.5498,1.3999,2.9847
2024-10-11T11:58:49.111Z,-0.0165,-0.8750,0.1789,0.4170,-1.1233,-0.2031,-0.1279,-0.1193,0.0700,-2.5585,1.4032,2.9897
2024-10-11T11:58:49.121Z,-0.0502,-0.8567,0.1672,0.4170,-1.1233,-0.2031,-0.1455,-0.0936,0.0618,-2.5585,1.4032,2.9897
2024-10-11T11:58:49.131Z,-0.0534,-0.8448,0.1328,0.4170,-1.1233,-0.2031,-0.1508,-0.0726,0.0548,-2.5585,1.4032,2.9897
2024-10-11T11:58:49.141Z,-0.0656,-0.8463,0.0834,0.8003,-1.3995,0.5337,-0.1449,-0.0702,0.0421,-2.5660,1.4075,2.9931
2024-10-11T11:58:49.151Z,-0.0799,-0.8586,0.0575,0.8003,-1.3995,0.5337,-0.1386,-0.0706,0.0277,-2.5660,1.4075,2.9931
2024-10-11T11:58:49.161Z,-0.0810,-0.8502,0.0552,0.8003,-1.3995,0.5337,-0.1322,-0.0756,0.0161,-2.5660,1.4075,2.9931
2024-10-11T11:58:49.171Z,-0.0741,-0.8327,0.0441,0.9981,-1.4260,1.0701,-0.1282,-0.0800,0.0068,-2.5676,1.4114,2.9919
2024-10-11T11:58:49.181Z,-0.0605,-0.8124,0.0577,0.9981,-1.4260,1.0701,-0.1274,-0.0918,0.0047,-2.5676,1.4114,2.9919
2024-10-11T11:58:49.191Z,-0.0339,-0.7874,0.0765,0.9981,-1.4260,1.0701,-0.1223,-0.1072,0.0109,-2.5676,1.4114,2.9919
2024-10-11T11:58:49.201Z,-0.0260,-0.7757,0.0611,0.5071,-2.0331,0.8380,-0.1153,-0.1111,0.0116,-2.5657,1.4152,2.9870
2024-10-11T11:58:49.211Z,-0.0260,-0.7757,0.0611,0.5071,-2.0331,0.8380,-0.1033,-0.1038,0.0186,-2.5657,1.4152,2.9870
2024-10-11T11:58:49.221Z,-0.0242,-0.7862,0.0599,0.5071,-2.0331,0.8380,-0.0901,-0.0915,0.0186,-2.5657,1.4152,2.9870
2024-10-11T11:58:49.231Z,-0.0401,-0.8132,0.0772,0.5402,-1.8625,0.8013,-0.0795,-0.0639,0.0156,-2.5660,1.4182,2.9843
2024-10-11T11:58:49.240Z,-0.0473,-0.8427,0.0780,0.5402,-1.8625,0.8013,-0.0701,-0.0375,0.0140,-2.5660,1.4182,2.9843
2024-10-11T11:58:49.251Z,-0.0376,-0.8694,0.0831,0.5402,-1.8625,0.8013,-0.0589,-0.0151,0.0134,-2.5660,1.4182,2.9843
2024-10-11T11:58:49.261Z,-0.0376,-0.8694,0.0831,0.5815,-1.0859,0.5531,-0.0560,0.0068,0.0104,-2.5669,1.4202,2.9838
2024-10-11T11:58:49.271Z,-0.0469,-0.9098,0.1130,0.5815,-1.0859,0.5531,-0.0616,0.0246,0.0083,-2.5669,1.4202,2.9838
2024-10-11T11:58:49.281Z,-0.0335,-0.9061,0.1454,0.5815,-1.0859,0.5531,-0.0672,0.0388,0.0103,-2.5669,1.4202,2.9838
2024-10-11T11:58:49.291Z,-0.0207,-0.8919,0.1730,0.4592,-0.8900,-0.1543,-0.0786,0.0544,0.0131,-2.5670,1.4221,2.9845
2024-10-11T11:58:49.301Z,-0.0292,-0.8843,0.1807,0.4592,-0.8900,-0.1543,-0.0879,0.0670,0.0123,-2.5670,1.4221,2.9845
2024-10-11T11:58:49.312Z,-0.0311,-0.8702,0.2060,0.4592,-0.8900,-0.1543,-0.0950,0.0723,0.0119,-2.5670,1.4221,2.9845
2024-10-11T11:58:49.321Z,-0.0419,-0.8558,0.1985,0.5514,-1.2482,-0.6673,-0.0975,0.0741,0.0125,-2.5671,1.4248,2.9862
2024-10-11T11:58:49.331Z,-0.0461,-0.8448,0.1579,0.5514,-1.2482,-0.6673,-0.1004,0.0740,0.0125,-2.5671,1.4248,2.9862
2024-10-11T11:58:49.341Z,-0.0453,-0.8331,0.1311,0.5514,-1.2482,-0.6673,-0.1031,0.0854,0.0122,-2.5671,1.4248,2.9862
2024-10-11T11:58:49.351Z,-0.0243,-0.8502,0.1346,0.5763,-1.4719,0.0810,-0.1072,0.0944,0.0147,-2.5664,1.4278,2.9877
2024-10-11T11:58:49.361Z,-0.0120,-0.8715,0.1384,0.5763,-1.4719,0.0810,-0.1152,0.1114,0.0183,-2.5664,1.4278,2.9877
2024-10-11T11:58:49.371Z,-0.0002,-0.8866,0.1111,0.5763,-1.4719,0.0810,-0.1244,0.1213,0.0230,-2.5664,1.4278,2.9877
2024-10-11T11:58:49.381Z,0.0011,-0.8868,0.0774,0.1830,-0.9964,0.3962,-0.1254,0.1339,0.0283,-2.5666,1.4313,2.9910
2024-10-11T11:58:49.391Z,0.0041,-0.8902,0.0480,0.1830,-0.9964,0.3962,-0.1314,0.1488,0.0260,-2.5666,1.4313,2.9910
2024-10-11T11:58:49.401Z,-0.0043,-0.8799,0.0199,0.1830,-0.9964,0.3962,-0.1350,0.1612,0.0272,-2.5666,1.4313,2.9910
2024-10-11T11:58:49.411Z,-0.0070,-0.8535,0.0400,0.2700,-1.2216,1.0159,-0.1384,0.1759,0.0293,-2.5684,1.4353,2.9970
2024-10-11T11:58:49.421Z,0.0084,-0.8374,0.0528,0.2700,-1.2216,1.0159,-0.1475,0.1936,0.0280,-2.5684,1.4353,2.9970
2024-10-11T11:58:49.431Z,0.0198,-0.8352,0.0770,0.2700,-1.2216,1.0159,-0.1525,0.2088,0.0275,-2.5684,1.4353,2.9970
2024-10-11T11:58:49.441Z,0.0196,-0.8371,0.1091,-0.0280,-1.5406,0.3051,-0.1554,0.2255,0.0299,-2.5703,1.4397,3.0044
2024-10-11T11:58:49.451Z,0.0298,-0.8503,0.0883,-0.0280,-1.5406,0.3051,-0.1580,0.2424,0.0322,-2.5703,1.4397,3.0044
2024-10-11T11:58:49.461Z,0.0426,-0.8682,0.0837,-0.0280,-1.5406,0.3051,-0.1591,0.2596,0.0298,-2.5703,1.4397,3.0044
2024-10-11T11:58:49.471Z,0.0419,-0.8859,0.0984,-0.2870,-1.1429,0.3431,-0.1648,0.2741,0.0316,-2.5728,1.4445,3.0141
2024-10-11T11:58:49.481Z,0.0396,-0.9021,0.0915,-0.2870,-1.1429,0.3431,-0.1674,0.2891,0.0337,-2.5728,1.4445,3.0141
2024-10-11T11:58:49.491Z,0.0715,-0.9072,0.0880,-0.2870,-1.1429,0.3431,-0.1746,0.2921,0.0428,-2.5728,1.4445,3.0141
2024-10-11T11:58:49.500Z,0.0598,-0.8978,0.0932,-0.5629,-0.8724,0.3414,-0.1845,0.3026,0.0466,-2.5769,1.4497,3.0265
2024-10-11T11:58:49.511Z,0.0430,-0.8930,0.0772,-0.5629,-0.8724,0.3414,-0.1873,0.3097,0.0508,-2.5769,1.4497,3.0265
2024-10-11T11:58:49.520Z,0.0590,-0.8870,0.0385,-0.5629,-0.8724,0.3414,-0.1845,0.3248,0.0584,-2.5769,1.4497,3.0265
2024-10-11T11:58:49.531Z,0.0790,-0.8749,0.0371,-0.5556,-1.0829,0.8666,-0.1889,0.3324,0.0678,-2.5853,1.4554,3.0440
2024-10-11T11:58:49.541Z,0.0922,-0.8664,0.0752,-0.5556,-1.0829,0.8666,-0.1918,0.3366,0.0728,-2.5853,1.4554,3.0440
2024-10-11T11:58:49.551Z,0.0755,-0.8789,0.1086,-0.5556,-1.0829,0.8666,-0.1996,0.3330,0.0805,-2.5853,1.4554,3.0440
2024-10-11T11:58:49.562Z,0.0556,-0.8874,0.1147,-0.5551,-1.0722,-0.0673,-0.2091,0.3266,0.0816,-2.6012,1.4614,3.0694
2024-10-11T11:58:49.570Z,0.0471,-0.8949,0.1016,-0.5551,-1.0722,-0.0673,-0.2147,0.3113,0.0813,-2.6012,1.4614,3.0694
2024-10-11T11:58:49.581Z,0.0412,-0.9106,0.0977,-0.5551,-1.0722,-0.0673,-0.2254,0.2896,0.0777,-2.6012,1.4614,3.0694
2024-10-11T11:58:49.591Z,0.0261,-0.9163,0.1040,-0.2872,-0.7813,-0.0050,-0.2321,0.2665,0.0732,-2.6202,1.4680,3.0972
2024-10-11T11:58:49.602Z,0.0144,-0.9187,0.0879,-0.2872,-0.7813,-0.0050,-0.2377,0.2414,0.0591,-2.6202,1.4680,3.0972
2024-10-11T11:58:49.610Z,0.0094,-0.9252,0.0796,-0.2872,-0.7813,-0.0050,-0.2383,0.2191,0.0553,-2.6202,1.4680,3.0972
2024-10-11T11:58:49.621Z,0.0165,-0.9294,0.1065,-0.1194,-0.6530,0.0002,-0.2447,0.1927,0.0497,-2.6361,1.4752,3.1198
2024-10-11T11:58:49.631Z,0.0133,-0.9207,0.1300,-0.1194,-0.6530,0.0002,-0.2436,0.1573,0.0433,-2.6361,1.4752,3.1198
2024-10-11T11:58:49.641Z,0.0179,-0.9246,0.1287,-0.1194,-0.6530,0.0002,-0.2422,0.1277,0.0365,-2.6361,1.4752,3.1198
2024-10-11T11:58:49.651Z,-0.0295,-0.9161,0.1108,0.0262,-0.7258,-0.2970,-0.2413,0.1106,0.0221,-2.6483,1.4825,3.1369
2024-10-11T11:58:49.661Z,-0.0421,-0.9018,0.1138,0.0262,-0.7258,-0.2970,-0.2403,0.0850,0.0105,-2.6483,1.4825,3.1369
2024-10-11T11:58:49.671Z,-0.0414,-0.9029,0.0950,0.0262,-0.7258,-0.2970,-0.2314,0.0669,-0.0031,-2.6483,1.4825,3.1369
2024-10-11T11:58:49.681Z,-0.0305,-0.9120,0.0581,0.3589,-0.8750,0.0709,-0.2259,0.0480,-0.0195,-2.6507,1.4896,-3.1415
2024-10-11T11:58:49.691Z,-0.0320,-0.9141,0.0400,0.3589,-0.8750,0.0709,-0.2150,0.0285,-0.0320,-2.6507,1.4896,-3.1415
2024-10-11T11:58:49.701Z,-0.0289,-0.9192,0.0338,0.3589,-0.8750,0.0709,-0.2018,0.0033,-0.0431,-2.6507,1.4896,-3.1415
2024-10-11T11:58:49.711Z,-0.0104,-0.9234,-0.0019,0.2114,-0.7253,0.5558,-0.1867,-0.0191,-0.0571,-2.6377,1.4959,3.1290
2024-10-11T11:58:49.721Z,0.0135,-0.9235,-0.0367,0.2114,-0.7253,0.5558,-0.1656,-0.0440,-0.0593,-2.6377,1.4959,3.1290
2024-10-11T11:58:49.731Z,0.0226,-0.9270,-0.0601,0.2114,-0.7253,0.5558,-0.1443,-0.0703,-0.0699,-2.6377,1.4959,3.1290
2024-10-11T11:58:49.741Z,0.0119,-0.9392,-0.0412,-0.1578,-0.6417,1.2228,-0.1231,-0.0965,-0.0790,-2.6102,1.5007,3.0998
2024-10-11T11:58:49.751Z,0.0093,-0.9409,-0.0195,-0.1578,-0.6417,1.2228,-0.1080,-0.1322,-0.0857,-2.6102,1.5007,3.0998
2024-10-11T11:58:49.761Z,0.0235,-0.9334,0.0078,-0.1578,-0.6417,1.2228,-0.0888,-0.1541,-0.0919,-2.6102,1.5007,3.0998
2024-10-11T11:58:49.771Z,0.0279,-0.9419,0.0231,-0.1809,-0.5925,0.4587,-0.0746,-0.1790,-0.0971,-2.5695,1.5036,3.0551
2024-10-11T11:58:49.781Z,0.0452,-0.9475,0.0512,-0.1809,-0.5925,0.4587,-0.0598,-0.2073,-0.1003,-2.5695,1.5036,3.0551
2024-10-11T11:58:49.791Z,0.0448,-0.9503,0.0845,-0.1809,-0.5925,0.4587,-0.0479,-0.2397,-0.1058,-2.5695,1.5036,3.0551
2024-10-11T11:58:49.801Z,0.0271,-0.9518,0.0809,-0.2550,-0.4662,-0.1988,-0.0311,-0.2730,-0.1114,-2.5207,1.5049,2.9996
2024-10-11T11:58:49.811Z,0.0143,-0.9507,0.0988,-0.2550,-0.4662,-0.1988,-0.0250,-0.2983,-0.1192,-2.5207,1.5049,2.9996
2024-10-11T11:58:49.821Z,0.0010,-0.9520,0.1181,-0.2550,-0.4662,-0.1988,-0.0175,-0.3346,-0.1257,-2.5207,1.5049,2.9996
2024-10-11T11:58:49.831Z,0.0158,-0.9973,0.1173,0.0522,-0.3071,-0.5669,-0.0109,-0.3693,-0.1286,-2.4648,1.5049,2.9343
2024-10-11T11:58:49.840Z,-0.0098,-1.0600,0.0925,0.0522,-0.3071,-0.5669,-0.0022,-0.3863,-0.1426,-2.4648,1.5049,2.9343
2024-10-11T11:58:49.851Z,0.0027,-1.1016,0.0529,0.0522,-0.3071,-0.5669,0.0086,-0.4035,-0.1514,-2.4648,1.5049,2.9343
2024-10-11T11:58:49.861Z,0.0151,-1.1277,0.0149,0.0516,1.1373,0.3784,0.0128,-0.4036,-0.1607,-2.4028,1.5038,2.8604
2024-10-11T11:58:49.871Z,0.0437,-1.1645,0.0144,0.0516,1.1373,0.3784,0.0193,-0.4179,-0.1599,-2.4028,1.5038,2.8604
2024-10-11T11:58:49.881Z,0.0795,-1.1880,0.0282,0.0516,1.1373,0.3784,0.0246,-0.4303,-0.1527,-2.4028,1.5038,2.8604
2024-10-11T11:58:49.890Z,0.0992,-1.2165,0.0474,-0.6205,1.9899,0.2632,0.0340,-0.4438,-0.1417,-2.3403,1.5018,2.7853
2024-10-11T11:58:49.901Z,0.1294,-1.2491,0.0213,-0.6205,1.9899,0.2632,0.0510,-0.4517,-0.1271,-2.3403,1.5018,2.7853
2024-10-11T11:58:49.911Z,0.1198,-1.2551,0.0155,-0.6205,1.9899,0.2632,0.0697,-0.4473,-0.1066,-2.3403,1.5018,2.7853
2024-10-11T11:58:49.921Z,0.1190,-1.2505,0.0373,-0.8688,2.5278,0.4232,0.0822,-0.4366,-0.0901,-2.3012,1.4989,2.7328
2024-10-11T11:58:49.931Z,0.1184,-1.2302,0.0864,-0.8688,2.5278,0.4232,0.0848,-0.4206,-0.0736,-2.3012,1.4989,2.7328
2024-10-11T11:58:49.941Z,0.1009,-1.1984,0.1490,-0.5992,1.7876,-1.0624,0.0761,-0.4035,-0.0538,-2.2896,1.4958,2.7084
2024-10-11T11:58:49.951Z,0.0913,-1.1599,0.1917,-0.5992,1.7876,-1.0624,0.0638,-0.3911,-0.0316,-2.2896,1.4958,2.7084
2024-10-11T11:58:49.961Z,0.0884,-1.1333,0.2242,-0.5992,1.7876,-1.0624,0.0392,-0.3627,-0.0141,-2.2896,1.4958,2.7084
2024-10-11T11:58:49.972Z,0.0669,-1.1038,0.2512,-0.2075,0.9520,-1.8453,0.0153,-0.3343,-0.0018,-2.2910,1.4947,2.6989
2024-10-11T11:58:49.981Z,0.0404,-1.0907,0.2529,-0.2075,0.9520,-1.8453,-0.0076,-0.3003,0.0054,-2.2910,1.4947,2.6989
2024-10-11T11:58:49.991Z,0.0122,-1.0917,0.2714,-0.2075,0.9520,-1.8453,-0.0320,-0.2677,0.0077,-2.2910,1.4947,2.6989
2024-10-11T11:58:50.001Z,0.0063,-1.0860,0.2596,0.2430,0.8262,-1.8219,-0.0508,-0.2339,0.0100,-2.2880,1.4957,2.6880
2024-10-11T11:58:50.011Z,0.0153,-1.0782,0.2359,0.2430,0.8262,-1.8219,-0.0640,-0.2096,0.0192,-2.2880,1.4957,2.6880
2024-10-11T11:58:50.021Z,0.0418,-1.0772,0.1991,0.2430,0.8262,-1.8219,-0.0664,-0.1850,0.0325,-2.2880,1.4957,2.6880
2024-10-11T11:58:50.031Z,0.0550,-1.0835,0.1583,-0.2199,0.8737,-0.7906,-0.0606,-0.1795,0.0436,-2.2889,1.4979,2.6833
2024-10-11T11:58:50.041Z,0.0449,-1.0958,0.1200,-0.2199,0.8737,-0.7906,-0.0518,-0.1733,0.0586,-2.2889,1.4979,2.6833
2024-10-11T11:58:50.051Z,0.0330,-1.1072,0.1209,-0.2199,0.8737,-0.7906,-0.0423,-0.1537,0.0712,-2.2889,1.4979,2.6833
2024-10-11T11:58:50.062Z,0.0225,-1.1210,0.1063,0.1855,1.2436,-0.3884,-0.0354,-0.1224,0.0816,-2.3081,1.5000,2.6984
2024-10-11T11:58:50.071Z,0.0029,-1.1281,0.1070,0.1855,1.2436,-0.3884,-0.0242,-0.1048,0.0905,-2.3081,1.5000,2.6984
2024-10-11T11:58:50.081Z,-0.0068,-1.1347,0.0799,0.1855,1.2436,-0.3884,-0.0112,-0.1000,0.0997,-2.3081,1.5000,2.6984
2024-10-11T11:58:50.091Z,-0.0085,-1.1309,0.0514,0.2732,1.2598,0.2093,0.0050,-0.0864,0.1090,-2.3473,1.5015,2.7345
2024-10-11T11:58:50.101Z,0.0068,-1.1228,0.0434,0.2732,1.2598,0.2093,0.0173,-0.0708,0.1205,-2.3473,1.5015,2.7345
2024-10-11T11:58:50.111Z,0.0086,-1.1199,0.0436,0.2732,1.2598,0.2093,0.0269,-0.0568,0.1246,-2.3473,1.5015,2.7345
2024-10-11T11:58:50.121Z,-0.0029,-1.1247,0.0709,0.2834,1.2841,-0.1925,0.0322,-0.0310,0.1250,-2.4014,1.5021,2.7869
2024-10-11T11:58:50.130Z,-0.0008,-1.1324,0.1048,0.2834,1.2841,-0.1925,0.0358,-0.0168,0.1223,-2.4014,1.5021,2.7869
2024-10-11T11:58:50.141Z,0.0074,-1.1431,0.1321,0.2834,1.2841,-0.1925,0.0568,-0.0619,0.1279,-2.4014,1.5021,2.7869
2024-10-11T11:58:50.151Z,0.0380,-1.1541,0.1302,0.1253,1.5835,-0.6209,0.0626,-0.0207,0.1198,-2.4576,1.5020,2.8438
2024-10-11T11:58:50.161Z,-0.0264,-1.1613,0.1353,0.1253,1.5835,-0.6209,0.0718,0.0233,0.1099,-2.4576,1.5020,2.8438
2024-10-11T11:58:50.171Z,-0.0198,-1.1705,0.1609,0.1253,1.5835,-0.6209,0.0882,0.0272,0.1015,-2.4576,1.5020,2.8438
2024-10-11T11:58:50.181Z,0.0037,-1.1814,0.1944,0.0234,1.8311,-1.3562,0.1029,0.0371,0.1030,-2.5114,1.5003,2.8984
2024-10-11T11:58:50.191Z,0.0335,-1.1901,0.2068,0.0234,1.8311,-1.3562,0.1110,0.0422,0.1030,-2.5114,1.5003,2.8984
2024-10-11T11:58:50.201Z,0.0434,-1.2015,0.2272,0.0234,1.8311,-1.3562,0.1197,0.0337,0.1043,-2.5114,1.5003,2.8984
2024-10-11T11:58:50.213Z,0.0086,-1.2004,0.2160,0.1803,1.9687,-1.5337,0.1296,0.0142,0.1073,-2.5657,1.4975,2.9533
2024-10-11T11:58:50.221Z,-0.0085,-1.1981,0.2393,0.1803,1.9687,-1.5337,0.1272,0.0064,0.1101,-2.5657,1.4975,2.9533
2024-10-11T11:58:50.230Z,-0.0098,-1.1987,0.2513,0.1803,1.9687,-1.5337,0.1242,-0.0054,0.1083,-2.5657,1.4975,2.9533
2024-10-11T11:58:50.242Z,-0.0226,-1.2090,0.2559,0.4210,2.1832,-1.8471,0.1246,-0.0203,0.1084,-2.6163,1.4942,3.0033
2024-10-11T11:58:50.251Z,-0.0450,-1.2323,0.2651,0.4210,2.1832,-1.8471,0.1203,-0.0379,0.0996,-2.6163,1.4942,3.0033
2024-10-11T11:58:50.262Z,-0.0555,-1.2604,0.2653,0.4210,2.1832,-1.8471,0.1168,-0.0468,0.0938,-2.6163,1.4942,3.0033
2024-10-11T11:58:50.272Z,-0.0367,-1.2755,0.2513,0.3201,2.7671,-1.6193,0.1134,-0.0472,0.0851,-2.6573,1.4910,3.0424
2024-10-11T11:58:50.281Z,-0.0187,-1.2823,0.2435,0.3201,2.7671,-1.6193,0.1107,-0.0523,0.0820,-2.6573,1.4910,3.0424
2024-10-11T11:58:50.291Z,-0.0100,-1.2816,0.2367,0.3201,2.7671,-1.6193,0.1093,-0.0649,0.0729,-2.6573,1.4910,3.0424
2024-10-11T11:58:50.301Z,-0.0190,-1.2703,0.2366,0.3201,2.7671,-1.6193,0.1029,-0.0693,0.0668,-2.6573,1.4910,3.0424
2024-10-11T11:58:50.311Z,-0.0203,-1.2551,0.2470,0.2859,2.6263,-1.5374,0.0967,-0.0744,0.0593,-2.6873,1.4879,3.0702
2024-10-11T11:58:50.321Z,-0.0083,-1.2280,0.2653,0.2859,2.6263,-1.5374,0.0855,-0.0747,0.0536,-2.6873,1.4879,3.0702
2024-10-11T11:58:50.331Z,-0.0060,-1.1969,0.2764,0.2859,2.6263,-1.5374,0.0696,-0.0658,0.0492,-2.6873,1.4879,3.0702
2024-10-11T11:58:50.341Z,-0.0014,-1.1758,0.2757,0.1024,1.8645,-1.8418,0.0589,-0.0553,0.0449,-2.7085,1.4856,3.0890
2024-10-11T11:58:50.351Z,0.0118,-1.1594,0.2565,0.1024,1.8645,-1.8418,0.0508,-0.0425,0.0437,-2.7085,1.4856,3.0890
2024-10-11T11:58:50.361Z,0.0213,-1.1638,0.2081,0.1024,1.8645,-1.8418,0.0512,-0.0252,0.0445,-2.7085,1.4856,3.0890
2024-10-11T11:58:50.371Z,0.0217,-1.1925,0.1611,-0.1827,1.7755,-0.9623,0.0594,-0.0058,0.0393,-2.7251,1.4841,3.1041
2024-10-11T11:58:50.381Z,0.0298,-1.2171,0.1393,-0.1827,1.7755,-0.9623,0.0673,0.0111,0.0402,-2.7251,1.4841,3.1041
2024-10-11T11:58:50.391Z,0.0264,-1.2334,0.1309,-0.1827,1.7755,-0.9623,0.0733,0.0387,0.0339,-2.7251,1.4841,3.1041
2024-10-11T11:58:50.401Z,0.0011,-1.2390,0.1339,-0.1130,2.3676,-0.4200,0.0769,0.0649,0.0302,-2.7385,1.4821,3.1180
2024-10-11T11:58:50.411Z,0.0173,-1.2285,0.1521,-0.1130,2.3676,-0.4200,0.0789,0.0905,0.0280,-2.7385,1.4821,3.1180
2024-10-11T11:58:50.421Z,0.0608,-1.2073,0.1671,-0.1130,2.3676,-0.4200,0.0782,0.1092,0.0341,-2.7385,1.4821,3.1180
2024-10-11T11:58:50.430Z,0.0728,-1.1979,0.1850,-0.7216,2.0097,-0.8496,0.0709,0.1299,0.0382,-2.7494,1.4798,3.1316
2024-10-11T11:58:50.441Z,0.0592,-1.1837,0.2060,-0.7216,2.0097,-0.8496,0.0631,0.1419,0.0393,-2.7494,1.4798,3.1316
2024-10-11T11:58:50.451Z,0.0665,-1.1526,0.2287,-0.7216,2.0097,-0.8496,0.0616,0.1497,0.0416,-2.7494,1.4798,3.1316
2024-10-11T11:58:50.462Z,0.0489,-1.1434,0.2372,-0.5840,1.4726,-1.3758,0.0527,0.1543,0.0455,-2.7627,1.4779,-3.1343
2024-10-11T11:58:50.471Z,0.0649,-1.1251,0.2445,-0.5840,1.4726,-1.3758,0.0541,0.1532,0.0477,-2.7627,1.4779,-3.1343
2024-10-11T11:58:50.482Z,0.0719,-1.1157,0.2381,-0.5840,1.4726,-1.3758,0.0534,0.1528,0.0531,-2.7627,1.4779,-3.1343
2024-10-11T11:58:50.491Z,0.0736,-1.1033,0.2522,-0.7276,1.1327,-1.4400,0.0552,0.1444,0.0620,-2.7784,1.4762,-3.1144
2024-10-11T11:58:50.501Z,0.0805,-1.0936,0.2738,-0.7276,1.1327,-1.4400,0.0614,0.1351,0.0703,-2.7784,1.4762,-3.1144
2024-10-11T11:58:50.511Z,0.0647,-1.0861,0.2829,-0.7276,1.1327,-1.4400,0.0747,0.1287,0.0858,-2.7784,1.4762,-3.1144
2024-10-11T11:58:50.521Z,0.0611,-1.0841,0.2651,-0.6404,0.8813,-1.7310,0.0866,0.1394,0.1001,-2.8020,1.4741,-3.0872
2024-10-11T11:58:50.530Z,0.0595,-1.0874,0.2548,-0.6404,0.8813,-1.7310,0.1033,0.1574,0.1128,-2.8020,1.4741,-3.0872
2024-10-11T11:58:50.541Z,0.0542,-1.0844,0.2555,-0.6404,0.8813,-1.7310,0.1205,0.1957,0.1229,-2.8020,1.4741,-3.0872
2024-10-11T11:58:50.551Z,0.0338,-1.1028,0.2393,-0.5375,0.9207,-1.4654,0.1397,0.2465,0.1315,-2.8347,1.4706,-3.0498
2024-10-11T11:58:50.561Z,0.0050,-1.1379,0.2112,-0.5375,0.9207,-1.4654,0.1617,0.2993,0.1373,-2.8347,1.4706,-3.0498
2024-10-11T11:58:50.571Z,-0.0075,-1.1649,0.2092,-0.5375,0.9207,-1.4654,0.1772,0.3496,0.1480,-2.8347,1.4706,-3.0498
2024-10-11T11:58:50.581Z,-0.0282,-1.2047,0.2269,-0.0138,1.8493,-1.1579,0.1892,0.4019,0.1549,-2.8710,1.4652,-3.0048
2024-10-11T11:58:50.591Z,-0.0752,-1.2375,0.2230,-0.0138,1.8493,-1.1579,0.2005,0.4551,0.1586,-2.8710,1.4652,-3.0048
2024-10-11T11:58:50.601Z,-0.1094,-1.2438,0.2214,-0.0138,1.8493,-1.1579,0.2041,0.5003,0.1549,-2.8710,1.4652,-3.0048
2024-10-11T11:58:50.611Z,-0.1666,-1.2281,0.2261,1.1225,2.4261,-1.0771,0.2032,0.5543,0.1463,-2.9049,1.4585,-2.9574
2024-10-11T11:58:50.620Z,-0.2184,-1.2013,0.2622,1.1225,2.4261,-1.0771,0.1933,0.5927,0.1336,-2.9049,1.4585,-2.9574
2024-10-11T11:58:50.631Z,-0.2236,-1.1698,0.2836,1.1225,2.4261,-1.0771,0.1879,0.6122,0.1128,-2.9049,1.4585,-2.9574
2024-10-11T11:58:50.641Z,-0.2502,-1.1403,0.2288,2.0020,1.5868,-1.4642,0.1874,0.6465,0.0862,-2.9270,1.4521,-2.9179
2024-10-11T11:58:50.651Z,-0.3152,-1.0941,0.1689,2.0020,1.5868,-1.4642,0.1883,0.6570,0.0642,-2.9270,1.4521,-2.9179
2024-10-11T11:58:50.661Z,-0.2643,-1.0512,0.1446,2.0020,1.5868,-1.4642,0.1809,0.6301,0.0419,-2.9270,1.4521,-2.9179
2024-10-11T11:58:50.671Z,-0.2362,-1.0224,0.1290,1.9713,0.4369,-0.2082,0.1892,0.5700,0.0278,-2.9304,1.4462,-2.8955
2024-10-11T11:58:50.681Z,-0.1901,-0.9973,0.0946,1.9713,0.4369,-0.2082,0.1801,0.5291,0.0017,-2.9304,1.4462,-2.8955
2024-10-11T11:58:50.691Z,-0.1777,-0.9969,0.0797,1.9713,0.4369,-0.2082,0.1721,0.4987,-0.0289,-2.9304,1.4462,-2.8955
2024-10-11T11:58:50.701Z,-0.1484,-0.9811,0.0739,1.3975,0.0023,0.4759,0.1694,0.4703,-0.0551,-2.9181,1.4414,-2.8902
2024-10-11T11:58:50.712Z,-0.0820,-0.9765,0.0296,1.3975,0.0023,0.4759,0.1731,0.4350,-0.0857,-2.9181,1.4414,-2.8902
2024-10-11T11:58:50.721Z,-0.0818,-0.9724,0.0030,1.3975,0.0023,0.4759,0.1858,0.4078,-0.1167,-2.9181,1.4414,-2.8902
2024-10-11T11:58:50.731Z,-0.0668,-0.9689,0.0019,0.4944,-0.2141,1.2718,0.2043,0.3694,-0.1428,-2.8878,1.4370,-2.9071
2024-10-11T11:58:50.741Z,-0.0382,-0.9671,0.0119,0.4944,-0.2141,1.2718,0.2192,0.3359,-0.1623,-2.8878,1.4370,-2.9071
2024-10-11T11:58:50.751Z,-0.0052,-0.9535,0.0134,0.4944,-0.2141,1.2718,0.2339,0.2928,-0.1763,-2.8878,1.4370,-2.9071
2024-10-11T11:58:50.762Z,0.0675,-0.9440,0.0342,-0.5942,-0.4341,1.1022,0.2502,0.2387,-0.1815,-2.8423,1.4315,-2.9429
2024-10-11T11:58:50.771Z,0.0652,-0.9476,0.0173,-0.5942,-0.4341,1.1022,0.2597,0.1869,-0.1910,-2.8423,1.4315,-2.9429
2024-10-11T11:58:50.781Z,0.0641,-0.9526,0.0076,-0.5942,-0.4341,1.1022,0.2638,0.1382,-0.1939,-2.8423,1.4315,-2.9429
2024-10-11T11:58:50.791Z,0.0877,-0.9345,0.0021,-0.9955,-0.4095,1.3839,0.2641,0.0877,-0.1966,-2.7936,1.4248,-2.9862
2024-10-11T11:58:50.801Z,0.0965,-0.9177,0.0083,-0.9955,-0.4095,1.3839,0.2592,0.0214,-0.1958,-2.7936,1.4248,-2.9862
2024-10-11T11:58:50.811Z,0.0634,-0.8980,0.0217,-0.9955,-0.4095,1.3839,0.2457,-0.0322,-0.1960,-2.7936,1.4248,-2.9862
2024-10-11T11:58:50.820Z,0.0672,-0.8773,0.0635,-0.6940,-0.9986,1.1112,0.2356,-0.0989,-0.1893,-2.7479,1.4180,-3.0314
2024-10-11T11:58:50.831Z,0.0956,-0.8688,0.0990,-0.6940,-0.9986,1.1112,0.2258,-0.1717,-0.1769,-2.7479,1.4180,-3.0314
2024-10-11T11:58:50.841Z,0.0992,-0.8721,0.1163,-0.6940,-0.9986,1.1112,0.2196,-0.2371,-0.1607,-2.7479,1.4180,-3.0314
2024-10-11T11:58:50.851Z,0.0750,-0.8647,0.1425,-0.9965,-1.1464,0.2853,0.2166,-0.2860,-0.1451,-2.7112,1.4117,-3.0732
2024-10-11T11:58:50.862Z,0.0620,-0.8569,0.1730,-0.9965,-1.1464,0.2853,0.2106,-0.3301,-0.1319,-2.7112,1.4117,-3.0732
2024-10-11T11:58:50.871Z,0.0606,-0.8508,0.2017,-0.9965,-1.1464,0.2853,0.2037,-0.3588,-0.1205,-2.7112,1.4117,-3.0732
2024-10-11T11:58:50.881Z,0.0160,-0.8607,0.2184,-0.4382,-1.3117,-0.4297,0.2002,-0.3767,-0.1226,-2.6853,1.4056,-3.1089
2024-10-11T11:58:50.891Z,-0.0158,-0.8925,0.1978,-0.4382,-1.3117,-0.4297,0.1933,-0.3800,-0.1258,-2.6853,1.4056,-3.1089
2024-10-11T11:58:50.901Z,-0.0222,-0.9246,0.1824,-0.4382,-1.3117,-0.4297,0.1840,-0.3876,-0.1294,-2.6853,1.4056,-3.1089
2024-10-11T11:58:50.912Z,-0.0225,-0.9521,0.1501,0.1792,-0.4423,0.0405,0.1760,-0.3776,-0.1350,-2.6621,1.3999,3.1397
2024-10-11T11:58:50.921Z,-0.0337,-0.9452,0.1489,0.1792,-0.4423,0.0405,0.1503,-0.3695,-0.1396,-2.6621,1.3999,3.1397
2024-10-11T11:58:50.931Z,0.0020,-0.9504,0.1151,0.1792,-0.4423,0.0405,0.1368,-0.3665,-0.1416,-2.6621,1.3999,3.1397
2024-10-11T11:58:50.941Z,-0.0070,-0.9724,0.1098,0.0428,-0.1614,0.6569,0.1185,-0.3415,-0.1444,-2.6385,1.3953,3.1050
2024-10-11T11:58:50.951Z,0.0058,-0.9359,0.1072,0.0428,-0.1614,0.6569,0.0989,-0.3229,-0.1478,-2.6385,1.3953,3.1050
2024-10-11T11:58:50.964Z,-0.0066,-0.9279,0.0910,0.2347,-0.6288,0.8793,0.0873,-0.2921,-0.1533,-2.6153,1.3918,3.0708
2024-10-11T11:58:50.971Z,0.0048,-0.9126,0.0833,0.2347,-0.6288,0.8793,0.0735,-0.2803,-0.1584,-2.6153,1.3918,3.0708
2024-10-11T11:58:50.981Z,0.0426,-0.9095,0.0967,0.2347,-0.6288,0.8793,0.0608,-0.2647,-0.1579,-2.6153,1.3918,3.0708
2024-10-11T11:58:50.991Z,0.0646,-0.9028,0.0664,0.2347,-0.6288,0.8793,0.0552,-0.2485,-0.1552,-2.6153,1.3918,3.0708
2024-10-11T11:58:51.001Z,0.0886,-0.9044,0.0123,-0.6166,-0.7952,1.4002,0.0506,-0.2128,-0.1519,-2.5908,1.3895,3.0383
2024-10-11T11:58:51.012Z,0.1018,-0.9042,-0.0034,-0.6166,-0.7952,1.4002,0.0488,-0.1903,-0.1430,-2.5908,1.3895,3.0383
2024-10-11T11:58:51.021Z,0.1367,-0.8943,-0.0001,-0.6166,-0.7952,1.4002,0.0472,-0.1820,-0.1340,-2.5908,1.3895,3.0383
2024-10-11T11:58:51.030Z,0.1448,-0.8788,-0.0105,-1.2059,-0.9474,1.7386,0.0541,-0.1687,-0.1214,-2.5687,1.3876,3.0107
2024-10-11T11:58:51.041Z,0.1564,-0.8537,-0.0362,-1.2059,-0.9474,1.7386,0.0489,-0.1704,-0.1054,-2.5687,1.3876,3.0107
2024-10-11T11:58:51.051Z,0.1600,-0.8323,-0.0011,-1.2059,-0.9474,1.7386,0.0471,-0.1694,-0.0911,-2.5687,1.3876,3.0107
2024-10-11T11:58:51.062Z,0.1246,-0.8247,0.0273,-1.1193,-1.5088,1.6455,0.0478,-0.1706,-0.0840,-2.5532,1.3857,2.9905
2024-10-11T11:58:51.071Z,0.1084,-0.8112,0.0290,-1.1193,-1.5088,1.6455,0.0477,-0.1720,-0.0752,-2.5532,1.3857,2.9905
2024-10-11T11:58:51.081Z,0.1259,-0.8036,0.0137,-1.1193,-1.5088,1.6455,0.0496,-0.1737,-0.0632,-2.5532,1.3857,2.9905
2024-10-11T11:58:51.091Z,0.1452,-0.8071,0.0206,-1.0270,-1.7423,1.7437,0.0513,-0.1753,-0.0504,-2.5431,1.3839,2.9753
2024-10-11T11:58:51.101Z,0.1619,-0.8111,0.0545,-1.0270,-1.7423,1.7437,0.0469,-0.1760,-0.0373,-2.5431,1.3839,2.9753
2024-10-11T11:58:51.114Z,0.1561,-0.8084,0.0595,-1.0832,-1.6416,1.3427,0.0476,-0.1790,-0.0234,-2.5393,1.3823,2.9659
2024-10-11T11:58:51.120Z,0.1296,-0.8216,0.0274,-1.0832,-1.6416,1.3427,0.0473,-0.1855,-0.0134,-2.5393,1.3823,2.9659
2024-10-11T11:58:51.131Z,0.1119,-0.8180,0.0019,-1.0832,-1.6416,1.3427,0.0524,-0.1863,-0.0044,-2.5393,1.3823,2.9659
2024-10-11T11:58:51.141Z,0.1151,-0.8114,-0.0211,-1.0832,-1.6416,1.3427,0.0536,-0.1833,0.0080,-2.5393,1.3823,2.9659
2024-10-11T11:58:51.151Z,0.1296,-0.7959,-0.0166,-0.8620,-1.7325,2.0268,0.0601,-0.1834,0.0168,-2.5407,1.3808,2.9615
2024-10-11T11:58:51.162Z,0.1325,-0.7840,-0.0046,-0.8620,-1.7325,2.0268,0.0587,-0.1780,0.0315,-2.5407,1.3808,2.9615
2024-10-11T11:58:51.171Z,0.1156,-0.7765,0.0415,-0.8620,-1.7325,2.0268,0.0505,-0.1653,0.0377,-2.5407,1.3808,2.9615
2024-10-11T11:58:51.181Z,0.0977,-0.7681,0.0885,-0.7195,-2.0696,1.1413,0.0475,-0.1425,0.0452,-2.5473,1.3793,2.9625
2024-10-11T11:58:51.191Z,0.0949,-0.7757,0.0992,-0.7195,-2.0696,1.1413,0.0427,-0.1214,0.0481,-2.5473,1.3793,2.9625
2024-10-11T11:58:51.201Z,0.0923,-0.7890,0.1052,-0.7195,-2.0696,1.1413,0.0393,-0.0936,0.0556,-2.5473,1.3793,2.9625
2024-10-11T11:58:51.211Z,0.0738,-0.8088,0.1289,-0.4655,-1.7980,0.6983,0.0386,-0.0669,0.0586,-2.5565,1.3782,2.9679
2024-10-11T11:58:51.221Z,0.0730,-0.8218,0.1451,-0.4655,-1.7980,0.6983,0.0327,-0.0415,0.0655,-2.5565,1.3782,2.9679
2024-10-11T11:58:51.231Z,0.0722,-0.8334,0.1181,-0.4655,-1.7980,0.6983,0.0336,-0.0207,0.0664,-2.5565,1.3782,2.9679
2024-10-11T11:58:51.242Z,0.0434,-0.8473,0.1077,-0.2865,-1.3918,0.8143,0.0170,-0.0062,0.0750,-2.5676,1.3775,2.9774
2024-10-11T11:58:51.251Z,0.0478,-0.8575,0.1349,-0.2865,-1.3918,0.8143,0.0170,-0.0062,0.0750,-2.5676,1.3775,2.9774
2024-10-11T11:58:51.260Z,0.0547,-0.8561,0.1702,-0.2865,-1.3918,0.8143,0.0047,-0.0065,0.0787,-2.5676,1.3775,2.9774
2024-10-11T11:58:51.272Z,0.0221,-0.8512,0.1670,-0.0864,-1.2524,0.2275,-0.0251,-0.0201,0.0845,-2.5795,1.3774,2.9887
2024-10-11T11:58:51.281Z,0.0229,-0.8427,0.1614,-0.0864,-1.2524,0.2275,-0.0251,-0.0201,0.0845,-2.5795,1.3774,2.9887
2024-10-11T11:58:51.292Z,0.0202,-0.8371,0.1548,-0.0864,-1.2524,0.2275,-0.0397,-0.0557,0.0713,-2.5795,1.3774,2.9887
2024-10-11T11:58:51.302Z,-0.0192,-0.8332,0.1536,0.2130,-1.4238,0.3326,-0.0452,-0.0685,0.0610,-2.5913,1.3784,2.9992
2024-10-11T11:58:51.312Z,-0.0607,-0.8314,0.1392,0.2130,-1.4238,0.3326,-0.0426,-0.0828,0.0499,-2.5913,1.3784,2.9992
2024-10-11T11:58:51.322Z,-0.0746,-0.8367,0.1422,0.2130,-1.4238,0.3326,-0.0437,-0.0980,0.0385,-2.5913,1.3784,2.9992
2024-10-11T11:58:51.330Z,-0.0556,-0.8407,0.1447,0.8903,-1.4066,0.3933,-0.0437,-0.0980,0.0385,-2.5993,1.3799,3.0047
2024-10-11T11:58:51.341Z,-0.0681,-0.8392,0.1301,0.8903,-1.4066,0.3933,-0.0418,-0.1148,0.0168,-2.5993,1.3799,3.0047
2024-10-11T11:58:51.351Z,-0.0802,-0.8365,0.1128,0.8903,-1.4066,0.3933,-0.0418,-0.1148,0.0168,-2.5993,1.3799,3.0047
2024-10-11T11:58:51.362Z,-0.0728,-0.8409,0.1126,1.0839,-1.4355,0.7571,-0.0439,-0.1416,-0.0019,-2.6025,1.3811,3.0037
2024-10-11T11:58:51.372Z,-0.0706,-0.8508,0.1243,1.0839,-1.4355,0.7571,-0.0464,-0.1649,-0.0054,-2.6025,1.3811,3.0037
2024-10-11T11:58:51.380Z,-0.0599,-0.8483,0.1317,1.0839,-1.4355,0.7571,-0.0464,-0.1649,-0.0054,-2.6025,1.3811,3.0037
2024-10-11T11:58:51.391Z,-0.0327,-0.8392,0.1141,0.6356,-1.3345,0.5578,-0.0597,-0.1977,-0.0103,-2.6018,1.3822,2.9971
2024-10-11T11:58:51.402Z,-0.0563,-0.8376,0.1323,0.6356,-1.3345,0.5578,-0.0643,-0.2147,-0.0086,-2.6018,1.3822,2.9971
2024-10-11T11:58:51.412Z,-0.0486,-0.8357,0.1406,0.6356,-1.3345,0.5578,-0.0682,-0.2133,-0.0119,-2.6018,1.3822,2.9971
2024-10-11T11:58:51.421Z,-0.0500,-0.8362,0.1140,0.7341,-1.4674,0.4959,-0.0696,-0.2103,-0.0079,-2.5989,1.3839,2.9879
2024-10-11T11:58:51.430Z,-0.0463,-0.8287,0.0811,0.7341,-1.4674,0.4959,-0.0696,-0.2103,-0.0079,-2.5989,1.3839,2.9879
2024-10-11T11:58:51.441Z,-0.0064,-0.8241,0.0935,0.7341,-1.4674,0.4959,-0.0806,-0.1756,0.0099,-2.5989,1.3839,2.9879
2024-10-11T11:58:51.452Z,0.0328,-0.8266,0.1299,0.1262,-1.5436,0.6725,-0.0886,-0.1578,0.0231,-2.5962,1.3860,2.9792
2024-10-11T11:58:51.461Z,0.0411,-0.8362,0.1461,0.1262,-1.5436,0.6725,-0.0917,-0.1503,0.0397,-2.5962,1.3860,2.9792
2024-10-11T11:58:51.472Z,0.0710,-0.8184,0.0930,0.1262,-1.5436,0.6725,-0.0917,-0.1503,0.0397,-2.5962,1.3860,2.9792
2024-10-11T11:58:51.480Z,0.0710,-0.8184,0.0930,-0.3638,-1.5349,0.5905,-0.0824,-0.1463,0.0591,-2.5987,1.3887,2.9765
2024-10-11T11:58:51.491Z,0.0617,-0.8075,0.0672,-0.3638,-1.5349,0.5905,-0.0791,-0.1336,0.0813,-2.5987,1.3887,2.9765
2024-10-11T11:58:51.501Z,0.0497,-0.7870,0.1021,-0.3638,-1.5349,0.5905,-0.0751,-0.1276,0.0898,-2.5987,1.3887,2.9765
2024-10-11T11:58:51.511Z,0.0332,-0.7711,0.1293,-0.1368,-2.0279,0.5179,-0.0724,-0.1263,0.0943,-2.6088,1.3913,2.9819
2024-10-11T11:58:51.521Z,0.0346,-0.7785,0.1233,-0.1368,-2.0279,0.5179,-0.0704,-0.1175,0.0976,-2.6088,1.3913,2.9819
2024-10-11T11:58:51.531Z,0.0298,-0.7921,0.1389,-0.1368,-2.0279,0.5179,-0.0699,-0.0928,0.1033,-2.6088,1.3913,2.9819
2024-10-11T11:58:51.541Z,0.0099,-0.8105,0.1366,0.0957,-1.8156,0.3778,-0.0774,-0.0693,0.1058,-2.6231,1.3939,2.9921
2024-10-11T11:58:51.551Z,0.0591,-0.8359,0.1735,0.0957,-1.8156,0.3778,-0.0891,-0.0477,0.1071,-2.6231,1.3939,2.9921
2024-10-11T11:58:51.561Z,0.0766,-0.8502,0.2170,-0.1842,-1.2392,-0.3828,-0.0891,-0.0477,0.1071,-2.6390,1.3968,3.0057
2024-10-11T11:58:51.571Z,-0.0030,-0.8687,0.1960,-0.1842,-1.2392,-0.3828,-0.1067,-0.0338,0.0886,-2.6390,1.3968,3.0057
2024-10-11T11:58:51.581Z,-0.0355,-0.8764,0.1715,-0.1842,-1.2392,-0.3828,-0.1162,-0.0265,0.0845,-2.6390,1.3968,3.0057
2024-10-11T11:58:51.591Z,-0.0171,-0.8768,0.1739,-0.1842,-1.2392,-0.3828,-0.1276,-0.0233,0.0769,-2.6390,1.3968,3.0057
2024-10-11T11:58:51.601Z,-0.0108,-0.8680,0.1782,0.3034,-1.1151,-0.1216,-0.1401,-0.0225,0.0765,-2.6520,1.4004,3.0174
2024-10-11T11:58:51.611Z,-0.0148,-0.8653,0.1727,0.3034,-1.1151,-0.1216,-0.1541,-0.0176,0.0711,-2.6520,1.4004,3.0174
2024-10-11T11:58:51.621Z,0.0064,-0.8669,0.1903,0.3034,-1.1151,-0.1216,-0.1617,-0.0105,0.0787,-2.6520,1.4004,3.0174
2024-10-11T11:58:51.631Z,0.0350,-0.8561,0.1946,-0.0075,-1.2247,-0.2887,-0.1768,-0.0095,0.0805,-2.6626,1.4049,3.0270
2024-10-11T11:58:51.641Z,0.0616,-0.8623,0.1760,-0.0075,-1.2247,-0.2887,-0.1885,-0.0158,0.0853,-2.6626,1.4049,3.0270
2024-10-11T11:58:51.652Z,0.0467,-0.8730,0.1935,-0.1976,-1.0746,-0.3629,-0.1948,-0.0247,0.0849,-2.6742,1.4104,3.0377
2024-10-11T11:58:51.661Z,0.0353,-0.8818,0.1808,-0.1976,-1.0746,-0.3629,-0.1980,-0.0221,0.0903,-2.6742,1.4104,3.0377
2024-10-11T11:58:51.671Z,0.0500,-0.8892,0.1118,-0.1976,-1.0746,-0.3629,-0.1992,-0.0196,0.0939,-2.6742,1.4104,3.0377
2024-10-11T11:58:51.681Z,0.0647,-0.8909,0.0589,-0.1976,-1.0746,-0.3629,-0.1993,-0.0145,0.0980,-2.6742,1.4104,3.0377
2024-10-11T11:58:51.691Z,0.0796,-0.8877,0.0527,-0.5755,-0.9736,1.0074,-0.2074,-0.0131,0.1040,-2.6878,1.4165,3.0503
2024-10-11T11:58:51.701Z,0.0932,-0.8909,0.0777,-0.5755,-0.9736,1.0074,-0.2069,-0.0155,0.1059,-2.6878,1.4165,3.0503
2024-10-11T11:58:51.712Z,0.0956,-0.8944,0.0835,-0.7228,-0.8920,0.7261,-0.2100,-0.0010,0.1136,-2.7048,1.4229,3.0667
2024-10-11T11:58:51.721Z,0.0862,-0.8992,0.0625,-0.7228,-0.8920,0.7261,-0.2111,-0.0018,0.1195,-2.7048,1.4229,3.0667
2024-10-11T11:58:51.731Z,0.1445,-0.8940,0.0654,-0.7228,-0.8920,0.7261,-0.2106,-0.0016,0.1235,-2.7048,1.4229,3.0667
2024-10-11T11:58:51.742Z,0.1248,-0.8936,0.0616,-0.7012,-0.9003,0.7702,-0.2164,-0.0099,0.1253,-2.7273,1.4295,3.0888
2024-10-11T11:58:51.752Z,0.0565,-0.8916,0.0947,-0.7012,-0.9003,0.7702,-0.2173,-0.0210,0.1254,-2.7273,1.4295,3.0888
2024-10-11T11:58:51.761Z,0.0481,-0.9062,0.0797,-0.7012,-0.9003,0.7702,-0.2179,-0.0226,0.1254,-2.7273,1.4295,3.0888
2024-10-11T11:58:51.771Z,0.0481,-0.9062,0.0797,-0.3016,-0.7275,0.5967,-0.2179,-0.0226,0.1254,-2.7529,1.4361,3.1134
2024-10-11T11:58:51.781Z,0.0254,-0.9270,0.0590,-0.3016,-0.7275,0.5967,-0.2178,-0.0163,0.1243,-2.7529,1.4361,3.1134
2024-10-11T11:58:51.791Z,0.0441,-0.9353,0.0407,-0.3016,-0.7275,0.5967,-0.2092,-0.0166,0.1210,-2.7529,1.4361,3.1134
2024-10-11T11:58:51.801Z,0.0291,-0.9520,0.0427,-0.3016,-0.7275,0.5967,-0.2104,-0.0174,0.1084,-2.7529,1.4361,3.1134
2024-10-11T11:58:51.812Z,-0.0550,-0.9598,0.0643,0.0191,-0.3280,0.7505,-0.2164,0.0134,0.0958,-2.7803,1.4425,3.1398
2024-10-11T11:58:51.821Z,-0.0550,-0.9598,0.0643,0.0191,-0.3280,0.7505,-0.2118,0.0002,0.0874,-2.7803,1.4425,3.1398
2024-10-11T11:58:51.831Z,-0.0394,-0.9547,0.0798,0.0191,-0.3280,0.7505,-0.2111,-0.0137,0.0683,-2.7803,1.4425,3.1398
2024-10-11T11:58:51.841Z,-0.1020,-0.9712,0.1474,0.4712,-0.3639,0.3277,-0.2161,-0.0218,0.0559,-2.8038,1.4485,-3.1217
2024-10-11T11:58:51.851Z,-0.1020,-0.9712,0.1474,0.4712,-0.3639,0.3277,-0.2116,-0.0382,0.0370,-2.8038,1.4485,-3.1217
2024-10-11T11:58:51.862Z,-0.0974,-0.9774,0.1466,1.0546,-0.0963,-0.1355,-0.2167,-0.0493,0.0250,-2.8186,1.4547,-3.1089
2024-10-11T11:58:51.871Z,-0.1215,-0.9902,0.1204,1.0546,-0.0963,-0.1355,-0.2259,-0.0695,0.0075,-2.8186,1.4547,-3.1089
2024-10-11T11:58:51.881Z,-0.1163,-0.9964,0.1539,1.0546,-0.0963,-0.1355,-0.2398,-0.0824,-0.0071,-2.8186,1.4547,-3.1089
2024-10-11T11:58:51.892Z,-0.1264,-1.0098,0.2001,1.2794,0.3048,-1.0214,-0.2596,-0.0882,-0.0254,-2.8220,1.4616,-3.1079
2024-10-11T11:58:51.901Z,-0.1362,-1.0384,0.2337,1.2794,0.3048,-1.0214,-0.2797,-0.1000,-0.0443,-2.8220,1.4616,-3.1079
2024-10-11T11:58:51.911Z,-0.1523,-1.0339,0.2232,1.2794,0.3048,-1.0214,-0.2953,-0.1135,-0.0665,-2.8220,1.4616,-3.1079
2024-10-11T11:58:51.921Z,-0.1523,-1.0339,0.2232,1.5395,0.3785,-0.9663,-0.3051,-0.1281,-0.0848,-2.8099,1.4700,-3.1232
2024-10-11T11:58:51.932Z,-0.1604,-1.0296,0.1787,1.5395,0.3785,-0.9663,-0.3144,-0.1466,-0.1024,-2.8099,1.4700,-3.1232
2024-10-11T11:58:51.941Z,-0.0982,-1.0000,0.1496,1.5395,0.3785,-0.9663,-0.3208,-0.1703,-0.1129,-2.8099,1.4700,-3.1232
2024-10-11T11:58:51.952Z,-0.0982,-1.0000,0.1496,0.8740,-0.0380,-0.5146,-0.3222,-0.1881,-0.1250,-2.7779,1.4794,3.1234
2024-10-11T11:58:51.961Z,-0.0819,-0.9802,0.1251,0.8740,-0.0380,-0.5146,-0.3240,-0.2158,-0.1333,-2.7779,1.4794,3.1234
2024-10-11T11:58:51.970Z,-0.0819,-0.9802,0.1251,0.8740,-0.0380,-0.5146,-0.3185,-0.2441,-0.1499,-2.7779,1.4794,3.1234
2024-10-11T11:58:51.982Z,-0.0736,-0.9667,0.0947,0.9357,-0.3726,0.0472,-0.3185,-0.2441,-0.1499,-2.7248,1.4888,3.0635
2024-10-11T11:58:51.992Z,-0.0813,-0.9570,0.0665,0.9357,-0.3726,0.0472,-0.3051,-0.3004,-0.1704,-2.7248,1.4888,3.0635
2024-10-11T11:58:52.002Z,-0.0087,-0.9860,0.0241,0.9357,-0.3726,0.0472,-0.2856,-0.3406,-0.1655,-2.7248,1.4888,3.0635
2024-10-11T11:58:52.012Z,-0.0087,-0.9860,0.0241,0.0607,0.1926,0.7588,-0.2665,-0.3519,-0.1686,-2.6469,1.4971,2.9763
2024-10-11T11:58:52.021Z,-0.0192,-1.1295,-0.0564,0.0607,0.1926,0.7588,-0.2519,-0.3655,-0.1739,-2.6469,1.4971,2.9763
2024-10-11T11:58:52.031Z,-0.0192,-1.1295,-0.0564,0.0607,0.1926,0.7588,-0.2500,-0.3602,-0.1871,-2.6469,1.4971,2.9763
2024-10-11T11:58:52.041Z,-0.0009,-1.1365,-0.0517,0.1648,1.3637,1.1687,-0.2410,-0.3498,-0.1839,-2.5497,1.5033,2.8684
2024-10-11T11:58:52.051Z,0.0142,-1.1416,-0.0514,0.1648,1.3637,1.1687,-0.2268,-0.3617,-0.1727,-2.5497,1.5033,2.8684
2024-10-11T11:58:52.061Z,0.1173,-1.1557,-0.0692,0.1648,1.3637,1.1687,-0.2100,-0.3662,-0.1555,-2.5497,1.5033,2.8684
2024-10-11T11:58:52.070Z,0.1173,-1.1557,-0.0692,0.1648,1.3637,1.1687,-0.1864,-0.3707,-0.1461,-2.5497,1.5033,2.8684
2024-10-11T11:58:52.082Z,0.1108,-1.1731,-0.0717,-0.8557,1.6336,1.2780,-0.1644,-0.3665,-0.1309,-2.4438,1.5080,2.7516
2024-10-11T11:58:52.091Z,0.1000,-1.2366,-0.0618,-0.8557,1.6336,1.2780,-0.1399,-0.3637,-0.1218,-2.4438,1.5080,2.7516
2024-10-11T11:58:52.102Z,0.1000,-1.2366,-0.0618,-0.6687,2.3751,1.1305,-0.1176,-0.3494,-0.1073,-2.3556,1.5105,2.6521
2024-10-11T11:58:52.111Z,0.1514,-1.2211,-0.0672,-0.6687,2.3751,1.1305,-0.0965,-0.3314,-0.0829,-2.3556,1.5105,2.6521
2024-10-11T11:58:52.121Z,0.1729,-1.1912,-0.0628,-0.6687,2.3751,1.1305,-0.0817,-0.3182,-0.0586,-2.3556,1.5105,2.6521
2024-10-11T11:58:52.133Z,0.1729,-1.1912,-0.0628,-1.2724,1.6753,1.1149,-0.0777,-0.2975,-0.0413,-2.2989,1.5118,2.5854
2024-10-11T11:58:52.141Z,0.1315,-1.0954,0.0059,-1.2724,1.6753,1.1149,-0.0773,-0.2645,-0.0178,-2.2989,1.5118,2.5854
2024-10-11T11:58:52.151Z,0.1457,-1.0583,0.0199,-1.2724,1.6753,1.1149,-0.0772,-0.2391,0.0015,-2.2989,1.5118,2.5854
2024-10-11T11:58:52.161Z,0.1457,-1.0583,0.0199,-1.0663,0.5078,0.1842,-0.0754,-0.2182,0.0157,-2.2727,1.5135,2.5511
2024-10-11T11:58:52.171Z,0.0490,-1.0818,0.0255,-1.0663,0.5078,0.1842,-0.0655,-0.2044,0.0176,-2.2727,1.5135,2.5511
2024-10-11T11:58:52.182Z,0.0048,-1.0954,0.0174,-1.0663,0.5078,0.1842,-0.0531,-0.1945,0.0215,-2.2727,1.5135,2.5511
2024-10-11T11:58:52.191Z,0.0048,-1.0954,0.0174,0.2382,0.9394,0.2585,-0.0358,-0.1888,0.0282,-2.2645,1.5153,2.5365
2024-10-11T11:58:52.201Z,0.0136,-1.0933,0.0196,0.2382,0.9394,0.2585,-0.0184,-0.1713,0.0370,-2.2645,1.5153,2.5365
2024-10-11T11:58:52.211Z,0.0471,-1.0991,0.0608,0.2382,0.9394,0.2585,-0.0024,-0.1587,0.0511,-2.2645,1.5153,2.5365
2024-10-11T11:58:52.222Z,0.0471,-1.0991,0.0608,-0.3408,0.9993,-0.3411,0.0053,-0.1486,0.0657,-2.2797,1.5164,2.5463
2024-10-11T11:58:52.232Z,0.0756,-1.0955,0.0946,-0.3408,0.9993,-0.3411,0.0162,-0.1386,0.0744,-2.2797,1.5164,2.5463
2024-10-11T11:58:52.241Z,0.0220,-1.1273,0.1111,-0.3408,0.9993,-0.3411,0.0307,-0.1363,0.0807,-2.2797,1.5164,2.5463
2024-10-11T11:58:52.251Z,0.0220,-1.1273,0.1111,0.1558,1.3358,-0.6681,0.0387,-0.1267,0.0806,-2.3217,1.5171,2.5840
2024-10-11T11:58:52.261Z,-0.0152,-1.1521,0.1193,0.1558,1.3358,-0.6681,0.0468,-0.1280,0.0821,-2.3217,1.5171,2.5840
2024-10-11T11:58:52.271Z,0.0079,-1.1511,0.1306,0.1558,1.3358,-0.6681,0.0495,-0.1254,0.0881,-2.3217,1.5171,2.5840
2024-10-11T11:58:52.282Z,0.0079,-1.1511,0.1306,-0.0721,1.5390,-0.8562,0.0556,-0.1117,0.0932,-2.3757,1.5172,2.6340
2024-10-11T11:58:52.291Z,0.0611,-1.1713,0.1263,-0.0721,1.5390,-0.8562,0.0576,-0.1066,0.0999,-2.3757,1.5172,2.6340
2024-10-11T11:58:52.301Z,0.0609,-1.1723,0.1318,-0.0721,1.5390,-0.8562,0.0570,-0.1003,0.0994,-2.3757,1.5172,2.6340
2024-10-11T11:58:52.311Z,0.0414,-1.1634,0.1429,-0.2785,1.6904,-0.8434,0.0551,-0.1009,0.0972,-2.4396,1.5170,2.6942
2024-10-11T11:58:52.320Z,0.0309,-1.1585,0.1546,-0.2785,1.6904,-0.8434,0.0611,-0.1170,0.0932,-2.4396,1.5170,2.6942
2024-10-11T11:58:52.332Z,0.0667,-1.1646,0.1474,-0.2785,1.6904,-0.8434,0.0649,-0.0994,0.0917,-2.4396,1.5170,2.6942
2024-10-11T11:58:52.341Z,0.0744,-1.1698,0.1345,-0.5530,1.6569,-0.9383,0.0727,-0.0794,0.0908,-2.5014,1.5165,2.7529
2024-10-11T11:58:52.351Z,0.0712,-1.1692,0.1205,-0.5530,1.6569,-0.9383,0.0893,-0.0749,0.0931,-2.5014,1.5165,2.7529
2024-10-11T11:58:52.361Z,0.0723,-1.1751,0.1378,-0.5530,1.6569,-0.9383,0.1024,-0.0732,0.0947,-2.5014,1.5165,2.7529
2024-10-11T11:58:52.371Z,0.0723,-1.1751,0.1378,-0.5319,1.7551,-0.8429,0.1170,-0.0664,0.1014,-2.5673,1.5148,2.8161
2024-10-11T11:58:52.382Z,0.0959,-1.1751,0.1508,-0.5319,1.7551,-0.8429,0.1231,-0.0617,0.1068,-2.5673,1.5148,2.8161
2024-10-11T11:58:52.391Z,0.0907,-1.1696,0.1764,-0.5319,1.7551,-0.8429,0.1282,-0.0581,0.1073,-2.5673,1.5148,2.8161
2024-10-11T11:58:52.401Z,0.0907,-1.1696,0.1764,-0.5759,1.6278,-1.3062,0.1282,-0.0639,0.1062,-2.6390,1.5122,2.8855
2024-10-11T11:58:52.410Z,0.0073,-1.1676,0.2110,-0.5759,1.6278,-1.3062,0.1325,-0.0661,0.1025,-2.6390,1.5122,2.8855
