time,gFx,gFy,gFz,ax,ay,az,wx,wy,wz,yaw,pitch,roll
2024-10-11T13:26:32.015Z,0.0095,-0.9827,0.1744,-0.0111,-0.0296,0.0816,0.0119,-0.0111,-0.0078,3.1251,1.3880,-3.1128
2024-10-11T13:26:32.023Z,-0.0203,-0.9811,0.1793,-0.0111,-0.0296,0.0816,0.0107,0.0086,-0.0066,3.1251,1.3880,-3.1128
2024-10-11T13:26:32.034Z,-0.0299,-0.9801,0.1779,0.1606,-0.0128,0.0300,0.0090,0.0184,-0.0087,3.1268,1.3877,-3.1145
2024-10-11T13:26:32.044Z,-0.0340,-0.9748,0.1794,0.1606,-0.0128,0.0300,0.0079,0.0262,-0.0081,3.1268,1.3877,-3.1145
2024-10-11T13:26:32.053Z,-0.0405,-0.9750,0.1804,0.1606,-0.0128,0.0300,0.0079,0.0376,-0.0100,3.1268,1.3877,-3.1145
2024-10-11T13:26:32.064Z,-0.0399,-0.9743,0.1810,0.3547,-0.0824,0.0140,0.0101,0.0465,-0.0094,3.1288,1.3874,-3.1162
2024-10-11T13:26:32.074Z,-0.0415,-0.9762,0.1800,0.3547,-0.0824,0.0140,0.0111,0.0513,-0.0081,3.1288,1.3874,-3.1162
2024-10-11T13:26:32.084Z,-0.0409,-0.9771,0.1802,0.3547,-0.0824,0.0140,0.0077,0.0587,-0.0087,3.1288,1.3874,-3.1162
2024-10-11T13:26:32.094Z,-0.0324,-0.9802,0.1746,0.3581,-0.0546,0.0280,0.0078,0.0581,-0.0120,3.1301,1.3871,-3.1163
2024-10-11T13:26:32.104Z,-0.0178,-0.9799,0.1686,0.3581,-0.0546,0.0280,0.0110,0.0627,-0.0122,3.1301,1.3871,-3.1163
2024-10-11T13:26:32.114Z,-0.0172,-0.9818,0.1693,0.3581,-0.0546,0.0280,0.0112,0.0653,-0.0118,3.1301,1.3871,-3.1163
2024-10-11T13:26:32.124Z,-0.0145,-0.9807,0.1666,0.1253,-0.0110,0.1346,0.0150,0.0659,-0.0136,3.1312,1.3867,-3.1157
2024-10-11T13:26:32.134Z,-0.0174,-0.9794,0.1658,0.1253,-0.0110,0.1346,0.0150,0.0698,-0.0154,3.1312,1.3867,-3.1157
2024-10-11T13:26:32.144Z,-0.0135,-0.9810,0.1653,0.1253,-0.0110,0.1346,0.0164,0.0723,-0.0138,3.1312,1.3867,-3.1157
2024-10-11T13:26:32.154Z,-0.0121,-0.9794,0.1687,0.0803,-0.0304,0.1736,0.0195,0.0752,-0.0135,3.1324,1.3862,-3.1150
2024-10-11T13:26:32.164Z,-0.0131,-0.9807,0.1724,0.0803,-0.0304,0.1736,0.0182,0.0818,-0.0149,3.1324,1.3862,-3.1150
2024-10-11T13:26:32.174Z,-0.0128,-0.9826,0.1741,0.0803,-0.0304,0.1736,0.0217,0.0824,-0.0140,3.1324,1.3862,-3.1150
2024-10-11T13:26:32.184Z,-0.0132,-0.9845,0.1765,0.0757,-0.0002,0.1022,0.0227,0.0842,-0.0122,3.1337,1.3856,-3.1141
2024-10-11T13:26:32.194Z,-0.0124,-0.9822,0.1820,0.0757,-0.0002,0.1022,0.0209,0.0832,-0.0135,3.1337,1.3856,-3.1141
2024-10-11T13:26:32.204Z,-0.0114,-0.9847,0.1862,0.0757,-0.0002,0.1022,0.0220,0.0802,-0.0143,3.1337,1.3856,-3.1141
2024-10-11T13:26:32.214Z,-0.0104,-0.9853,0.1888,0.0603,0.0294,-0.0180,0.0209,0.0820,-0.0153,3.1357,1.3849,-3.1140
2024-10-11T13:26:32.224Z,-0.0105,-0.9851,0.1901,0.0603,0.0294,-0.0180,0.0221,0.0802,-0.0141,3.1357,1.3849,-3.1140
2024-10-11T13:26:32.234Z,-0.0090,-0.9850,0.1921,0.0603,0.0294,-0.0180,0.0211,0.0801,-0.0143,3.1357,1.3849,-3.1140
2024-10-11T13:26:32.244Z,-0.0072,-0.9859,0.1952,0.0390,0.0180,-0.0700,0.0216,0.0780,-0.0150,3.1380,1.3842,-3.1141
2024-10-11T13:26:32.254Z,-0.0064,-0.9850,0.1957,0.0390,0.0180,-0.0700,0.0196,0.0793,-0.0143,3.1380,1.3842,-3.1141
2024-10-11T13:26:32.264Z,-0.0057,-0.9866,0.1967,0.0390,0.0180,-0.0700,0.0160,0.0807,-0.0150,3.1380,1.3842,-3.1141
2024-10-11T13:26:32.274Z,-0.0016,-0.9900,0.1974,0.0022,0.0473,-0.1052,0.0173,0.0781,-0.0141,3.1402,1.3836,-3.1142
2024-10-11T13:26:32.284Z,-0.0020,-0.9895,0.1962,0.0022,0.0473,-0.1052,0.0157,0.0795,-0.0150,3.1402,1.3836,-3.1142
2024-10-11T13:26:32.295Z,-0.0049,-0.9908,0.1964,0.0022,0.0473,-0.1052,0.0122,0.0760,-0.0145,3.1402,1.3836,-3.1142
2024-10-11T13:26:32.305Z,-0.0040,-0.9884,0.1978,-0.0036,0.0838,-0.0948,0.0101,0.0777,-0.0134,-3.1409,1.3831,-3.1142
2024-10-11T13:26:32.314Z,-0.0026,-0.9870,0.1962,-0.0036,0.0838,-0.0948,0.0084,0.0734,-0.0167,-3.1409,1.3831,-3.1142
2024-10-11T13:26:32.324Z,-0.0046,-0.9859,0.1912,-0.0036,0.0838,-0.0948,0.0091,0.0736,-0.0169,-3.1409,1.3831,-3.1142
2024-10-11T13:26:32.334Z,-0.0031,-0.9848,0.1925,0.0030,0.0341,-0.0420,0.0100,0.0704,-0.0154,-3.1385,1.3828,-3.1145
2024-10-11T13:26:32.344Z,-0.0006,-0.9819,0.1925,0.0030,0.0341,-0.0420,0.0111,0.0683,-0.0149,-3.1385,1.3828,-3.1145
2024-10-11T13:26:32.354Z,-0.0025,-0.9801,0.1957,0.0030,0.0341,-0.0420,0.0083,0.0650,-0.0181,-3.1385,1.3828,-3.1145
2024-10-11T13:26:32.364Z,-0.0060,-0.9787,0.1965,-0.0122,-0.0146,-0.0889,0.0066,0.0658,-0.0202,-3.1361,1.3825,-3.1152
2024-10-11T13:26:32.374Z,-0.0056,-0.9784,0.1977,-0.0122,-0.0146,-0.0889,0.0062,0.0635,-0.0206,-3.1361,1.3825,-3.1152
2024-10-11T13:26:32.384Z,-0.0042,-0.9802,0.1988,-0.0122,-0.0146,-0.0889,0.0086,0.0603,-0.0194,-3.1361,1.3825,-3.1152
2024-10-11T13:26:32.394Z,-0.0041,-0.9795,0.1997,0.0006,-0.0227,-0.1172,0.0073,0.0623,-0.0208,-3.1331,1.3823,-3.1164
2024-10-11T13:26:32.404Z,-0.0002,-0.9824,0.2005,0.0006,-0.0227,-0.1172,0.0083,0.0623,-0.0188,-3.1331,1.3823,-3.1164
2024-10-11T13:26:32.414Z,0.0033,-0.9817,0.2016,0.0006,-0.0227,-0.1172,0.0054,0.0667,-0.0203,-3.1331,1.3823,-3.1164
2024-10-11T13:26:32.424Z,0.0014,-0.9855,0.2013,-0.0710,0.0026,-0.1430,0.0029,0.0633,-0.0190,-3.1303,1.3820,-3.1176
2024-10-11T13:26:32.434Z,0.0027,-0.9870,0.1987,-0.0710,0.0026,-0.1430,0.0033,0.0643,-0.0180,-3.1303,1.3820,-3.1176
2024-10-11T13:26:32.444Z,0.0086,-0.9871,0.1977,-0.0710,0.0026,-0.1430,0.0011,0.0624,-0.0164,-3.1303,1.3820,-3.1176
2024-10-11T13:26:32.454Z,0.0093,-0.9884,0.1966,-0.1264,0.0455,-0.0940,-0.0024,0.0599,-0.0143,-3.1278,1.3819,-3.1184
2024-10-11T13:26:32.464Z,0.0127,-0.9912,0.1931,-0.1264,0.0455,-0.0940,-0.0014,0.0621,-0.0154,-3.1278,1.3819,-3.1184
2024-10-11T13:26:32.474Z,0.0152,-0.9903,0.1930,-0.1264,0.0455,-0.0940,-0.0035,0.0574,-0.0093,-3.1278,1.3819,-3.1184
2024-10-11T13:26:32.484Z,0.0160,-0.9908,0.1920,-0.1917,0.0759,-0.0533,-0.0068,0.0551,-0.0113,-3.1259,1.3819,-3.1187
2024-10-11T13:26:32.494Z,0.0144,-0.9925,0.1917,-0.1917,0.0759,-0.0533,-0.0072,0.0553,-0.0094,-3.1259,1.3819,-3.1187
2024-10-11T13:26:32.504Z,0.0137,-0.9937,0.1928,-0.1917,0.0759,-0.0533,-0.0083,0.0545,-0.0094,-3.1259,1.3819,-3.1187
2024-10-11T13:26:32.513Z,0.0154,-0.9938,0.1936,-0.1764,0.1130,-0.0583,-0.0073,0.0522,-0.0083,-3.1246,1.3820,-3.1187
2024-10-11T13:26:32.523Z,0.0161,-0.9920,0.1946,-0.1764,0.1130,-0.0583,-0.0085,0.0498,-0.0076,-3.1246,1.3820,-3.1187
2024-10-11T13:26:32.534Z,0.0178,-0.9920,0.1951,-0.1764,0.1130,-0.0583,-0.0069,0.0475,-0.0069,-3.1246,1.3820,-3.1187
2024-10-11T13:26:32.544Z,0.0149,-0.9894,0.1920,-0.2119,0.0905,-0.0758,-0.0076,0.0421,-0.0066,-3.1238,1.3822,-3.1183
2024-10-11T13:26:32.554Z,0.0128,-0.9880,0.1905,-0.2119,0.0905,-0.0758,-0.0071,0.0415,-0.0030,-3.1238,1.3822,-3.1183
2024-10-11T13:26:32.563Z,0.0165,-0.9846,0.1892,-0.2119,0.0905,-0.0758,-0.0084,0.0364,-0.0027,-3.1238,1.3822,-3.1183
2024-10-11T13:26:32.574Z,0.0141,-0.9813,0.1858,-0.1994,0.0154,-0.0223,-0.0064,0.0324,-0.0036,-3.1228,1.3824,-3.1183
2024-10-11T13:26:32.584Z,0.0126,-0.9785,0.1839,-0.1994,0.0154,-0.0223,-0.0072,0.0281,-0.0036,-3.1228,1.3824,-3.1183
2024-10-11T13:26:32.593Z,0.0113,-0.9753,0.1822,-0.1994,0.0154,-0.0223,-0.0081,0.0257,-0.0054,-3.1228,1.3824,-3.1183
2024-10-11T13:26:32.604Z,0.0104,-0.9746,0.1825,-0.1492,-0.0731,0.0440,-0.0065,0.0241,-0.0039,-3.1217,1.3826,-3.1188
2024-10-11T13:26:32.613Z,0.0069,-0.9744,0.1831,-0.1492,-0.0731,0.0440,-0.0084,0.0229,-0.0059,-3.1217,1.3826,-3.1188
2024-10-11T13:26:32.624Z,0.0054,-0.9716,0.1839,-0.1492,-0.0731,0.0440,-0.0075,0.0183,-0.0064,-3.1217,1.3826,-3.1188
2024-10-11T13:26:32.634Z,0.0073,-0.9718,0.1869,-0.0941,-0.1112,0.0267,-0.0096,0.0212,-0.0075,-3.1208,1.3828,-3.1194
2024-10-11T13:26:32.644Z,0.0095,-0.9719,0.1895,-0.0941,-0.1112,0.0267,-0.0087,0.0165,-0.0079,-3.1208,1.3828,-3.1194
2024-10-11T13:26:32.654Z,0.0094,-0.9732,0.1914,-0.0941,-0.1112,0.0267,-0.0091,0.0146,-0.0065,-3.1208,1.3828,-3.1194
2024-10-11T13:26:32.663Z,0.0100,-0.9759,0.1915,-0.1298,-0.0854,-0.0491,-0.0108,0.0122,-0.0050,-3.1198,1.3831,-3.1202
2024-10-11T13:26:32.674Z,0.0091,-0.9776,0.1920,-0.1298,-0.0854,-0.0491,-0.0151,0.0117,-0.0075,-3.1198,1.3831,-3.1202
2024-10-11T13:26:32.684Z,0.0066,-0.9810,0.1901,-0.1298,-0.0854,-0.0491,-0.0155,0.0105,-0.0078,-3.1198,1.3831,-3.1202
2024-10-11T13:26:32.694Z,0.0058,-0.9833,0.1864,-0.1082,-0.0113,-0.0309,-0.0136,0.0108,-0.0064,-3.1185,1.3835,-3.1214
2024-10-11T13:26:32.703Z,0.0101,-0.9844,0.1872,-0.1082,-0.0113,-0.0309,-0.0125,0.0105,-0.0055,-3.1185,1.3835,-3.1214
2024-10-11T13:26:32.715Z,0.0130,-0.9855,0.1860,-0.1580,0.0311,-0.0058,-0.0156,0.0094,-0.0048,-3.1176,1.3839,-3.1222
2024-10-11T13:26:32.724Z,0.0133,-0.9845,0.1857,-0.1580,0.0311,-0.0058,-0.0158,0.0097,-0.0064,-3.1176,1.3839,-3.1222
2024-10-11T13:26:32.734Z,0.0131,-0.9841,0.1827,-0.1580,0.0311,-0.0058,-0.0126,0.0094,-0.0049,-3.1176,1.3839,-3.1222
2024-10-11T13:26:32.744Z,0.0118,-0.9841,0.1805,-0.1580,0.0311,-0.0058,-0.0146,0.0110,-0.0038,-3.1176,1.3839,-3.1222
2024-10-11T13:26:32.754Z,0.0077,-0.9825,0.1771,-0.1436,0.0076,0.0458,-0.0117,0.0095,-0.0039,-3.1169,1.3842,-3.1230
2024-10-11T13:26:32.764Z,0.0079,-0.9825,0.1771,-0.1436,0.0076,0.0458,-0.0126,0.0099,-0.0032,-3.1169,1.3842,-3.1230
2024-10-11T13:26:32.774Z,0.0067,-0.9833,0.1757,-0.1436,0.0076,0.0458,-0.0068,0.0097,-0.0011,-3.1169,1.3842,-3.1230
2024-10-11T13:26:32.784Z,0.0058,-0.9827,0.1748,-0.0964,0.0070,0.0909,-0.0045,0.0072,-0.0025,-3.1164,1.3845,-3.1234
2024-10-11T13:26:32.794Z,0.0075,-0.9794,0.1730,-0.0964,0.0070,0.0909,-0.0028,0.0071,-0.0007,-3.1164,1.3845,-3.1234
2024-10-11T13:26:32.805Z,0.0078,-0.9801,0.1762,-0.1186,-0.0276,0.0798,-0.0048,0.0071,-0.0028,-3.1161,1.3845,-3.1238
2024-10-11T13:26:32.814Z,0.0108,-0.9803,0.1767,-0.1186,-0.0276,0.0798,0.0002,0.0039,0.0009,-3.1161,1.3845,-3.1238
2024-10-11T13:26:32.824Z,0.0123,-0.9805,0.1777,-0.1186,-0.0276,0.0798,0.0012,0.0068,0.0024,-3.1161,1.3845,-3.1238
2024-10-11T13:26:32.835Z,0.0139,-0.9824,0.1784,-0.1774,-0.0049,0.0682,0.0040,0.0040,0.0039,-3.1163,1.3845,-3.1237
2024-10-11T13:26:32.844Z,0.0167,-0.9827,0.1781,-0.1774,-0.0049,0.0682,0.0030,0.0074,0.0040,-3.1163,1.3845,-3.1237
2024-10-11T13:26:32.854Z,0.0157,-0.9822,0.1795,-0.1774,-0.0049,0.0682,0.0078,0.0049,0.0058,-3.1163,1.3845,-3.1237
2024-10-11T13:26:32.863Z,0.0121,-0.9829,0.1807,-0.1774,-0.0049,0.0682,0.0104,0.0051,0.0071,-3.1163,1.3845,-3.1237
2024-10-11T13:26:32.874Z,0.0115,-0.9823,0.1812,-0.1566,0.0038,0.0421,0.0109,0.0077,0.0076,-3.1170,1.3843,-3.1230
2024-10-11T13:26:32.884Z,0.0092,-0.9820,0.1823,-0.1566,0.0038,0.0421,0.0121,0.0082,0.0085,-3.1170,1.3843,-3.1230
2024-10-11T13:26:32.896Z,0.0084,-0.9816,0.1846,-0.1051,-0.0107,0.0072,0.0132,0.0099,0.0083,-3.1176,1.3841,-3.1225
2024-10-11T13:26:32.904Z,0.0041,-0.9789,0.1865,-0.1051,-0.0107,0.0072,0.0139,0.0080,0.0119,-3.1176,1.3841,-3.1225
2024-10-11T13:26:32.914Z,-0.0012,-0.9777,0.1872,-0.1051,-0.0107,0.0072,0.0115,0.0106,0.0095,-3.1176,1.3841,-3.1225
2024-10-11T13:26:32.925Z,-0.0037,-0.9747,0.1892,0.0017,-0.0796,-0.0251,0.0117,0.0125,0.0123,-3.1190,1.3837,-3.1212
2024-10-11T13:26:32.934Z,-0.0061,-0.9716,0.1887,0.0017,-0.0796,-0.0251,0.0124,0.0094,0.0103,-3.1190,1.3837,-3.1212
2024-10-11T13:26:32.945Z,-0.0098,-0.9706,0.1870,0.0017,-0.0796,-0.0251,0.0150,0.0110,0.0091,-3.1190,1.3837,-3.1212
2024-10-11T13:26:32.955Z,-0.0098,-0.9676,0.1888,0.0017,-0.0796,-0.0251,0.0144,0.0106,0.0079,-3.1190,1.3837,-3.1212
2024-10-11T13:26:32.965Z,-0.0109,-0.9664,0.1882,0.0556,-0.1508,-0.0262,0.0147,0.0092,0.0052,-3.1202,1.3832,-3.1200
2024-10-11T13:26:32.974Z,-0.0107,-0.9651,0.1891,0.0556,-0.1508,-0.0262,0.0158,0.0052,0.0058,-3.1202,1.3832,-3.1200
2024-10-11T13:26:32.985Z,-0.0124,-0.9656,0.1886,0.0720,-0.1629,-0.0111,0.0153,0.0059,0.0034,-3.1210,1.3828,-3.1192
2024-10-11T13:26:32.995Z,-0.0101,-0.9686,0.1905,0.0720,-0.1629,-0.0111,0.0136,0.0052,0.0026,-3.1210,1.3828,-3.1192
2024-10-11T13:26:33.004Z,-0.0092,-0.9735,0.1903,0.0720,-0.1629,-0.0111,0.0124,0.0068,0.0000,-3.1210,1.3828,-3.1192
2024-10-11T13:26:33.013Z,-0.0072,-0.9777,0.1884,0.0720,-0.1629,-0.0111,0.0127,0.0054,0.0001,-3.1210,1.3828,-3.1192
2024-10-11T13:26:33.024Z,-0.0080,-0.9813,0.1878,0.0314,-0.0420,-0.0079,0.0129,0.0041,0.0005,-3.1212,1.3824,-3.1191
2024-10-11T13:26:33.034Z,-0.0048,-0.9843,0.1865,0.0314,-0.0420,-0.0079,0.0148,0.0045,-0.0004,-3.1212,1.3824,-3.1191
2024-10-11T13:26:33.046Z,-0.0036,-0.9872,0.1857,-0.0025,0.0524,0.0222,0.0151,0.0042,0.0004,-3.1215,1.3819,-3.1189
2024-10-11T13:26:33.054Z,-0.0021,-0.9884,0.1855,-0.0025,0.0524,0.0222,0.0167,0.0016,0.0006,-3.1215,1.3819,-3.1189
2024-10-11T13:26:33.064Z,-0.0031,-0.9914,0.1858,-0.0025,0.0524,0.0222,0.0119,0.0027,-0.0010,-3.1215,1.3819,-3.1189
2024-10-11T13:26:33.074Z,-0.0015,-0.9898,0.1896,-0.0245,0.0760,-0.0218,0.0145,0.0020,-0.0042,-3.1216,1.3814,-3.1190
2024-10-11T13:26:33.084Z,-0.0030,-0.9901,0.1916,-0.0245,0.0760,-0.0218,0.0130,0.0020,-0.0035,-3.1216,1.3814,-3.1190
2024-10-11T13:26:33.094Z,-0.0038,-0.9883,0.1937,-0.0245,0.0760,-0.0218,0.0123,0.0017,-0.0031,-3.1216,1.3814,-3.1190
2024-10-11T13:26:33.105Z,-0.0043,-0.9860,0.1959,-0.0011,0.0374,-0.0748,0.0159,0.0036,-0.0007,-3.1217,1.3809,-3.1192
2024-10-11T13:26:33.114Z,-0.0042,-0.9861,0.1981,-0.0011,0.0374,-0.0748,0.0135,-0.0013,0.0010,-3.1217,1.3809,-3.1192
2024-10-11T13:26:33.124Z,-0.0034,-0.9861,0.1995,-0.0011,0.0374,-0.0748,0.0128,0.0003,0.0003,-3.1217,1.3809,-3.1192
2024-10-11T13:26:33.134Z,-0.0042,-0.9867,0.2006,0.0093,0.0400,-0.1131,0.0123,0.0011,0.0000,-3.1219,1.3805,-3.1192
2024-10-11T13:26:33.145Z,-0.0073,-0.9851,0.2033,0.0093,0.0400,-0.1131,0.0081,0.0012,-0.0002,-3.1219,1.3805,-3.1192
2024-10-11T13:26:33.154Z,-0.0071,-0.9848,0.2041,0.0093,0.0400,-0.1131,0.0052,-0.0025,0.0003,-3.1219,1.3805,-3.1192
2024-10-11T13:26:33.164Z,-0.0084,-0.9842,0.2026,0.0093,0.0400,-0.1131,0.0053,-0.0018,-0.0002,-3.1219,1.3805,-3.1192
2024-10-11T13:26:33.174Z,-0.0087,-0.9839,0.2034,0.0425,0.0137,-0.1301,0.0008,0.0020,0.0020,-3.1222,1.3804,-3.1192
2024-10-11T13:26:33.184Z,-0.0071,-0.9840,0.2032,0.0425,0.0137,-0.1301,0.0003,0.0003,0.0022,-3.1222,1.3804,-3.1192
2024-10-11T13:26:33.197Z,-0.0077,-0.9834,0.2023,0.0428,0.0099,-0.1189,-0.0000,0.0047,0.0025,-3.1226,1.3803,-3.1190
2024-10-11T13:26:33.204Z,-0.0091,-0.9810,0.1983,0.0428,0.0099,-0.1189,0.0000,0.0028,-0.0021,-3.1226,1.3803,-3.1190
2024-10-11T13:26:33.214Z,-0.0104,-0.9815,0.1950,0.0428,0.0099,-0.1189,-0.0024,0.0036,-0.0011,-3.1226,1.3803,-3.1190
2024-10-11T13:26:33.224Z,-0.0102,-0.9820,0.1951,0.0642,0.0019,-0.0513,-0.0010,0.0010,0.0000,-3.1227,1.3803,-3.1190
2024-10-11T13:26:33.234Z,-0.0129,-0.9829,0.1938,0.0642,0.0019,-0.0513,-0.0014,0.0018,0.0016,-3.1227,1.3803,-3.1190
2024-10-11T13:26:33.245Z,-0.0095,-0.9835,0.1914,0.0642,0.0019,-0.0513,-0.0054,0.0040,0.0011,-3.1227,1.3803,-3.1190
2024-10-11T13:26:33.254Z,-0.0091,-0.9848,0.1902,0.0517,0.0212,-0.0090,-0.0047,0.0020,0.0000,-3.1231,1.3803,-3.1188
2024-10-11T13:26:33.263Z,-0.0066,-0.9852,0.1919,0.0517,0.0212,-0.0090,-0.0036,0.0016,0.0016,-3.1231,1.3803,-3.1188
2024-10-11T13:26:33.274Z,-0.0051,-0.9862,0.1922,0.0517,0.0212,-0.0090,-0.0025,0.0033,0.0019,-3.1231,1.3803,-3.1188
2024-10-11T13:26:33.284Z,-0.0049,-0.9877,0.1927,0.0036,0.0540,-0.0384,-0.0037,0.0047,0.0036,-3.1238,1.3804,-3.1184
2024-10-11T13:26:33.295Z,-0.0044,-0.9878,0.1935,0.0036,0.0540,-0.0384,-0.0064,0.0029,0.0056,-3.1238,1.3804,-3.1184
2024-10-11T13:26:33.304Z,-0.0021,-0.9865,0.1946,0.0036,0.0540,-0.0384,-0.0062,0.0043,0.0035,-3.1238,1.3804,-3.1184
2024-10-11T13:26:33.314Z,-0.0020,-0.9883,0.1947,-0.0277,0.0633,-0.0528,-0.0054,0.0066,0.0041,-3.1250,1.3804,-3.1172
2024-10-11T13:26:33.324Z,-0.0030,-0.9865,0.1952,-0.0277,0.0633,-0.0528,-0.0062,0.0074,0.0055,-3.1250,1.3804,-3.1172
2024-10-11T13:26:33.334Z,-0.0033,-0.9863,0.1993,-0.0277,0.0633,-0.0528,-0.0051,0.0131,0.0065,-3.1250,1.3804,-3.1172
2024-10-11T13:26:33.345Z,-0.0064,-0.9871,0.1980,0.0168,0.0542,-0.0861,-0.0104,0.0128,0.0074,-3.1266,1.3806,-3.1155
2024-10-11T13:26:33.354Z,-0.0070,-0.9866,0.1996,0.0168,0.0542,-0.0861,-0.0082,0.0121,0.0081,-3.1266,1.3806,-3.1155
2024-10-11T13:26:33.364Z,-0.0047,-0.9844,0.2006,0.0168,0.0542,-0.0861,-0.0089,0.0130,0.0093,-3.1266,1.3806,-3.1155
2024-10-11T13:26:33.374Z,-0.0041,-0.9829,0.2020,0.0168,0.0542,-0.0861,-0.0099,0.0154,0.0089,-3.1266,1.3806,-3.1155
2024-10-11T13:26:33.384Z,-0.0022,-0.9813,0.1981,-0.0167,0.0017,-0.1271,-0.0087,0.0173,0.0091,-3.1283,1.3808,-3.1138
2024-10-11T13:26:33.396Z,-0.0072,-0.9819,0.1970,-0.0167,0.0017,-0.1271,-0.0081,0.0145,0.0098,-3.1283,1.3808,-3.1138
2024-10-11T13:26:33.404Z,-0.0062,-0.9813,0.1956,0.0100,-0.0041,-0.0643,-0.0098,0.0176,0.0101,-3.1301,1.3810,-3.1118
2024-10-11T13:26:33.414Z,-0.0077,-0.9807,0.1940,0.0100,-0.0041,-0.0643,-0.0083,0.0149,0.0096,-3.1301,1.3810,-3.1118
2024-10-11T13:26:33.424Z,-0.0078,-0.9819,0.1904,0.0100,-0.0041,-0.0643,-0.0078,0.0158,0.0091,-3.1301,1.3810,-3.1118
2024-10-11T13:26:33.434Z,-0.0090,-0.9848,0.1899,0.0283,0.0292,-0.0191,-0.0108,0.0156,0.0084,-3.1319,1.3811,-3.1098
2024-10-11T13:26:33.445Z,-0.0115,-0.9856,0.1893,0.0283,0.0292,-0.0191,-0.0103,0.0160,0.0079,-3.1319,1.3811,-3.1098
2024-10-11T13:26:33.454Z,-0.0116,-0.9856,0.1860,0.0283,0.0292,-0.0191,-0.0081,0.0169,0.0085,-3.1319,1.3811,-3.1098
2024-10-11T13:26:33.464Z,-0.0114,-0.9843,0.1871,0.0537,0.0227,0.0190,-0.0062,0.0210,0.0060,-3.1332,1.3813,-3.1081
2024-10-11T13:26:33.474Z,-0.0134,-0.9856,0.1878,0.0537,0.0227,0.0190,-0.0092,0.0189,0.0037,-3.1332,1.3813,-3.1081
2024-10-11T13:26:33.484Z,-0.0103,-0.9854,0.1890,0.0537,0.0227,0.0190,-0.0071,0.0199,0.0049,-3.1332,1.3813,-3.1081
2024-10-11T13:26:33.496Z,-0.0078,-0.9860,0.1893,0.0172,0.0428,-0.0150,-0.0087,0.0227,0.0040,-3.1344,1.3814,-3.1066
2024-10-11T13:26:33.504Z,-0.0115,-0.9862,0.1888,0.0172,0.0428,-0.0150,-0.0073,0.0238,0.0055,-3.1344,1.3814,-3.1066
2024-10-11T13:26:33.514Z,-0.0132,-0.9845,0.1875,0.0172,0.0428,-0.0150,-0.0078,0.0220,0.0036,-3.1344,1.3814,-3.1066
2024-10-11T13:26:33.524Z,-0.0142,-0.9833,0.1882,0.0666,0.0118,0.0007,-0.0060,0.0202,0.0010,-3.1351,1.3816,-3.1055
2024-10-11T13:26:33.533Z,-0.0139,-0.9842,0.1893,0.0666,0.0118,0.0007,-0.0065,0.0229,0.0021,-3.1351,1.3816,-3.1055
2024-10-11T13:26:33.544Z,-0.0134,-0.9847,0.1931,0.0666,0.0118,0.0007,-0.0098,0.0237,0.0014,-3.1351,1.3816,-3.1055
2024-10-11T13:26:33.554Z,-0.0103,-0.9828,0.1934,0.0351,0.0069,-0.0591,-0.0075,0.0248,0.0001,-3.1357,1.3818,-3.1044
2024-10-11T13:26:33.564Z,-0.0098,-0.9825,0.1953,0.0351,0.0069,-0.0591,-0.0116,0.0268,-0.0013,-3.1357,1.3818,-3.1044
2024-10-11T13:26:33.574Z,-0.0076,-0.9797,0.1922,0.0351,0.0069,-0.0591,-0.0109,0.0255,-0.0037,-3.1357,1.3818,-3.1044
2024-10-11T13:26:33.585Z,-0.0081,-0.9809,0.1918,0.0184,-0.0144,-0.0404,-0.0132,0.0302,-0.0034,-3.1360,1.3821,-3.1036
2024-10-11T13:26:33.594Z,-0.0071,-0.9793,0.1885,0.0184,-0.0144,-0.0404,-0.0103,0.0285,-0.0043,-3.1360,1.3821,-3.1036
2024-10-11T13:26:33.604Z,-0.0083,-0.9790,0.1851,0.0184,-0.0144,-0.0404,-0.0132,0.0303,-0.0046,-3.1360,1.3821,-3.1036
2024-10-11T13:26:33.614Z,-0.0061,-0.9796,0.1817,-0.0076,-0.0225,0.0593,-0.0122,0.0282,-0.0022,-3.1362,1.3825,-3.1028
2024-10-11T13:26:33.625Z,-0.0066,-0.9759,0.1771,-0.0076,-0.0225,0.0593,-0.0100,0.0343,-0.0028,-3.1362,1.3825,-3.1028
2024-10-11T13:26:33.633Z,-0.0058,-0.9762,0.1739,-0.0076,-0.0225,0.0593,-0.0112,0.0354,-0.0039,-3.1362,1.3825,-3.1028
2024-10-11T13:26:33.643Z,-0.0043,-0.9762,0.1727,-0.0216,-0.0546,0.1430,-0.0089,0.0350,-0.0064,-3.1358,1.3827,-3.1025
2024-10-11T13:26:33.654Z,-0.0069,-0.9756,0.1710,-0.0216,-0.0546,0.1430,-0.0106,0.0372,-0.0074,-3.1358,1.3827,-3.1025
2024-10-11T13:26:33.663Z,-0.0071,-0.9739,0.1690,-0.0216,-0.0546,0.1430,-0.0085,0.0383,-0.0050,-3.1358,1.3827,-3.1025
2024-10-11T13:26:33.674Z,-0.0049,-0.9735,0.1703,-0.0197,-0.0886,0.1585,-0.0091,0.0378,-0.0080,-3.1351,1.3829,-3.1022
2024-10-11T13:26:33.684Z,-0.0045,-0.9733,0.1708,-0.0197,-0.0886,0.1585,-0.0073,0.0427,-0.0060,-3.1351,1.3829,-3.1022
2024-10-11T13:26:33.694Z,-0.0093,-0.9714,0.1699,-0.0197,-0.0886,0.1585,-0.0079,0.0426,-0.0069,-3.1351,1.3829,-3.1022
2024-10-11T13:26:33.704Z,-0.0096,-0.9719,0.1705,0.0209,-0.1044,0.1494,-0.0039,0.0437,-0.0072,-3.1342,1.3831,-3.1020
2024-10-11T13:26:33.713Z,-0.0122,-0.9709,0.1722,0.0209,-0.1044,0.1494,-0.0048,0.0439,-0.0064,-3.1342,1.3831,-3.1020
2024-10-11T13:26:33.723Z,-0.0065,-0.9707,0.1747,0.0209,-0.1044,0.1494,-0.0074,0.0434,-0.0039,-3.1342,1.3831,-3.1020
2024-10-11T13:26:33.733Z,-0.0038,-0.9731,0.1763,-0.0302,-0.0863,0.0964,-0.0074,0.0464,-0.0094,-3.1333,1.3833,-3.1020
2024-10-11T13:26:33.744Z,-0.0017,-0.9760,0.1777,-0.0302,-0.0863,0.0964,-0.0060,0.0459,-0.0064,-3.1333,1.3833,-3.1020
2024-10-11T13:26:33.754Z,-0.0012,-0.9762,0.1784,-0.0302,-0.0863,0.0964,-0.0031,0.0441,-0.0048,-3.1333,1.3833,-3.1020
2024-10-11T13:26:33.763Z,-0.0028,-0.9787,0.1794,-0.0460,-0.0250,0.0666,-0.0012,0.0422,-0.0079,-3.1325,1.3835,-3.1016
2024-10-11T13:26:33.774Z,-0.0035,-0.9812,0.1789,-0.0460,-0.0250,0.0666,-0.0023,0.0434,-0.0056,-3.1325,1.3835,-3.1016
2024-10-11T13:26:33.784Z,-0.0064,-0.9848,0.1786,-0.0460,-0.0250,0.0666,-0.0042,0.0438,-0.0073,-3.1325,1.3835,-3.1016
2024-10-11T13:26:33.794Z,-0.0080,-0.9874,0.1784,0.0078,0.0604,0.0713,-0.0006,0.0419,-0.0060,-3.1319,1.3837,-3.1013
2024-10-11T13:26:33.804Z,-0.0107,-0.9894,0.1798,0.0078,0.0604,0.0713,-0.0017,0.0387,-0.0090,-3.1319,1.3837,-3.1013
2024-10-11T13:26:33.813Z,-0.0089,-0.9894,0.1804,0.0078,0.0604,0.0713,-0.0035,0.0354,-0.0098,-3.1319,1.3837,-3.1013
2024-10-11T13:26:33.824Z,-0.0090,-0.9901,0.1792,0.0229,0.0771,0.0691,-0.0001,0.0372,-0.0118,-3.1305,1.3837,-3.1018
2024-10-11T13:26:33.834Z,-0.0110,-0.9899,0.1801,0.0229,0.0771,0.0691,-0.0001,0.0369,-0.0133,-3.1305,1.3837,-3.1018
2024-10-11T13:26:33.844Z,-0.0110,-0.9909,0.1810,0.0229,0.0771,0.0691,0.0021,0.0337,-0.0138,-3.1305,1.3837,-3.1018
2024-10-11T13:26:33.854Z,-0.0106,-0.9881,0.1830,0.0281,0.0524,0.0200,-0.0019,0.0287,-0.0150,-3.1283,1.3836,-3.1033
2024-10-11T13:26:33.863Z,-0.0082,-0.9862,0.1851,0.0281,0.0524,0.0200,0.0007,0.0301,-0.0168,-3.1283,1.3836,-3.1033
2024-10-11T13:26:33.874Z,-0.0100,-0.9854,0.1865,0.0281,0.0524,0.0200,-0.0008,0.0271,-0.0179,-3.1283,1.3836,-3.1033
2024-10-11T13:26:33.884Z,-0.0081,-0.9857,0.1871,0.0132,0.0315,-0.0107,-0.0009,0.0236,-0.0202,-3.1258,1.3837,-3.1053
2024-10-11T13:26:33.894Z,-0.0076,-0.9879,0.1879,0.0132,0.0315,-0.0107,0.0008,0.0207,-0.0196,-3.1258,1.3837,-3.1053
2024-10-11T13:26:33.904Z,-0.0060,-0.9897,0.1902,0.0132,0.0315,-0.0107,-0.0036,0.0201,-0.0194,-3.1258,1.3837,-3.1053
2024-10-11T13:26:33.914Z,-0.0036,-0.9904,0.1923,-0.0309,0.0709,-0.0624,-0.0029,0.0164,-0.0194,-3.1230,1.3838,-3.1078
2024-10-11T13:26:33.924Z,-0.0003,-0.9886,0.1927,-0.0309,0.0709,-0.0624,-0.0043,0.0156,-0.0171,-3.1230,1.3838,-3.1078
2024-10-11T13:26:33.934Z,0.0006,-0.9878,0.1897,-0.0309,0.0709,-0.0624,-0.0048,0.0121,-0.0185,-3.1230,1.3838,-3.1078
2024-10-11T13:26:33.944Z,0.0011,-0.9878,0.1894,-0.0668,0.0520,-0.0359,-0.0056,0.0129,-0.0189,-3.1203,1.3839,-3.1103
2024-10-11T13:26:33.954Z,0.0014,-0.9880,0.1918,-0.0668,0.0520,-0.0359,-0.0072,0.0104,-0.0195,-3.1203,1.3839,-3.1103
2024-10-11T13:26:33.964Z,0.0017,-0.9867,0.1924,-0.0668,0.0520,-0.0359,-0.0061,0.0088,-0.0204,-3.1203,1.3839,-3.1103
2024-10-11T13:26:33.974Z,0.0082,-0.9859,0.1924,-0.1417,0.0270,-0.0659,-0.0112,0.0075,-0.0208,-3.1174,1.3841,-3.1131
2024-10-11T13:26:33.984Z,0.0112,-0.9861,0.1907,-0.1417,0.0270,-0.0659,-0.0127,0.0060,-0.0187,-3.1174,1.3841,-3.1131
2024-10-11T13:26:33.994Z,0.0064,-0.9853,0.1879,-0.1417,0.0270,-0.0659,-0.0144,0.0038,-0.0178,-3.1174,1.3841,-3.1131
2024-10-11T13:26:34.004Z,0.0038,-0.9847,0.1898,-0.0913,0.0162,-0.0470,-0.0140,0.0065,-0.0172,-3.1148,1.3845,-3.1157
2024-10-11T13:26:34.014Z,0.0050,-0.9859,0.1900,-0.0913,0.0162,-0.0470,-0.0139,0.0049,-0.0146,-3.1148,1.3845,-3.1157
2024-10-11T13:26:34.024Z,0.0009,-0.9850,0.1897,-0.0913,0.0162,-0.0470,-0.0164,0.0078,-0.0128,-3.1148,1.3845,-3.1157
2024-10-11T13:26:34.034Z,-0.0008,-0.9833,0.1896,-0.0375,-0.0013,-0.0463,-0.0144,0.0096,-0.0136,-3.1126,1.3849,-3.1180
2024-10-11T13:26:34.044Z,-0.0016,-0.9815,0.1871,-0.0375,-0.0013,-0.0463,-0.0174,0.0125,-0.0124,-3.1126,1.3849,-3.1180
2024-10-11T13:26:34.054Z,-0.0034,-0.9809,0.1882,-0.0375,-0.0013,-0.0463,-0.0163,0.0113,-0.0104,-3.1126,1.3849,-3.1180
2024-10-11T13:26:34.066Z,-0.0039,-0.9803,0.1877,0.0074,-0.0271,-0.0395,-0.0184,0.0142,-0.0103,-3.1105,1.3853,-3.1199
2024-10-11T13:26:34.074Z,-0.0050,-0.9793,0.1892,0.0074,-0.0271,-0.0395,-0.0166,0.0161,-0.0127,-3.1105,1.3853,-3.1199
2024-10-11T13:26:34.084Z,-0.0073,-0.9793,0.1852,0.0074,-0.0271,-0.0395,-0.0166,0.0150,-0.0105,-3.1105,1.3853,-3.1199
2024-10-11T13:26:34.094Z,-0.0071,-0.9796,0.1846,0.0245,-0.0280,-0.0069,-0.0152,0.0151,-0.0098,-3.1088,1.3857,-3.1214
2024-10-11T13:26:34.104Z,-0.0057,-0.9833,0.1825,0.0245,-0.0280,-0.0069,-0.0154,0.0161,-0.0106,-3.1088,1.3857,-3.1214
2024-10-11T13:26:34.114Z,-0.0060,-0.9838,0.1827,0.0245,-0.0280,-0.0069,-0.0153,0.0165,-0.0128,-3.1088,1.3857,-3.1214
2024-10-11T13:26:34.124Z,-0.0070,-0.9862,0.1817,0.0355,0.0359,0.0182,-0.0128,0.0181,-0.0107,-3.1073,1.3861,-3.1227
2024-10-11T13:26:34.134Z,-0.0067,-0.9875,0.1796,0.0355,0.0359,0.0182,-0.0125,0.0196,-0.0102,-3.1073,1.3861,-3.1227
2024-10-11T13:26:34.144Z,-0.0045,-0.9892,0.1814,0.0355,0.0359,0.0182,-0.0095,0.0198,-0.0133,-3.1073,1.3861,-3.1227
2024-10-11T13:26:34.154Z,-0.0061,-0.9892,0.1816,0.0334,0.0625,0.0187,-0.0124,0.0235,-0.0129,-3.1057,1.3865,-3.1238
2024-10-11T13:26:34.164Z,-0.0049,-0.9878,0.1817,0.0334,0.0625,0.0187,-0.0120,0.0266,-0.0115,-3.1057,1.3865,-3.1238
2024-10-11T13:26:34.174Z,-0.0011,-0.9852,0.1806,0.0334,0.0625,0.0187,-0.0105,0.0317,-0.0081,-3.1057,1.3865,-3.1238
2024-10-11T13:26:34.184Z,-0.0012,-0.9866,0.1851,-0.0171,0.0278,-0.0219,-0.0116,0.0321,-0.0109,-3.1045,1.3868,-3.1243
2024-10-11T13:26:34.194Z,-0.0003,-0.9827,0.1855,-0.0171,0.0278,-0.0219,-0.0072,0.0336,-0.0092,-3.1045,1.3868,-3.1243
2024-10-11T13:26:34.204Z,0.0000,-0.9807,0.1872,-0.0171,0.0278,-0.0219,-0.0125,0.0334,-0.0091,-3.1045,1.3868,-3.1243
2024-10-11T13:26:34.214Z,0.0008,-0.9784,0.1879,-0.0312,-0.0610,-0.0465,-0.0103,0.0351,-0.0060,-3.1038,1.3870,-3.1244
2024-10-11T13:26:34.224Z,0.0002,-0.9750,0.1876,-0.0312,-0.0610,-0.0465,-0.0097,0.0328,-0.0055,-3.1038,1.3870,-3.1244
2024-10-11T13:26:34.234Z,-0.0008,-0.9752,0.1872,-0.0312,-0.0610,-0.0465,-0.0128,0.0372,-0.0064,-3.1038,1.3870,-3.1244
2024-10-11T13:26:34.244Z,-0.0009,-0.9739,0.1847,-0.0242,-0.0921,-0.0310,-0.0119,0.0369,-0.0075,-3.1033,1.3873,-3.1241
2024-10-11T13:26:34.254Z,-0.0009,-0.9733,0.1867,-0.0242,-0.0921,-0.0310,-0.0106,0.0384,-0.0086,-3.1033,1.3873,-3.1241
2024-10-11T13:26:34.264Z,-0.0054,-0.9729,0.1850,-0.0242,-0.0921,-0.0310,-0.0102,0.0361,-0.0051,-3.1033,1.3873,-3.1241
2024-10-11T13:26:34.274Z,-0.0051,-0.9753,0.1813,0.0204,-0.0804,0.0078,-0.0102,0.0393,-0.0062,-3.1024,1.3876,-3.1239
2024-10-11T13:26:34.285Z,-0.0061,-0.9749,0.1812,0.0204,-0.0804,0.0078,-0.0112,0.0393,-0.0062,-3.1024,1.3876,-3.1239
2024-10-11T13:26:34.294Z,-0.0075,-0.9753,0.1812,0.0204,-0.0804,0.0078,-0.0095,0.0411,-0.0075,-3.1024,1.3876,-3.1239
2024-10-11T13:26:34.304Z,-0.0089,-0.9764,0.1803,0.0489,-0.0677,0.0137,-0.0111,0.0379,-0.0078,-3.1016,1.3878,-3.1239
2024-10-11T13:26:34.314Z,-0.0073,-0.9780,0.1792,0.0489,-0.0677,0.0137,-0.0103,0.0426,-0.0093,-3.1016,1.3878,-3.1239
2024-10-11T13:26:34.324Z,-0.0077,-0.9779,0.1778,0.0489,-0.0677,0.0137,-0.0095,0.0382,-0.0063,-3.1016,1.3878,-3.1239
2024-10-11T13:26:34.334Z,-0.0078,-0.9785,0.1758,0.0510,-0.0462,0.0613,-0.0072,0.0401,-0.0071,-3.1005,1.3880,-3.1239
2024-10-11T13:26:34.344Z,-0.0065,-0.9780,0.1738,0.0510,-0.0462,0.0613,-0.0080,0.0390,-0.0082,-3.1005,1.3880,-3.1239
2024-10-11T13:26:34.354Z,-0.0053,-0.9789,0.1713,0.0510,-0.0462,0.0613,-0.0109,0.0431,-0.0098,-3.1005,1.3880,-3.1239
2024-10-11T13:26:34.364Z,-0.0054,-0.9797,0.1711,0.0159,-0.0397,0.1057,-0.0074,0.0435,-0.0098,-3.0995,1.3883,-3.1240
2024-10-11T13:26:34.374Z,-0.0041,-0.9781,0.1707,0.0159,-0.0397,0.1057,-0.0048,0.0415,-0.0082,-3.0995,1.3883,-3.1240
2024-10-11T13:26:34.384Z,-0.0031,-0.9809,0.1708,0.0159,-0.0397,0.1057,-0.0070,0.0423,-0.0091,-3.0995,1.3883,-3.1240
2024-10-11T13:26:34.394Z,-0.0028,-0.9792,0.1732,-0.0024,-0.0431,0.0808,-0.0057,0.0414,-0.0087,-3.0985,1.3884,-3.1239
2024-10-11T13:26:34.404Z,0.0005,-0.9801,0.1733,-0.0024,-0.0431,0.0808,-0.0048,0.0419,-0.0089,-3.0985,1.3884,-3.1239
2024-10-11T13:26:34.414Z,0.0024,-0.9807,0.1745,-0.0024,-0.0431,0.0808,-0.0031,0.0428,-0.0062,-3.0985,1.3884,-3.1239
2024-10-11T13:26:34.424Z,0.0020,-0.9812,0.1746,-0.0550,-0.0182,0.0657,-0.0025,0.0426,-0.0090,-3.0976,1.3885,-3.1238
2024-10-11T13:26:34.433Z,0.0005,-0.9832,0.1746,-0.0550,-0.0182,0.0657,-0.0025,0.0377,-0.0064,-3.0976,1.3885,-3.1238
2024-10-11T13:26:34.444Z,0.0013,-0.9836,0.1764,-0.0550,-0.0182,0.0657,0.0020,0.0388,-0.0099,-3.0976,1.3885,-3.1238
2024-10-11T13:26:34.454Z,-0.0005,-0.9834,0.1785,-0.0312,-0.0030,0.0254,-0.0006,0.0371,-0.0068,-3.0967,1.3885,-3.1238
2024-10-11T13:26:34.464Z,0.0004,-0.9833,0.1801,-0.0312,-0.0030,0.0254,0.0007,0.0336,-0.0078,-3.0967,1.3885,-3.1238
2024-10-11T13:26:34.474Z,0.0041,-0.9860,0.1821,-0.0312,-0.0030,0.0254,0.0020,0.0331,-0.0073,-3.0967,1.3885,-3.1238
2024-10-11T13:26:34.484Z,0.0078,-0.9852,0.1826,-0.1186,0.0170,-0.0094,-0.0001,0.0288,-0.0067,-3.0958,1.3885,-3.1240
2024-10-11T13:26:34.494Z,0.0126,-0.9845,0.1830,-0.1186,0.0170,-0.0094,0.0005,0.0253,-0.0054,-3.0958,1.3885,-3.1240
2024-10-11T13:26:34.505Z,0.0169,-0.9856,0.1828,-0.1186,0.0170,-0.0094,0.0015,0.0220,-0.0073,-3.0958,1.3885,-3.1240
2024-10-11T13:26:34.514Z,0.0216,-0.9855,0.1821,-0.2383,0.0219,-0.0027,0.0007,0.0156,-0.0066,-3.0950,1.3885,-3.1245
2024-10-11T13:26:34.524Z,0.0236,-0.9849,0.1798,-0.2383,0.0219,-0.0027,0.0024,0.0099,-0.0052,-3.0950,1.3885,-3.1245
2024-10-11T13:26:34.534Z,0.0278,-0.9874,0.1792,-0.2383,0.0219,-0.0027,0.0016,0.0056,-0.0051,-3.0950,1.3885,-3.1245
2024-10-11T13:26:34.544Z,0.0211,-0.9872,0.1778,-0.2355,0.0330,0.0325,0.0008,0.0037,-0.0069,-3.0944,1.3884,-3.1252
2024-10-11T13:26:34.554Z,0.0184,-0.9874,0.1757,-0.2355,0.0330,0.0325,0.0045,0.0004,-0.0042,-3.0944,1.3884,-3.1252
2024-10-11T13:26:34.564Z,0.0189,-0.9849,0.1755,-0.2355,0.0330,0.0325,0.0052,-0.0058,-0.0055,-3.0944,1.3884,-3.1252
2024-10-11T13:26:34.574Z,0.0201,-0.9863,0.1727,-0.2237,0.0329,0.0770,0.0065,-0.0061,-0.0017,-3.0940,1.3882,-3.1260
2024-10-11T13:26:34.584Z,0.0205,-0.9867,0.1749,-0.2237,0.0329,0.0770,0.0050,-0.0119,-0.0010,-3.0940,1.3882,-3.1260
2024-10-11T13:26:34.594Z,0.0201,-0.9863,0.1744,-0.2237,0.0329,0.0770,0.0072,-0.0141,-0.0005,-3.0940,1.3882,-3.1260
2024-10-11T13:26:34.604Z,0.0215,-0.9872,0.1740,-0.2386,0.0346,0.0723,0.0122,-0.0157,0.0003,-3.0939,1.3879,-3.1267
2024-10-11T13:26:34.614Z,0.0229,-0.9887,0.1755,-0.2386,0.0346,0.0723,0.0072,-0.0181,0.0018,-3.0939,1.3879,-3.1267
2024-10-11T13:26:34.624Z,0.0214,-0.9863,0.1760,-0.2386,0.0346,0.0723,0.0076,-0.0182,0.0012,-3.0939,1.3879,-3.1267
2024-10-11T13:26:34.633Z,0.0179,-0.9857,0.1773,-0.2005,0.0238,0.0417,0.0084,-0.0235,0.0023,-3.0941,1.3876,-3.1275
2024-10-11T13:26:34.644Z,0.0189,-0.9845,0.1778,-0.2005,0.0238,0.0417,0.0110,-0.0224,0.0019,-3.0941,1.3876,-3.1275
2024-10-11T13:26:34.654Z,0.0197,-0.9818,0.1799,-0.2005,0.0238,0.0417,0.0111,-0.0253,0.0047,-3.0941,1.3876,-3.1275
2024-10-11T13:26:34.664Z,0.0205,-0.9793,0.1799,-0.2272,-0.0375,0.0254,0.0100,-0.0301,0.0034,-3.0924,1.3874,-3.1302
2024-10-11T13:26:34.674Z,0.0254,-0.9752,0.1774,-0.2272,-0.0375,0.0254,0.0120,-0.0335,0.0064,-3.0924,1.3874,-3.1302
2024-10-11T13:26:34.683Z,0.0274,-0.9713,0.1692,-0.2272,-0.0375,0.0254,0.0143,-0.0462,0.0070,-3.0924,1.3874,-3.1302
2024-10-11T13:26:34.694Z,0.0352,-0.9633,0.1651,-0.3726,-0.1973,0.1567,0.0150,-0.0512,0.0059,-3.0929,1.3870,-3.1314
2024-10-11T13:26:34.704Z,0.0244,-0.9782,0.1789,-0.3726,-0.1973,0.1567,0.0139,-0.0535,0.0051,-3.0929,1.3870,-3.1314
2024-10-11T13:26:34.715Z,0.0243,-0.9780,0.1740,-0.3726,-0.1973,0.1567,0.0138,-0.0663,0.0031,-3.0929,1.3870,-3.1314
2024-10-11T13:26:34.724Z,0.0439,-0.9822,0.1759,-0.4330,0.0014,0.0785,0.0116,-0.0726,0.0056,-3.0936,1.3866,-3.1330
2024-10-11T13:26:34.734Z,0.0237,-0.9800,0.1722,-0.4330,0.0014,0.0785,0.0123,-0.0755,0.0054,-3.0936,1.3866,-3.1330
2024-10-11T13:26:34.744Z,0.0168,-0.9829,0.1736,-0.4330,0.0014,0.0785,0.0124,-0.0710,0.0030,-3.0936,1.3866,-3.1330
2024-10-11T13:26:34.754Z,0.0009,-0.9826,0.1719,-0.0088,-0.0130,0.1140,0.0140,-0.0670,0.0052,-3.0944,1.3862,-3.1346
2024-10-11T13:26:34.764Z,-0.0038,-0.9808,0.1734,-0.0088,-0.0130,0.1140,0.0136,-0.0594,0.0053,-3.0944,1.3862,-3.1346
2024-10-11T13:26:34.774Z,-0.0115,-0.9832,0.1755,-0.0088,-0.0130,0.1140,0.0145,-0.0493,0.0066,-3.0944,1.3862,-3.1346
2024-10-11T13:26:34.784Z,-0.0132,-0.9831,0.1808,0.1136,0.0148,0.0297,0.0106,-0.0396,0.0089,-3.0958,1.3857,-3.1349
2024-10-11T13:26:34.794Z,-0.0162,-0.9850,0.1815,0.1136,0.0148,0.0297,0.0110,-0.0284,0.0109,-3.0958,1.3857,-3.1349
2024-10-11T13:26:34.804Z,-0.0208,-0.9851,0.1840,0.1136,0.0148,0.0297,0.0066,-0.0181,0.0118,-3.0958,1.3857,-3.1349
2024-10-11T13:26:34.814Z,-0.0232,-0.9857,0.1838,0.2108,0.0243,-0.0031,0.0079,-0.0097,0.0125,-3.0978,1.3854,-3.1336
2024-10-11T13:26:34.824Z,-0.0244,-0.9848,0.1863,0.2108,0.0243,-0.0031,0.0029,0.0014,0.0122,-3.0978,1.3854,-3.1336
2024-10-11T13:26:34.834Z,-0.0241,-0.9866,0.1885,0.2108,0.0243,-0.0031,0.0057,0.0091,0.0127,-3.0978,1.3854,-3.1336
2024-10-11T13:26:34.844Z,-0.0215,-0.9854,0.1895,0.1843,0.0338,-0.0555,-0.0012,0.0153,0.0135,-3.0999,1.3853,-3.1315
2024-10-11T13:26:34.854Z,-0.0149,-0.9884,0.1912,0.1843,0.0338,-0.0555,-0.0045,0.0228,0.0116,-3.0999,1.3853,-3.1315
2024-10-11T13:26:34.863Z,-0.0117,-0.9888,0.1900,0.1843,0.0338,-0.0555,-0.0005,0.0249,0.0127,-3.0999,1.3853,-3.1315
2024-10-11T13:26:34.874Z,-0.0080,-0.9915,0.1902,0.0581,0.0875,-0.0486,-0.0003,0.0280,0.0119,-3.1022,1.3853,-3.1288
2024-10-11T13:26:34.884Z,-0.0069,-0.9922,0.1894,0.0581,0.0875,-0.0486,-0.0016,0.0313,0.0149,-3.1022,1.3853,-3.1288
2024-10-11T13:26:34.895Z,0.0013,-0.9922,0.1890,0.0581,0.0875,-0.0486,-0.0043,0.0349,0.0143,-3.1022,1.3853,-3.1288
2024-10-11T13:26:34.904Z,-0.0000,-0.9924,0.1878,-0.0324,0.1008,-0.0337,-0.0043,0.0349,0.0143,-3.1048,1.3854,-3.1255
2024-10-11T13:26:34.915Z,0.0000,-0.9924,0.1846,-0.0324,0.1008,-0.0337,-0.0042,0.0375,0.0119,-3.1048,1.3854,-3.1255
2024-10-11T13:26:34.924Z,-0.0004,-0.9920,0.1840,-0.0324,0.1008,-0.0337,-0.0026,0.0336,0.0117,-3.1048,1.3854,-3.1255
2024-10-11T13:26:34.934Z,0.0032,-0.9902,0.1832,-0.0570,0.0684,0.0114,-0.0052,0.0322,0.0118,-3.1072,1.3854,-3.1224
2024-10-11T13:26:34.944Z,-0.0004,-0.9872,0.1792,-0.0570,0.0684,0.0114,-0.0012,0.0289,0.0111,-3.1072,1.3854,-3.1224
2024-10-11T13:26:34.956Z,-0.0013,-0.9848,0.1782,-0.0570,0.0684,0.0114,-0.0015,0.0221,0.0117,-3.1072,1.3854,-3.1224
2024-10-11T13:26:34.965Z,0.0013,-0.9823,0.1773,-0.0532,-0.0154,0.0721,-0.0015,0.0221,0.0117,-3.1093,1.3854,-3.1198
2024-10-11T13:26:34.975Z,0.0028,-0.9784,0.1753,-0.0532,-0.0154,0.0721,-0.0007,0.0165,0.0101,-3.1093,1.3854,-3.1198
2024-10-11T13:26:34.984Z,0.0002,-0.9770,0.1758,-0.0532,-0.0154,0.0721,-0.0007,0.0165,0.0101,-3.1093,1.3854,-3.1198
2024-10-11T13:26:34.995Z,0.0014,-0.9765,0.1803,-0.0596,-0.0693,0.0320,0.0005,0.0071,0.0119,-3.1111,1.3853,-3.1179
2024-10-11T13:26:35.005Z,0.0001,-0.9757,0.1817,-0.0596,-0.0693,0.0320,0.0016,0.0034,0.0101,-3.1111,1.3853,-3.1179
2024-10-11T13:26:35.014Z,0.0005,-0.9765,0.1821,-0.0596,-0.0693,0.0320,0.0016,0.0034,0.0101,-3.1111,1.3853,-3.1179
2024-10-11T13:26:35.025Z,0.0008,-0.9787,0.1828,-0.0526,-0.0379,0.0192,0.0023,-0.0004,0.0109,-3.1131,1.3852,-3.1162
2024-10-11T13:26:35.033Z,0.0005,-0.9801,0.1846,-0.0526,-0.0379,0.0192,0.0023,-0.0004,0.0109,-3.1131,1.3852,-3.1162
2024-10-11T13:26:35.044Z,-0.0031,-0.9795,0.1849,-0.0526,-0.0379,0.0192,0.0019,-0.0044,0.0123,-3.1131,1.3852,-3.1162
2024-10-11T13:26:35.055Z,0.0001,-0.9790,0.1887,-0.0535,-0.0326,-0.0425,0.0017,0.0012,0.0114,-3.1150,1.3851,-3.1145
2024-10-11T13:26:35.065Z,0.0019,-0.9804,0.1897,-0.0535,-0.0326,-0.0425,0.0017,0.0012,0.0114,-3.1150,1.3851,-3.1145
2024-10-11T13:26:35.075Z,-0.0003,-0.9809,0.1893,-0.0535,-0.0326,-0.0425,0.0036,-0.0030,0.0132,-3.1150,1.3851,-3.1145
2024-10-11T13:26:35.084Z,-0.0021,-0.9818,0.1902,-0.0219,-0.0129,-0.0554,0.0023,-0.0026,0.0115,-3.1173,1.3849,-3.1127
2024-10-11T13:26:35.094Z,-0.0062,-0.9825,0.1894,-0.0219,-0.0129,-0.0554,0.0016,-0.0021,0.0122,-3.1173,1.3849,-3.1127
2024-10-11T13:26:35.105Z,-0.0099,-0.9841,0.1889,-0.0219,-0.0129,-0.0554,0.0007,-0.0044,0.0127,-3.1173,1.3849,-3.1127
2024-10-11T13:26:35.116Z,-0.0123,-0.9845,0.1864,0.0647,0.0229,-0.0188,0.0018,-0.0037,0.0130,-3.1195,1.3848,-3.1109
2024-10-11T13:26:35.124Z,-0.0108,-0.9876,0.1883,0.0647,0.0229,-0.0188,0.0018,-0.0028,0.0141,-3.1195,1.3848,-3.1109
2024-10-11T13:26:35.135Z,-0.0125,-0.9879,0.1899,0.0647,0.0229,-0.0188,-0.0001,-0.0059,0.0115,-3.1195,1.3848,-3.1109
2024-10-11T13:26:35.144Z,-0.0176,-0.9855,0.1906,0.1156,0.0249,-0.0565,-0.0001,-0.0059,0.0115,-3.1215,1.3847,-3.1094
2024-10-11T13:26:35.155Z,-0.0176,-0.9849,0.1898,0.1156,0.0249,-0.0565,0.0020,-0.0044,0.0106,-3.1215,1.3847,-3.1094
2024-10-11T13:26:35.166Z,-0.0176,-0.9853,0.1877,0.1156,0.0249,-0.0565,-0.0008,-0.0029,0.0102,-3.1215,1.3847,-3.1094
2024-10-11T13:26:35.174Z,-0.0164,-0.9851,0.1879,0.1015,0.0233,-0.0275,0.0001,-0.0022,0.0061,-3.1233,1.3847,-3.1080
2024-10-11T13:26:35.185Z,-0.0179,-0.9855,0.1865,0.1015,0.0233,-0.0275,0.0002,-0.0006,0.0070,-3.1233,1.3847,-3.1080
2024-10-11T13:26:35.194Z,-0.0172,-0.9856,0.1799,0.1015,0.0233,-0.0275,0.0002,-0.0031,0.0091,-3.1233,1.3847,-3.1080
2024-10-11T13:26:35.205Z,-0.0164,-0.9863,0.1776,0.0924,0.0317,0.0735,0.0006,-0.0034,0.0063,-3.1249,1.3846,-3.1067
2024-10-11T13:26:35.217Z,-0.0122,-0.9861,0.1767,0.0924,0.0317,0.0735,0.0019,-0.0047,0.0049,-3.1249,1.3846,-3.1067
2024-10-11T13:26:35.224Z,-0.0114,-0.9822,0.1743,0.0924,0.0317,0.0735,0.0033,-0.0050,0.0046,-3.1249,1.3846,-3.1067
2024-10-11T13:26:35.235Z,-0.0136,-0.9801,0.1736,0.0706,-0.0266,0.1118,0.0041,-0.0041,0.0019,-3.1261,1.3845,-3.1059
2024-10-11T13:26:35.244Z,-0.0137,-0.9804,0.1755,0.0706,-0.0266,0.1118,0.0042,-0.0033,0.0018,-3.1261,1.3845,-3.1059
2024-10-11T13:26:35.255Z,-0.0085,-0.9767,0.1758,0.0706,-0.0266,0.1118,0.0062,-0.0007,0.0024,-3.1261,1.3845,-3.1059
2024-10-11T13:26:35.266Z,-0.0133,-0.9759,0.1779,0.0641,-0.0590,0.0731,0.0036,0.0023,0.0005,-3.1268,1.3844,-3.1057
2024-10-11T13:26:35.274Z,-0.0146,-0.9760,0.1776,0.0641,-0.0590,0.0731,0.0064,0.0048,0.0009,-3.1268,1.3844,-3.1057
2024-10-11T13:26:35.285Z,-0.0148,-0.9757,0.1771,0.0641,-0.0590,0.0731,0.0060,0.0067,0.0007,-3.1268,1.3844,-3.1057
2024-10-11T13:26:35.295Z,-0.0181,-0.9736,0.1810,0.0815,-0.0765,0.0348,0.0069,0.0105,0.0010,-3.1274,1.3842,-3.1051
2024-10-11T13:26:35.305Z,-0.0181,-0.9736,0.1810,0.0815,-0.0765,0.0348,0.0042,0.0156,0.0013,-3.1274,1.3842,-3.1051
2024-10-11T13:26:35.315Z,-0.0193,-0.9734,0.1795,0.0815,-0.0765,0.0348,0.0047,0.0217,0.0006,-3.1274,1.3842,-3.1051
2024-10-11T13:26:35.324Z,-0.0201,-0.9756,0.1810,0.1240,-0.0637,0.0513,0.0038,0.0256,-0.0023,-3.1279,1.3841,-3.1044
2024-10-11T13:26:35.334Z,-0.0209,-0.9757,0.1775,0.1240,-0.0637,0.0513,0.0047,0.0285,0.0006,-3.1279,1.3841,-3.1044
2024-10-11T13:26:35.345Z,-0.0194,-0.9774,0.1759,0.1240,-0.0637,0.0513,0.0049,0.0310,-0.0009,-3.1279,1.3841,-3.1044
2024-10-11T13:26:35.355Z,-0.0196,-0.9787,0.1756,0.1222,-0.0354,0.0937,0.0042,0.0357,-0.0015,-3.1283,1.3839,-3.1034
2024-10-11T13:26:35.365Z,-0.0196,-0.9796,0.1758,0.1222,-0.0354,0.0937,0.0042,0.0357,-0.0015,-3.1283,1.3839,-3.1034
2024-10-11T13:26:35.374Z,-0.0196,-0.9796,0.1758,0.1222,-0.0354,0.0937,0.0047,0.0410,-0.0023,-3.1283,1.3839,-3.1034
2024-10-11T13:26:35.384Z,-0.0169,-0.9802,0.1764,0.0933,-0.0266,0.0888,0.0056,0.0440,-0.0011,-3.1288,1.3838,-3.1020
2024-10-11T13:26:35.394Z,-0.0173,-0.9829,0.1792,0.0933,-0.0266,0.0888,0.0047,0.0462,-0.0028,-3.1288,1.3838,-3.1020
2024-10-11T13:26:35.404Z,-0.0192,-0.9846,0.1825,0.0933,-0.0266,0.0888,0.0049,0.0504,-0.0040,-3.1288,1.3838,-3.1020
2024-10-11T13:26:35.416Z,-0.0177,-0.9856,0.1844,0.1032,0.0328,0.0183,0.0067,0.0536,-0.0042,-3.1293,1.3836,-3.1003
2024-10-11T13:26:35.424Z,-0.0214,-0.9890,0.1856,0.1032,0.0328,0.0183,0.0056,0.0543,-0.0036,-3.1293,1.3836,-3.1003
2024-10-11T13:26:35.434Z,-0.0174,-0.9940,0.1934,0.1032,0.0328,0.0183,0.0056,0.0543,-0.0036,-3.1293,1.3836,-3.1003
2024-10-11T13:26:35.445Z,-0.0142,-0.9938,0.1941,0.0886,0.1140,-0.0643,0.0051,0.0578,-0.0043,-3.1291,1.3835,-3.0991
2024-10-11T13:26:35.454Z,-0.0139,-0.9925,0.1941,0.0886,0.1140,-0.0643,0.0051,0.0578,-0.0043,-3.1291,1.3835,-3.0991
2024-10-11T13:26:35.466Z,-0.0165,-0.9918,0.1956,0.0886,0.1140,-0.0643,0.0029,0.0580,-0.0056,-3.1291,1.3835,-3.0991
2024-10-11T13:26:35.474Z,-0.0165,-0.9918,0.1956,0.0747,0.0911,-0.0903,0.0036,0.0612,-0.0046,-3.1287,1.3833,-3.0979
2024-10-11T13:26:35.485Z,-0.0116,-0.9897,0.1940,0.0747,0.0911,-0.0903,0.0009,0.0640,-0.0045,-3.1287,1.3833,-3.0979
2024-10-11T13:26:35.494Z,-0.0116,-0.9897,0.1940,0.0747,0.0911,-0.0903,0.0015,0.0645,-0.0082,-3.1287,1.3833,-3.0979
2024-10-11T13:26:35.505Z,-0.0105,-0.9897,0.1933,0.0546,0.0685,-0.0785,0.0015,0.0639,-0.0047,-3.1279,1.3832,-3.0970
2024-10-11T13:26:35.514Z,-0.0085,-0.9897,0.1929,0.0546,0.0685,-0.0785,-0.0012,0.0640,-0.0076,-3.1279,1.3832,-3.0970
2024-10-11T13:26:35.524Z,-0.0074,-0.9883,0.1924,0.0546,0.0685,-0.0785,0.0002,0.0638,-0.0046,-3.1279,1.3832,-3.0970
2024-10-11T13:26:35.534Z,-0.0074,-0.9883,0.1924,-0.0130,0.0510,-0.0591,0.0004,0.0611,-0.0058,-3.1274,1.3832,-3.0959
2024-10-11T13:26:35.545Z,-0.0043,-0.9856,0.1900,-0.0130,0.0510,-0.0591,0.0006,0.0639,-0.0062,-3.1274,1.3832,-3.0959
2024-10-11T13:26:35.554Z,-0.0043,-0.9856,0.1900,-0.0130,0.0510,-0.0591,-0.0008,0.0631,-0.0051,-3.1274,1.3832,-3.0959
2024-10-11T13:26:35.564Z,-0.0057,-0.9842,0.1896,-0.0341,0.0106,-0.0230,-0.0012,0.0587,-0.0051,-3.1267,1.3831,-3.0950
2024-10-11T13:26:35.574Z,-0.0003,-0.9796,0.1908,-0.0341,0.0106,-0.0230,-0.0002,0.0605,-0.0052,-3.1267,1.3831,-3.0950
2024-10-11T13:26:35.585Z,-0.0003,-0.9796,0.1908,-0.0341,0.0106,-0.0230,0.0008,0.0584,-0.0039,-3.1267,1.3831,-3.0950
2024-10-11T13:26:35.594Z,-0.0010,-0.9798,0.1907,-0.0695,-0.0308,-0.0321,-0.0045,0.0575,-0.0051,-3.1261,1.3831,-3.0941
2024-10-11T13:26:35.604Z,-0.0051,-0.9773,0.1888,-0.0695,-0.0308,-0.0321,-0.0011,0.0549,-0.0038,-3.1261,1.3831,-3.0941
2024-10-11T13:26:35.614Z,0.0000,-0.9753,0.1915,-0.0695,-0.0308,-0.0321,-0.0012,0.0533,-0.0025,-3.1261,1.3831,-3.0941
2024-10-11T13:26:35.624Z,-0.0023,-0.9758,0.1899,-0.0877,-0.0769,-0.0469,-0.0020,0.0515,-0.0026,-3.1256,1.3831,-3.0932
2024-10-11T13:26:35.634Z,-0.0003,-0.9772,0.1882,-0.0877,-0.0769,-0.0469,-0.0018,0.0505,-0.0024,-3.1256,1.3831,-3.0932
2024-10-11T13:26:35.644Z,-0.0004,-0.9779,0.1895,-0.0877,-0.0769,-0.0469,-0.0032,0.0484,-0.0036,-3.1256,1.3831,-3.0932
2024-10-11T13:26:35.654Z,-0.0022,-0.9752,0.1882,-0.0854,-0.0415,-0.0247,-0.0031,0.0476,-0.0024,-3.1254,1.3831,-3.0922
2024-10-11T13:26:35.665Z,-0.0019,-0.9737,0.1890,-0.0854,-0.0415,-0.0247,-0.0048,0.0492,-0.0034,-3.1254,1.3831,-3.0922
2024-10-11T13:26:35.675Z,-0.0036,-0.9723,0.1906,-0.0854,-0.0415,-0.0247,-0.0029,0.0442,-0.0046,-3.1254,1.3831,-3.0922
2024-10-11T13:26:35.684Z,-0.0036,-0.9723,0.1906,-0.0559,-0.1020,-0.0385,0.0005,0.0430,-0.0017,-3.1252,1.3832,-3.0912
2024-10-11T13:26:35.695Z,-0.0059,-0.9724,0.1863,-0.0559,-0.1020,-0.0385,-0.0018,0.0405,-0.0027,-3.1252,1.3832,-3.0912
2024-10-11T13:26:35.705Z,-0.0039,-0.9742,0.1883,-0.0559,-0.1020,-0.0385,-0.0014,0.0401,-0.0069,-3.1252,1.3832,-3.0912
2024-10-11T13:26:35.714Z,-0.0024,-0.9751,0.1872,-0.0681,-0.0790,-0.0119,-0.0010,0.0358,-0.0079,-3.1244,1.3832,-3.0911
2024-10-11T13:26:35.724Z,-0.0014,-0.9771,0.1882,-0.0681,-0.0790,-0.0119,0.0002,0.0332,-0.0076,-3.1244,1.3832,-3.0911
2024-10-11T13:26:35.734Z,-0.0025,-0.9800,0.1884,-0.0681,-0.0790,-0.0119,0.0025,0.0324,-0.0060,-3.1244,1.3832,-3.0911
2024-10-11T13:26:35.744Z,-0.0054,-0.9826,0.1877,-0.0665,-0.0261,-0.0168,0.0057,0.0321,-0.0070,-3.1225,1.3831,-3.0922
2024-10-11T13:26:35.754Z,-0.0058,-0.9838,0.1871,-0.0665,-0.0261,-0.0168,0.0054,0.0300,-0.0074,-3.1225,1.3831,-3.0922
2024-10-11T13:26:35.765Z,-0.0019,-0.9827,0.1897,-0.0665,-0.0261,-0.0168,0.0037,0.0261,-0.0065,-3.1225,1.3831,-3.0922
2024-10-11T13:26:35.774Z,-0.0047,-0.9853,0.1902,-0.0635,0.0023,-0.0351,0.0037,0.0254,-0.0092,-3.1213,1.3829,-3.0929
2024-10-11T13:26:35.784Z,-0.0047,-0.9853,0.1902,-0.0635,0.0023,-0.0351,0.0047,0.0207,-0.0108,-3.1213,1.3829,-3.0929
2024-10-11T13:26:35.794Z,-0.0058,-0.9838,0.1918,-0.0635,0.0023,-0.0351,0.0059,0.0200,-0.0110,-3.1213,1.3829,-3.0929
2024-10-11T13:26:35.804Z,-0.0069,-0.9823,0.1933,-0.0384,0.0100,-0.0455,0.0032,0.0146,-0.0130,-3.1197,1.3828,-3.0941
2024-10-11T13:26:35.814Z,-0.0113,-0.9819,0.1940,-0.0384,0.0100,-0.0455,0.0033,0.0140,-0.0177,-3.1197,1.3828,-3.0941
2024-10-11T13:26:35.824Z,-0.0109,-0.9801,0.1930,-0.0384,0.0100,-0.0455,0.0053,0.0078,-0.0147,-3.1197,1.3828,-3.0941
2024-10-11T13:26:35.834Z,-0.0109,-0.9801,0.1930,0.0226,-0.0234,-0.0532,0.0033,0.0020,-0.0198,-3.1172,1.3826,-3.0965
2024-10-11T13:26:35.844Z,-0.0097,-0.9820,0.1944,0.0226,-0.0234,-0.0532,0.0032,-0.0000,-0.0205,-3.1172,1.3826,-3.0965
2024-10-11T13:26:35.854Z,-0.0081,-0.9823,0.1934,0.0226,-0.0234,-0.0532,0.0039,-0.0020,-0.0209,-3.1172,1.3826,-3.0965
2024-10-11T13:26:35.864Z,-0.0039,-0.9818,0.1955,0.0011,-0.0038,-0.0657,0.0011,-0.0076,-0.0234,-3.1139,1.3825,-3.0999
2024-10-11T13:26:35.874Z,-0.0014,-0.9821,0.1944,0.0011,-0.0038,-0.0657,0.0044,-0.0073,-0.0270,-3.1139,1.3825,-3.0999
2024-10-11T13:26:35.884Z,-0.0014,-0.9821,0.1944,0.0011,-0.0038,-0.0657,0.0016,-0.0104,-0.0241,-3.1139,1.3825,-3.0999
2024-10-11T13:26:35.894Z,0.0002,-0.9821,0.1928,-0.0482,-0.0049,-0.0585,0.0033,-0.0097,-0.0238,-3.1102,1.3824,-3.1042
2024-10-11T13:26:35.904Z,0.0055,-0.9825,0.1950,-0.0482,-0.0049,-0.0585,0.0010,-0.0115,-0.0244,-3.1102,1.3824,-3.1042
2024-10-11T13:26:35.914Z,0.0087,-0.9826,0.1964,-0.0482,-0.0049,-0.0585,0.0018,-0.0112,-0.0223,-3.1102,1.3824,-3.1042
2024-10-11T13:26:35.924Z,0.0065,-0.9829,0.1929,-0.1404,-0.0003,-0.0769,0.0022,-0.0120,-0.0212,-3.1067,1.3823,-3.1082
2024-10-11T13:26:35.933Z,0.0065,-0.9829,0.1929,-0.1404,-0.0003,-0.0769,0.0019,-0.0095,-0.0202,-3.1067,1.3823,-3.1082
2024-10-11T13:26:35.944Z,0.0065,-0.9810,0.1950,-0.1404,-0.0003,-0.0769,0.0012,-0.0085,-0.0191,-3.1067,1.3823,-3.1082
2024-10-11T13:26:35.954Z,0.0051,-0.9806,0.1945,-0.1145,-0.0052,-0.0680,0.0010,-0.0087,-0.0194,-3.1038,1.3822,-3.1116
2024-10-11T13:26:35.964Z,0.0036,-0.9802,0.1963,-0.1145,-0.0052,-0.0680,0.0008,-0.0111,-0.0176,-3.1038,1.3822,-3.1116
2024-10-11T13:26:35.974Z,0.0004,-0.9807,0.1953,-0.1145,-0.0052,-0.0680,-0.0021,-0.0096,-0.0180,-3.1038,1.3822,-3.1116
2024-10-11T13:26:35.985Z,0.0004,-0.9807,0.1953,-0.0465,-0.0114,-0.0770,0.0018,-0.0067,-0.0171,-3.1011,1.3821,-3.1149
2024-10-11T13:26:35.994Z,-0.0026,-0.9815,0.1952,-0.0465,-0.0114,-0.0770,0.0024,-0.0020,-0.0166,-3.1011,1.3821,-3.1149
2024-10-11T13:26:36.004Z,-0.0041,-0.9837,0.1947,-0.0465,-0.0114,-0.0770,0.0018,-0.0014,-0.0171,-3.1011,1.3821,-3.1149
2024-10-11T13:26:36.014Z,-0.0089,-0.9855,0.1933,0.0031,0.0198,-0.0692,0.0006,0.0008,-0.0167,-3.0982,1.3821,-3.1180
2024-10-11T13:26:36.025Z,-0.0099,-0.9865,0.1950,0.0031,0.0198,-0.0692,0.0004,-0.0012,-0.0180,-3.0982,1.3821,-3.1180
2024-10-11T13:26:36.034Z,-0.0099,-0.9865,0.1950,0.0031,0.0198,-0.0692,0.0016,0.0018,-0.0183,-3.0982,1.3821,-3.1180
2024-10-11T13:26:36.044Z,-0.0105,-0.9882,0.1909,0.0611,0.0553,-0.0471,-0.0026,0.0089,-0.0166,-3.0956,1.3821,-3.1208
2024-10-11T13:26:36.054Z,-0.0132,-0.9893,0.1934,0.0611,0.0553,-0.0471,-0.0027,0.0106,-0.0182,-3.0956,1.3821,-3.1208
2024-10-11T13:26:36.064Z,-0.0203,-0.9870,0.1896,0.0611,0.0553,-0.0471,-0.0051,0.0123,-0.0190,-3.0956,1.3821,-3.1208
2024-10-11T13:26:36.074Z,-0.0253,-0.9853,0.1904,0.1643,0.0444,-0.0204,-0.0022,0.0204,-0.0166,-3.0927,1.3821,-3.1235
2024-10-11T13:26:36.084Z,-0.0253,-0.9853,0.1904,0.1643,0.0444,-0.0204,-0.0039,0.0307,-0.0187,-3.0927,1.3821,-3.1235
2024-10-11T13:26:36.094Z,-0.0296,-0.9825,0.1915,0.1643,0.0444,-0.0204,-0.0027,0.0384,-0.0181,-3.0927,1.3821,-3.1235
2024-10-11T13:26:36.104Z,-0.0314,-0.9833,0.1895,0.2718,0.0010,-0.0359,-0.0046,0.0481,-0.0182,-3.0898,1.3822,-3.1256
2024-10-11T13:26:36.114Z,-0.0263,-0.9820,0.1871,0.2718,0.0010,-0.0359,-0.0056,0.0511,-0.0179,-3.0898,1.3822,-3.1256
2024-10-11T13:26:36.124Z,-0.0222,-0.9817,0.1860,0.2718,0.0010,-0.0359,-0.0041,0.0540,-0.0165,-3.0898,1.3822,-3.1256
2024-10-11T13:26:36.134Z,-0.0222,-0.9817,0.1860,0.1768,-0.0120,0.0183,-0.0042,0.0594,-0.0167,-3.0870,1.3823,-3.1270
2024-10-11T13:26:36.143Z,-0.0136,-0.9794,0.1805,0.1768,-0.0120,0.0183,-0.0030,0.0639,-0.0186,-3.0870,1.3823,-3.1270
2024-10-11T13:26:36.154Z,-0.0083,-0.9809,0.1793,0.1768,-0.0120,0.0183,-0.0043,0.0623,-0.0173,-3.0870,1.3823,-3.1270
2024-10-11T13:26:36.163Z,-0.0008,-0.9811,0.1772,0.0408,-0.0059,0.0754,-0.0020,0.0653,-0.0173,-3.0846,1.3824,-3.1278
2024-10-11T13:26:36.174Z,-0.0007,-0.9804,0.1767,0.0408,-0.0059,0.0754,-0.0041,0.0684,-0.0167,-3.0846,1.3824,-3.1278
2024-10-11T13:26:36.185Z,0.0045,-0.9816,0.1775,0.0408,-0.0059,0.0754,-0.0014,0.0684,-0.0148,-3.0846,1.3824,-3.1278
2024-10-11T13:26:36.194Z,0.0042,-0.9806,0.1762,-0.0754,-0.0129,0.0955,-0.0037,0.0668,-0.0136,-3.0827,1.3825,-3.1279
2024-10-11T13:26:36.204Z,0.0032,-0.9801,0.1815,-0.0754,-0.0129,0.0955,-0.0050,0.0678,-0.0112,-3.0827,1.3825,-3.1279
2024-10-11T13:26:36.214Z,0.0024,-0.9791,0.1800,-0.0754,-0.0129,0.0955,-0.0042,0.0685,-0.0099,-3.0827,1.3825,-3.1279
2024-10-11T13:26:36.224Z,-0.0009,-0.9785,0.1807,-0.0515,-0.0241,0.0702,-0.0030,0.0717,-0.0108,-3.0811,1.3826,-3.1277
2024-10-11T13:26:36.235Z,-0.0033,-0.9767,0.1825,-0.0515,-0.0241,0.0702,-0.0032,0.0717,-0.0103,-3.0811,1.3826,-3.1277
2024-10-11T13:26:36.245Z,-0.0069,-0.9754,0.1813,-0.0515,-0.0241,0.0702,-0.0018,0.0770,-0.0085,-3.0811,1.3826,-3.1277
2024-10-11T13:26:36.254Z,-0.0098,-0.9756,0.1807,0.0457,-0.0692,0.0538,-0.0042,0.0808,-0.0095,-3.0797,1.3827,-3.1270
2024-10-11T13:26:36.265Z,-0.0096,-0.9751,0.1792,0.0457,-0.0692,0.0538,-0.0017,0.0852,-0.0061,-3.0797,1.3827,-3.1270
2024-10-11T13:26:36.274Z,-0.0086,-0.9766,0.1783,0.0457,-0.0692,0.0538,-0.0031,0.0890,-0.0053,-3.0797,1.3827,-3.1270
2024-10-11T13:26:36.285Z,-0.0057,-0.9777,0.1792,0.0563,-0.0594,0.0877,-0.0018,0.0895,-0.0021,-3.0789,1.3827,-3.1256
2024-10-11T13:26:36.294Z,-0.0018,-0.9798,0.1791,0.0563,-0.0594,0.0877,-0.0013,0.0865,-0.0027,-3.0789,1.3827,-3.1256
2024-10-11T13:26:36.304Z,-0.0016,-0.9795,0.1805,0.0563,-0.0594,0.0877,-0.0015,0.0848,-0.0044,-3.0789,1.3827,-3.1256
2024-10-11T13:26:36.314Z,0.0033,-0.9839,0.1851,-0.0148,-0.0284,0.0563,-0.0013,0.0820,-0.0029,-3.0784,1.3827,-3.1238
2024-10-11T13:26:36.324Z,0.0100,-0.9845,0.1856,-0.0148,-0.0284,0.0563,-0.0041,0.0753,-0.0017,-3.0784,1.3827,-3.1238
2024-10-11T13:26:36.335Z,0.0140,-0.9888,0.1881,-0.0148,-0.0284,0.0563,-0.0042,0.0644,-0.0032,-3.0784,1.3827,-3.1238
2024-10-11T13:26:36.344Z,0.0161,-0.9913,0.1884,-0.1774,0.0712,-0.0136,-0.0059,0.0609,-0.0020,-3.0780,1.3828,-3.1222
2024-10-11T13:26:36.354Z,0.0186,-0.9932,0.1901,-0.1774,0.0712,-0.0136,-0.0080,0.0521,-0.0044,-3.0780,1.3828,-3.1222
2024-10-11T13:26:36.364Z,0.0218,-0.9941,0.1906,-0.1774,0.0712,-0.0136,-0.0081,0.0451,-0.0008,-3.0780,1.3828,-3.1222
2024-10-11T13:26:36.374Z,0.0217,-0.9954,0.1924,-0.2587,0.1209,-0.0380,-0.0100,0.0353,0.0003,-3.0778,1.3830,-3.1211
2024-10-11T13:26:36.384Z,0.0252,-0.9935,0.1962,-0.2587,0.1209,-0.0380,-0.0097,0.0265,0.0000,-3.0778,1.3830,-3.1211
2024-10-11T13:26:36.394Z,0.0258,-0.9924,0.2015,-0.2587,0.1209,-0.0380,-0.0103,0.0190,-0.0011,-3.0778,1.3830,-3.1211
2024-10-11T13:26:36.404Z,0.0250,-0.9943,0.2052,-0.2933,0.0952,-0.1537,-0.0122,0.0110,-0.0021,-3.0778,1.3833,-3.1205
2024-10-11T13:26:36.414Z,0.0278,-0.9937,0.2068,-0.2933,0.0952,-0.1537,-0.0164,0.0030,-0.0021,-3.0778,1.3833,-3.1205
2024-10-11T13:26:36.424Z,0.0262,-0.9949,0.2080,-0.2933,0.0952,-0.1537,-0.0177,-0.0050,0.0012,-3.0778,1.3833,-3.1205
2024-10-11T13:26:36.436Z,0.0251,-0.9944,0.2093,-0.2982,0.1201,-0.2170,-0.0202,-0.0093,-0.0003,-3.0779,1.3837,-3.1206
2024-10-11T13:26:36.444Z,0.0245,-0.9951,0.2082,-0.2982,0.1201,-0.2170,-0.0207,-0.0152,0.0011,-3.0779,1.3837,-3.1206
2024-10-11T13:26:36.454Z,0.0280,-0.9962,0.2085,-0.2982,0.1201,-0.2170,-0.0232,-0.0203,-0.0009,-3.0779,1.3837,-3.1206
2024-10-11T13:26:36.464Z,0.0282,-0.9944,0.2053,-0.3186,0.1359,-0.2258,-0.0224,-0.0292,0.0028,-3.0782,1.3843,-3.1211
2024-10-11T13:26:36.474Z,0.0282,-0.9951,0.1996,-0.3186,0.1359,-0.2258,-0.0275,-0.0329,0.0032,-3.0782,1.3843,-3.1211
2024-10-11T13:26:36.485Z,0.0300,-0.9922,0.1978,-0.3186,0.1359,-0.2258,-0.0273,-0.0428,0.0073,-3.0782,1.3843,-3.1211
2024-10-11T13:26:36.494Z,0.0282,-0.9953,0.1963,-0.3298,0.0979,-0.1313,-0.0282,-0.0440,0.0058,-3.0791,1.3850,-3.1216
2024-10-11T13:26:36.503Z,0.0266,-0.9893,0.1918,-0.3298,0.0979,-0.1313,-0.0315,-0.0537,0.0051,-3.0791,1.3850,-3.1216
2024-10-11T13:26:36.514Z,0.0282,-0.9825,0.1824,-0.3298,0.0979,-0.1313,-0.0282,-0.0626,0.0081,-3.0791,1.3850,-3.1216
2024-10-11T13:26:36.524Z,0.0253,-0.9855,0.1917,-0.3292,-0.0233,0.0171,-0.0274,-0.0652,0.0069,-3.0801,1.3859,-3.1223
2024-10-11T13:26:36.534Z,0.0258,-0.9691,0.1758,-0.3292,-0.0233,0.0171,-0.0258,-0.0728,0.0094,-3.0801,1.3859,-3.1223
2024-10-11T13:26:36.544Z,0.0315,-0.9861,0.1871,-0.3292,-0.0233,0.0171,-0.0314,-0.0694,0.0080,-3.0801,1.3859,-3.1223
2024-10-11T13:26:36.553Z,0.0171,-0.9790,0.1780,-0.3145,0.0576,-0.0232,-0.0260,-0.0758,0.0069,-3.0815,1.3867,-3.1233
2024-10-11T13:26:36.564Z,0.0307,-0.9744,0.1754,-0.3145,0.0576,-0.0232,-0.0264,-0.0739,0.0072,-3.0815,1.3867,-3.1233
2024-10-11T13:26:36.574Z,0.0175,-0.9795,0.1768,-0.3145,0.0576,-0.0232,-0.0253,-0.0795,0.0112,-3.0815,1.3867,-3.1233
2024-10-11T13:26:36.584Z,0.0274,-0.9727,0.1758,-0.1941,-0.0612,0.0675,-0.0226,-0.0824,0.0120,-3.0833,1.3874,-3.1242
2024-10-11T13:26:36.594Z,0.0203,-0.9760,0.1748,-0.1941,-0.0612,0.0675,-0.0192,-0.0854,0.0126,-3.0833,1.3874,-3.1242
2024-10-11T13:26:36.604Z,0.0205,-0.9706,0.1759,-0.1941,-0.0612,0.0675,-0.0203,-0.0855,0.0108,-3.0833,1.3874,-3.1242
2024-10-11T13:26:36.614Z,0.0173,-0.9722,0.1747,-0.2485,-0.1118,0.0527,-0.0197,-0.0872,0.0134,-3.0854,1.3880,-3.1248
2024-10-11T13:26:36.624Z,0.0165,-0.9662,0.1747,-0.2485,-0.1118,0.0527,-0.0154,-0.0874,0.0134,-3.0854,1.3880,-3.1248
2024-10-11T13:26:36.636Z,0.0153,-0.9697,0.1764,-0.2485,-0.1118,0.0527,-0.0148,-0.0815,0.0161,-3.0854,1.3880,-3.1248
2024-10-11T13:26:36.644Z,0.0157,-0.9670,0.1753,-0.1674,-0.1455,0.0393,-0.0111,-0.0832,0.0151,-3.0878,1.3884,-3.1253
2024-10-11T13:26:36.654Z,0.0132,-0.9671,0.1725,-0.1674,-0.1455,0.0393,-0.0112,-0.0803,0.0141,-3.0878,1.3884,-3.1253
2024-10-11T13:26:36.664Z,0.0124,-0.9678,0.1703,-0.1674,-0.1455,0.0393,-0.0075,-0.0818,0.0160,-3.0878,1.3884,-3.1253
2024-10-11T13:26:36.674Z,0.0081,-0.9707,0.1694,-0.1450,-0.1525,0.1122,-0.0067,-0.0762,0.0149,-3.0903,1.3887,-3.1256
2024-10-11T13:26:36.685Z,0.0043,-0.9714,0.1640,-0.1450,-0.1525,0.1122,-0.0034,-0.0786,0.0145,-3.0903,1.3887,-3.1256
2024-10-11T13:26:36.694Z,-0.0012,-0.9702,0.1636,-0.1450,-0.1525,0.1122,-0.0034,-0.0737,0.0143,-3.0903,1.3887,-3.1256
2024-10-11T13:26:36.704Z,-0.0094,-0.9701,0.1565,-0.0007,-0.1282,0.1880,-0.0001,-0.0687,0.0113,-3.0928,1.3887,-3.1257
2024-10-11T13:26:36.714Z,-0.0095,-0.9693,0.1536,-0.0007,-0.1282,0.1880,0.0064,-0.0618,0.0128,-3.0928,1.3887,-3.1257
2024-10-11T13:26:36.724Z,-0.0120,-0.9715,0.1583,-0.0007,-0.1282,0.1880,0.0056,-0.0577,0.0110,-3.0928,1.3887,-3.1257
2024-10-11T13:26:36.734Z,-0.0111,-0.9696,0.1595,0.0871,-0.1238,0.2249,0.0078,-0.0520,0.0120,-3.0949,1.3886,-3.1257
2024-10-11T13:26:36.744Z,-0.0125,-0.9704,0.1611,0.0871,-0.1238,0.2249,0.0072,-0.0432,0.0106,-3.0949,1.3886,-3.1257
2024-10-11T13:26:36.754Z,-0.0107,-0.9709,0.1661,0.0871,-0.1238,0.2249,0.0114,-0.0407,0.0096,-3.0949,1.3886,-3.1257
2024-10-11T13:26:36.764Z,-0.0102,-0.9682,0.1687,0.0736,-0.1327,0.1521,0.0158,-0.0320,0.0116,-3.0968,1.3882,-3.1255
2024-10-11T13:26:36.774Z,-0.0094,-0.9694,0.1734,0.0736,-0.1327,0.1521,0.0175,-0.0242,0.0137,-3.0968,1.3882,-3.1255
2024-10-11T13:26:36.784Z,-0.0058,-0.9710,0.1768,0.0736,-0.1327,0.1521,0.0172,-0.0205,0.0132,-3.0968,1.3882,-3.1255
2024-10-11T13:26:36.794Z,-0.0057,-0.9739,0.1778,0.0298,-0.1165,0.0496,0.0203,-0.0173,0.0150,-3.0990,1.3877,-3.1242
2024-10-11T13:26:36.804Z,-0.0034,-0.9731,0.1768,0.0298,-0.1165,0.0496,0.0192,-0.0117,0.0155,-3.0990,1.3877,-3.1242
2024-10-11T13:26:36.814Z,-0.0036,-0.9755,0.1777,0.0298,-0.1165,0.0496,0.0212,-0.0067,0.0147,-3.0990,1.3877,-3.1242
2024-10-11T13:26:36.824Z,-0.0026,-0.9787,0.1786,-0.0062,-0.0695,0.0443,0.0222,-0.0045,0.0194,-3.1016,1.3870,-3.1222
2024-10-11T13:26:36.834Z,-0.0030,-0.9801,0.1755,-0.0062,-0.0695,0.0443,0.0219,-0.0010,0.0176,-3.1016,1.3870,-3.1222
2024-10-11T13:26:36.844Z,-0.0004,-0.9823,0.1743,-0.0062,-0.0695,0.0443,0.0206,-0.0003,0.0183,-3.1016,1.3870,-3.1222
2024-10-11T13:26:36.854Z,-0.0001,-0.9825,0.1739,-0.0333,-0.0005,0.0864,0.0204,0.0029,0.0184,-3.1044,1.3863,-3.1198
2024-10-11T13:26:36.864Z,-0.0039,-0.9861,0.1722,-0.0333,-0.0005,0.0864,0.0210,0.0020,0.0190,-3.1044,1.3863,-3.1198
2024-10-11T13:26:36.874Z,-0.0002,-0.9872,0.1754,-0.0333,-0.0005,0.0864,0.0214,0.0033,0.0195,-3.1044,1.3863,-3.1198
2024-10-11T13:26:36.884Z,0.0034,-0.9869,0.1779,-0.0495,0.0406,0.0800,0.0222,0.0026,0.0207,-3.1077,1.3856,-3.1167
2024-10-11T13:26:36.894Z,0.0022,-0.9905,0.1819,-0.0495,0.0406,0.0800,0.0191,-0.0020,0.0194,-3.1077,1.3856,-3.1167
2024-10-11T13:26:36.904Z,0.0076,-0.9919,0.1862,-0.0495,0.0406,0.0800,0.0218,-0.0029,0.0189,-3.1077,1.3856,-3.1167
2024-10-11T13:26:36.914Z,0.0087,-0.9920,0.1888,-0.1303,0.0921,-0.0244,0.0214,-0.0108,0.0189,-3.1111,1.3850,-3.1137
2024-10-11T13:26:36.923Z,0.0109,-0.9920,0.1917,-0.1303,0.0921,-0.0244,0.0172,-0.0134,0.0209,-3.1111,1.3850,-3.1137
2024-10-11T13:26:36.934Z,0.0101,-0.9924,0.1953,-0.1303,0.0921,-0.0244,0.0163,-0.0213,0.0191,-3.1111,1.3850,-3.1137
2024-10-11T13:26:36.944Z,0.0119,-0.9926,0.2009,-0.1566,0.0918,-0.1029,0.0165,-0.0277,0.0211,-3.1147,1.3844,-3.1109
2024-10-11T13:26:36.954Z,0.0128,-0.9917,0.2022,-0.1566,0.0918,-0.1029,0.0142,-0.0311,0.0209,-3.1147,1.3844,-3.1109
2024-10-11T13:26:36.963Z,0.0095,-0.9913,0.2027,-0.1566,0.0918,-0.1029,0.0133,-0.0372,0.0196,-3.1147,1.3844,-3.1109
2024-10-11T13:26:36.974Z,0.0110,-0.9903,0.2054,-0.1469,0.0814,-0.1710,0.0106,-0.0461,0.0194,-3.1181,1.3840,-3.1089
2024-10-11T13:26:36.984Z,0.0095,-0.9896,0.2043,-0.1469,0.0814,-0.1710,0.0115,-0.0513,0.0169,-3.1181,1.3840,-3.1089
2024-10-11T13:26:36.994Z,0.0059,-0.9878,0.2039,-0.1469,0.0814,-0.1710,0.0080,-0.0616,0.0159,-3.1181,1.3840,-3.1089
2024-10-11T13:26:37.004Z,0.0075,-0.9880,0.2020,-0.1273,0.0545,-0.1772,0.0054,-0.0685,0.0140,-3.1211,1.3837,-3.1079
2024-10-11T13:26:37.014Z,0.0067,-0.9870,0.1994,-0.1273,0.0545,-0.1772,0.0027,-0.0746,0.0145,-3.1211,1.3837,-3.1079
2024-10-11T13:26:37.024Z,0.0098,-0.9862,0.1968,-0.1273,0.0545,-0.1772,0.0004,-0.0829,0.0123,-3.1211,1.3837,-3.1079
2024-10-11T13:26:37.034Z,0.0072,-0.9849,0.1910,-0.1590,0.0329,-0.0923,0.0028,-0.0878,0.0159,-3.1236,1.3835,-3.1079
2024-10-11T13:26:37.044Z,0.0114,-0.9844,0.1891,-0.1590,0.0329,-0.0923,0.0003,-0.0944,0.0126,-3.1236,1.3835,-3.1079
2024-10-11T13:26:37.054Z,0.0131,-0.9860,0.1839,-0.1590,0.0329,-0.0923,0.0010,-0.0978,0.0131,-3.1236,1.3835,-3.1079
2024-10-11T13:26:37.064Z,0.0128,-0.9877,0.1817,-0.1877,0.0335,0.0256,0.0007,-0.1069,0.0155,-3.1259,1.3834,-3.1088
2024-10-11T13:26:37.074Z,0.0145,-0.9865,0.1802,-0.1877,0.0335,0.0256,0.0021,-0.1082,0.0143,-3.1259,1.3834,-3.1088
2024-10-11T13:26:37.086Z,0.0112,-0.9862,0.1807,-0.1570,0.0399,0.0495,0.0030,-0.1111,0.0143,-3.1284,1.3834,-3.1098
2024-10-11T13:26:37.094Z,0.0085,-0.9869,0.1803,-0.1570,0.0399,0.0495,0.0012,-0.1111,0.0171,-3.1284,1.3834,-3.1098
2024-10-11T13:26:37.104Z,0.0066,-0.9856,0.1815,-0.1570,0.0399,0.0495,0.0008,-0.1134,0.0155,-3.1284,1.3834,-3.1098
2024-10-11T13:26:37.114Z,0.0036,-0.9858,0.1806,-0.1570,0.0399,0.0495,0.0008,-0.1159,0.0173,-3.1284,1.3834,-3.1098
2024-10-11T13:26:37.124Z,0.0012,-0.9858,0.1803,-0.0887,0.0231,0.0582,0.0023,-0.1137,0.0157,-3.1311,1.3833,-3.1108
2024-10-11T13:26:37.136Z,0.0008,-0.9858,0.1832,-0.0887,0.0231,0.0582,-0.0010,-0.1151,0.0157,-3.1311,1.3833,-3.1108
2024-10-11T13:26:37.144Z,0.0018,-0.9844,0.1844,-0.0887,0.0231,0.0582,0.0010,-0.1171,0.0165,-3.1311,1.3833,-3.1108
2024-10-11T13:26:37.154Z,-0.0029,-0.9849,0.1840,-0.0606,0.0242,0.0171,0.0010,-0.1156,0.0166,-3.1337,1.3833,-3.1119
2024-10-11T13:26:37.164Z,-0.0041,-0.9831,0.1846,-0.0606,0.0242,0.0171,0.0018,-0.1164,0.0171,-3.1337,1.3833,-3.1119
2024-10-11T13:26:37.174Z,-0.0072,-0.9832,0.1823,-0.0606,0.0242,0.0171,0.0020,-0.1150,0.0136,-3.1337,1.3833,-3.1119
2024-10-11T13:26:37.185Z,-0.0085,-0.9838,0.1830,0.0304,0.0176,0.0373,0.0035,-0.1149,0.0154,-3.1365,1.3832,-3.1130
2024-10-11T13:26:37.194Z,-0.0095,-0.9816,0.1847,0.0304,0.0176,0.0373,0.0033,-0.1133,0.0155,-3.1365,1.3832,-3.1130
2024-10-11T13:26:37.204Z,-0.0125,-0.9801,0.1841,0.0304,0.0176,0.0373,0.0030,-0.1120,0.0131,-3.1365,1.3832,-3.1130
2024-10-11T13:26:37.214Z,-0.0137,-0.9793,0.1836,0.0722,-0.0223,0.0279,0.0029,-0.1073,0.0136,-3.1389,1.3831,-3.1143
2024-10-11T13:26:37.224Z,-0.0154,-0.9764,0.1830,0.0722,-0.0223,0.0279,0.0045,-0.1051,0.0093,-3.1389,1.3831,-3.1143
2024-10-11T13:26:37.236Z,-0.0161,-0.9752,0.1834,0.1057,-0.0759,0.0285,0.0019,-0.0981,0.0103,-3.1408,1.3830,-3.1157
2024-10-11T13:26:37.244Z,-0.0141,-0.9714,0.1840,0.1057,-0.0759,0.0285,-0.0011,-0.0948,0.0104,-3.1408,1.3830,-3.1157
2024-10-11T13:26:37.254Z,-0.0135,-0.9720,0.1838,0.1057,-0.0759,0.0285,0.0018,-0.0908,0.0098,-3.1408,1.3830,-3.1157
2024-10-11T13:26:37.265Z,-0.0148,-0.9715,0.1826,0.1040,-0.1138,0.0455,0.0013,-0.0862,0.0108,3.1406,1.3829,-3.1169
2024-10-11T13:26:37.274Z,-0.0163,-0.9714,0.1837,0.1040,-0.1138,0.0455,0.0026,-0.0821,0.0121,3.1406,1.3829,-3.1169
2024-10-11T13:26:37.285Z,-0.0159,-0.9725,0.1816,0.1040,-0.1138,0.0455,0.0008,-0.0737,0.0110,3.1406,1.3829,-3.1169
2024-10-11T13:26:37.295Z,-0.0194,-0.9733,0.1796,0.1489,-0.0844,0.0765,0.0011,-0.0689,0.0095,3.1387,1.3828,-3.1175
2024-10-11T13:26:37.304Z,-0.0204,-0.9747,0.1809,0.1489,-0.0844,0.0765,0.0045,-0.0590,0.0132,3.1387,1.3828,-3.1175
2024-10-11T13:26:37.314Z,-0.0193,-0.9784,0.1824,0.1489,-0.0844,0.0765,0.0025,-0.0538,0.0099,3.1387,1.3828,-3.1175
2024-10-11T13:26:37.325Z,-0.0183,-0.9785,0.1842,0.1280,-0.0358,0.0228,0.0034,-0.0527,0.0109,3.1367,1.3827,-3.1174
2024-10-11T13:26:37.335Z,-0.0186,-0.9800,0.1850,0.1280,-0.0358,0.0228,0.0034,-0.0448,0.0108,3.1367,1.3827,-3.1174
2024-10-11T13:26:37.344Z,-0.0206,-0.9829,0.1870,0.1280,-0.0358,0.0228,0.0018,-0.0417,0.0099,3.1367,1.3827,-3.1174
2024-10-11T13:26:37.354Z,-0.0186,-0.9861,0.1902,0.1280,-0.0358,0.0228,-0.0003,-0.0388,0.0093,3.1367,1.3827,-3.1174
2024-10-11T13:26:37.365Z,-0.0183,-0.9849,0.1912,0.1343,0.0417,-0.0343,0.0047,-0.0385,0.0067,3.1352,1.3825,-3.1175
2024-10-11T13:26:37.374Z,-0.0157,-0.9859,0.1916,0.1343,0.0417,-0.0343,0.0052,-0.0364,0.0058,3.1352,1.3825,-3.1175
2024-10-11T13:26:37.388Z,-0.0118,-0.9867,0.1929,0.0585,0.0528,-0.0595,0.0039,-0.0358,0.0065,3.1340,1.3824,-3.1176
2024-10-11T13:26:37.394Z,-0.0085,-0.9886,0.1911,0.0585,0.0528,-0.0595,0.0056,-0.0343,0.0040,3.1340,1.3824,-3.1176
2024-10-11T13:26:37.404Z,-0.0074,-0.9893,0.1889,0.0585,0.0528,-0.0595,0.0033,-0.0323,0.0039,3.1340,1.3824,-3.1176
2024-10-11T13:26:37.415Z,-0.0020,-0.9878,0.1889,-0.0249,0.0506,-0.0074,0.0054,-0.0348,0.0072,3.1328,1.3822,-3.1178
2024-10-11T13:26:37.424Z,-0.0063,-0.9855,0.1868,-0.0249,0.0506,-0.0074,0.0062,-0.0316,0.0091,3.1328,1.3822,-3.1178
2024-10-11T13:26:37.435Z,-0.0053,-0.9818,0.1845,-0.0249,0.0506,-0.0074,0.0088,-0.0311,0.0080,3.1328,1.3822,-3.1178
2024-10-11T13:26:37.445Z,-0.0105,-0.9816,0.1799,0.0678,-0.0109,0.0807,0.0091,-0.0266,0.0074,3.1316,1.3819,-3.1177
2024-10-11T13:26:37.454Z,-0.0124,-0.9792,0.1789,0.0678,-0.0109,0.0807,0.0117,-0.0220,0.0077,3.1316,1.3819,-3.1177
2024-10-11T13:26:37.464Z,-0.0139,-0.9803,0.1787,0.0678,-0.0109,0.0807,0.0086,-0.0152,0.0079,3.1316,1.3819,-3.1177
2024-10-11T13:26:37.475Z,-0.0130,-0.9805,0.1795,0.0796,-0.0200,0.0864,0.0129,-0.0122,0.0075,3.1299,1.3815,-3.1167
2024-10-11T13:26:37.484Z,-0.0115,-0.9805,0.1785,0.0796,-0.0200,0.0864,0.0153,-0.0087,0.0105,3.1299,1.3815,-3.1167
2024-10-11T13:26:37.494Z,-0.0081,-0.9831,0.1767,0.0796,-0.0200,0.0864,0.0149,-0.0083,0.0121,3.1299,1.3815,-3.1167
2024-10-11T13:26:37.505Z,-0.0070,-0.9819,0.1766,0.0123,-0.0006,0.1160,0.0136,-0.0098,0.0134,3.1278,1.3810,-3.1152
2024-10-11T13:26:37.514Z,-0.0055,-0.9829,0.1788,0.0123,-0.0006,0.1160,0.0195,-0.0083,0.0154,3.1278,1.3810,-3.1152
2024-10-11T13:26:37.524Z,-0.0056,-0.9818,0.1786,0.0123,-0.0006,0.1160,0.0191,-0.0077,0.0131,3.1278,1.3810,-3.1152
2024-10-11T13:26:37.535Z,-0.0061,-0.9798,0.1795,0.0154,-0.0223,0.0974,0.0188,-0.0087,0.0093,3.1256,1.3804,-3.1136
2024-10-11T13:26:37.544Z,-0.0095,-0.9756,0.1808,0.0154,-0.0223,0.0974,0.0221,-0.0105,0.0119,3.1256,1.3804,-3.1136
2024-10-11T13:26:37.554Z,-0.0136,-0.9741,0.1821,0.0154,-0.0223,0.0974,0.0228,-0.0126,0.0115,3.1256,1.3804,-3.1136
2024-10-11T13:26:37.564Z,-0.0136,-0.9717,0.1826,0.0154,-0.0223,0.0974,0.0220,-0.0140,0.0104,3.1256,1.3804,-3.1136
2024-10-11T13:26:37.574Z,-0.0139,-0.9704,0.1838,0.0775,-0.1060,0.0601,0.0227,-0.0153,0.0062,3.1237,1.3798,-3.1124
2024-10-11T13:26:37.584Z,-0.0181,-0.9713,0.1833,0.0775,-0.1060,0.0601,0.0244,-0.0183,0.0078,3.1237,1.3798,-3.1124
2024-10-11T13:26:37.595Z,-0.0177,-0.9722,0.1805,0.1161,-0.0904,0.0974,0.0251,-0.0174,0.0090,3.1224,1.3791,-3.1118
2024-10-11T13:26:37.604Z,-0.0146,-0.9729,0.1812,0.1161,-0.0904,0.0974,0.0254,-0.0166,0.0059,3.1224,1.3791,-3.1118
2024-10-11T13:26:37.614Z,-0.0145,-0.9734,0.1836,0.1161,-0.0904,0.0974,0.0287,-0.0171,0.0080,3.1224,1.3791,-3.1118
2024-10-11T13:26:37.625Z,-0.0120,-0.9754,0.1848,0.0621,-0.0608,0.0649,0.0274,-0.0167,0.0057,3.1213,1.3783,-3.1114
2024-10-11T13:26:37.634Z,-0.0085,-0.9772,0.1852,0.0621,-0.0608,0.0649,0.0282,-0.0182,0.0056,3.1213,1.3783,-3.1114
2024-10-11T13:26:37.644Z,-0.0077,-0.9771,0.1875,0.0621,-0.0608,0.0649,0.0246,-0.0148,0.0056,3.1213,1.3783,-3.1114
2024-10-11T13:26:37.655Z,-0.0066,-0.9779,0.1940,0.0027,-0.0352,-0.0202,0.0254,-0.0170,0.0057,3.1201,1.3775,-3.1110
2024-10-11T13:26:37.664Z,-0.0030,-0.9782,0.1954,0.0027,-0.0352,-0.0202,0.0255,-0.0211,0.0058,3.1201,1.3775,-3.1110
2024-10-11T13:26:37.674Z,0.0005,-0.9780,0.1992,0.0027,-0.0352,-0.0202,0.0264,-0.0227,0.0056,3.1201,1.3775,-3.1110
2024-10-11T13:26:37.684Z,0.0016,-0.9793,0.2008,-0.0736,-0.0269,-0.0760,0.0249,-0.0274,0.0080,3.1188,1.3767,-3.1108
2024-10-11T13:26:37.694Z,0.0085,-0.9816,0.2060,-0.0736,-0.0269,-0.0760,0.0178,-0.0287,0.0091,3.1188,1.3767,-3.1108
2024-10-11T13:26:37.703Z,0.0090,-0.9824,0.2072,-0.0736,-0.0269,-0.0760,0.0206,-0.0340,0.0066,3.1188,1.3767,-3.1108
2024-10-11T13:26:37.714Z,0.0066,-0.9867,0.2118,-0.1215,0.0599,-0.1899,0.0166,-0.0390,0.0093,3.1177,1.3762,-3.1109
2024-10-11T13:26:37.723Z,-0.0014,-0.9904,0.2132,-0.1215,0.0599,-0.1899,0.0164,-0.0371,0.0077,3.1177,1.3762,-3.1109
2024-10-11T13:26:37.733Z,0.0007,-0.9937,0.2148,-0.1215,0.0599,-0.1899,0.0104,-0.0396,0.0068,3.1177,1.3762,-3.1109
2024-10-11T13:26:37.744Z,-0.0062,-0.9948,0.2152,0.0124,0.1409,-0.2057,0.0098,-0.0402,0.0042,3.1166,1.3758,-3.1113
2024-10-11T13:26:37.754Z,-0.0081,-0.9975,0.2177,0.0124,0.1409,-0.2057,0.0039,-0.0416,0.0051,3.1166,1.3758,-3.1113
2024-10-11T13:26:37.764Z,-0.0090,-0.9978,0.2199,0.0124,0.1409,-0.2057,0.0009,-0.0427,0.0018,3.1166,1.3758,-3.1113
2024-10-11T13:26:37.775Z,-0.0109,-0.9990,0.2210,0.0430,0.1770,-0.2675,-0.0021,-0.0440,0.0035,3.1159,1.3758,-3.1121
2024-10-11T13:26:37.784Z,-0.0086,-0.9981,0.2197,0.0430,0.1770,-0.2675,-0.0052,-0.0481,0.0043,3.1159,1.3758,-3.1121
2024-10-11T13:26:37.794Z,-0.0066,-0.9987,0.2216,0.0430,0.1770,-0.2675,-0.0107,-0.0492,0.0033,3.1159,1.3758,-3.1121
2024-10-11T13:26:37.805Z,-0.0030,-0.9995,0.2235,-0.0302,0.1697,-0.2950,-0.0130,-0.0488,0.0025,3.1152,1.3761,-3.1132
2024-10-11T13:26:37.814Z,-0.0024,-0.9984,0.2264,-0.0302,0.1697,-0.2950,-0.0195,-0.0501,0.0004,3.1152,1.3761,-3.1132
2024-10-11T13:26:37.823Z,-0.0071,-1.0014,0.2272,-0.0302,0.1697,-0.2950,-0.0210,-0.0497,-0.0001,3.1152,1.3761,-3.1132
2024-10-11T13:26:37.834Z,-0.0083,-1.0011,0.2263,0.0321,0.1925,-0.3312,-0.0234,-0.0487,0.0033,3.1146,1.3767,-3.1144
2024-10-11T13:26:37.844Z,-0.0090,-1.0009,0.2244,0.0321,0.1925,-0.3312,-0.0305,-0.0499,-0.0003,3.1146,1.3767,-3.1144
2024-10-11T13:26:37.854Z,-0.0103,-0.9993,0.2208,0.0321,0.1925,-0.3312,-0.0327,-0.0486,0.0015,3.1146,1.3767,-3.1144
2024-10-11T13:26:37.864Z,-0.0138,-0.9997,0.2178,0.0844,0.1794,-0.2534,-0.0360,-0.0476,-0.0019,3.1143,1.3777,-3.1158
2024-10-11T13:26:37.874Z,-0.0125,-0.9973,0.2153,0.0844,0.1794,-0.2534,-0.0374,-0.0462,-0.0026,3.1143,1.3777,-3.1158
2024-10-11T13:26:37.884Z,-0.0145,-0.9978,0.2122,0.0844,0.1794,-0.2534,-0.0412,-0.0442,-0.0017,3.1143,1.3777,-3.1158
2024-10-11T13:26:37.894Z,-0.0115,-0.9957,0.2138,0.0534,0.1332,-0.2203,-0.0438,-0.0453,-0.0048,3.1143,1.3789,-3.1175
2024-10-11T13:26:37.904Z,-0.0113,-0.9956,0.2111,0.0534,0.1332,-0.2203,-0.0471,-0.0448,-0.0038,3.1143,1.3789,-3.1175
2024-10-11T13:26:37.914Z,-0.0121,-0.9940,0.2100,0.0534,0.1332,-0.2203,-0.0480,-0.0434,-0.0033,3.1143,1.3789,-3.1175
2024-10-11T13:26:37.924Z,-0.0074,-0.9934,0.2068,0.0316,0.1098,-0.1712,-0.0501,-0.0425,-0.0044,3.1147,1.3803,-3.1193
2024-10-11T13:26:37.934Z,-0.0099,-0.9931,0.2055,0.0316,0.1098,-0.1712,-0.0521,-0.0422,-0.0054,3.1147,1.3803,-3.1193
2024-10-11T13:26:37.944Z,-0.0058,-0.9911,0.2037,0.0316,0.1098,-0.1712,-0.0518,-0.0382,-0.0037,3.1147,1.3803,-3.1193
2024-10-11T13:26:37.955Z,-0.0064,-0.9912,0.2001,0.0257,0.0814,-0.1237,-0.0534,-0.0383,-0.0036,3.1151,1.3819,-3.1212
2024-10-11T13:26:37.964Z,-0.0041,-0.9893,0.1979,0.0257,0.0814,-0.1237,-0.0534,-0.0358,-0.0023,3.1151,1.3819,-3.1212
2024-10-11T13:26:37.974Z,-0.0054,-0.9879,0.1947,0.0257,0.0814,-0.1237,-0.0555,-0.0329,-0.0044,3.1151,1.3819,-3.1212
2024-10-11T13:26:37.984Z,-0.0024,-0.9848,0.1904,-0.0123,0.0235,-0.0405,-0.0545,-0.0272,-0.0051,3.1153,1.3835,-3.1226
2024-10-11T13:26:37.994Z,-0.0034,-0.9836,0.1887,-0.0123,0.0235,-0.0405,-0.0550,-0.0261,-0.0021,3.1153,1.3835,-3.1226
2024-10-11T13:26:38.004Z,-0.0038,-0.9815,0.1842,-0.0123,0.0235,-0.0405,-0.0537,-0.0227,-0.0028,3.1153,1.3835,-3.1226
2024-10-11T13:26:38.014Z,-0.0059,-0.9803,0.1835,0.0205,-0.0261,0.0072,-0.0508,-0.0192,0.0012,3.1152,1.3850,-3.1234
2024-10-11T13:26:38.023Z,-0.0059,-0.9798,0.1824,0.0205,-0.0261,0.0072,-0.0505,-0.0175,-0.0032,3.1152,1.3850,-3.1234
2024-10-11T13:26:38.034Z,-0.0073,-0.9785,0.1788,0.0205,-0.0261,0.0072,-0.0472,-0.0146,-0.0017,3.1152,1.3850,-3.1234
2024-10-11T13:26:38.044Z,-0.0066,-0.9758,0.1773,0.0233,-0.0662,0.0613,-0.0497,-0.0128,-0.0036,3.1153,1.3864,-3.1242
2024-10-11T13:26:38.053Z,-0.0081,-0.9762,0.1749,0.0233,-0.0662,0.0613,-0.0455,-0.0115,-0.0036,3.1153,1.3864,-3.1242
2024-10-11T13:26:38.064Z,-0.0075,-0.9736,0.1713,0.0233,-0.0662,0.0613,-0.0446,-0.0104,-0.0005,3.1153,1.3864,-3.1242
2024-10-11T13:26:38.074Z,-0.0079,-0.9725,0.1695,0.0507,-0.1000,0.1275,-0.0440,-0.0063,-0.0027,3.1153,1.3877,-3.1247
2024-10-11T13:26:38.084Z,-0.0084,-0.9723,0.1673,0.0507,-0.1000,0.1275,-0.0393,-0.0069,-0.0011,3.1153,1.3877,-3.1247
2024-10-11T13:26:38.094Z,-0.0044,-0.9736,0.1657,0.0507,-0.1000,0.1275,-0.0386,-0.0003,-0.0021,3.1153,1.3877,-3.1247
2024-10-11T13:26:38.105Z,-0.0079,-0.9718,0.1632,0.0513,-0.1196,0.1697,-0.0386,-0.0012,-0.0034,3.1153,1.3887,-3.1250
2024-10-11T13:26:38.114Z,-0.0078,-0.9718,0.1627,0.0513,-0.1196,0.1697,-0.0321,0.0036,-0.0023,3.1153,1.3887,-3.1250
2024-10-11T13:26:38.123Z,-0.0055,-0.9713,0.1633,0.0513,-0.1196,0.1697,-0.0343,0.0067,-0.0008,3.1153,1.3887,-3.1250
2024-10-11T13:26:38.134Z,-0.0059,-0.9697,0.1642,0.0331,-0.1371,0.1546,-0.0300,0.0096,-0.0015,3.1153,1.3896,-3.1251
2024-10-11T13:26:38.144Z,-0.0066,-0.9688,0.1642,0.0331,-0.1371,0.1546,-0.0262,0.0089,-0.0007,3.1153,1.3896,-3.1251
2024-10-11T13:26:38.154Z,-0.0033,-0.9673,0.1620,0.0331,-0.1371,0.1546,-0.0266,0.0131,-0.0028,3.1153,1.3896,-3.1251
2024-10-11T13:26:38.164Z,-0.0025,-0.9655,0.1624,-0.0106,-0.1821,0.1709,-0.0209,0.0123,-0.0013,3.1153,1.3903,-3.1250
2024-10-11T13:26:38.174Z,-0.0010,-0.9663,0.1595,-0.0106,-0.1821,0.1709,-0.0196,0.0144,0.0002,3.1153,1.3903,-3.1250
2024-10-11T13:26:38.184Z,-0.0040,-0.9646,0.1584,-0.0106,-0.1821,0.1709,-0.0169,0.0135,-0.0016,3.1153,1.3903,-3.1250
2024-10-11T13:26:38.194Z,-0.0030,-0.9667,0.1564,-0.0039,-0.1663,0.2211,-0.0151,0.0157,-0.0005,3.1152,1.3908,-3.1247
2024-10-11T13:26:38.205Z,-0.0053,-0.9657,0.1568,-0.0039,-0.1663,0.2211,-0.0120,0.0186,-0.0020,3.1152,1.3908,-3.1247
2024-10-11T13:26:38.214Z,-0.0070,-0.9644,0.1564,-0.0039,-0.1663,0.2211,-0.0106,0.0176,0.0001,3.1152,1.3908,-3.1247
2024-10-11T13:26:38.223Z,-0.0076,-0.9648,0.1558,0.0442,-0.1927,0.2306,-0.0067,0.0194,-0.0008,3.1152,1.3911,-3.1244
2024-10-11T13:26:38.234Z,-0.0083,-0.9653,0.1561,0.0442,-0.1927,0.2306,-0.0063,0.0188,-0.0034,3.1152,1.3911,-3.1244
2024-10-11T13:26:38.245Z,-0.0081,-0.9652,0.1586,0.0442,-0.1927,0.2306,-0.0041,0.0189,-0.0054,3.1152,1.3911,-3.1244
2024-10-11T13:26:38.256Z,-0.0079,-0.9652,0.1604,0.0394,-0.1807,0.1741,-0.0024,0.0206,-0.0066,3.1156,1.3912,-3.1245
2024-10-11T13:26:38.264Z,-0.0057,-0.9673,0.1634,0.0394,-0.1807,0.1741,0.0000,0.0183,-0.0056,3.1156,1.3912,-3.1245
2024-10-11T13:26:38.274Z,-0.0069,-0.9680,0.1657,0.0394,-0.1807,0.1741,0.0006,0.0185,-0.0046,3.1156,1.3912,-3.1245
2024-10-11T13:26:38.284Z,-0.0047,-0.9687,0.1674,0.0213,-0.1510,0.1072,0.0036,0.0181,-0.0059,3.1162,1.3912,-3.1248
2024-10-11T13:26:38.294Z,-0.0028,-0.9709,0.1687,0.0213,-0.1510,0.1072,0.0075,0.0194,-0.0055,3.1162,1.3912,-3.1248
2024-10-11T13:26:38.304Z,-0.0020,-0.9744,0.1700,0.0213,-0.1510,0.1072,0.0072,0.0222,-0.0030,3.1162,1.3912,-3.1248
2024-10-11T13:26:38.314Z,-0.0017,-0.9769,0.1723,-0.0137,-0.0654,0.0514,0.0080,0.0226,-0.0015,3.1166,1.3910,-3.1247
2024-10-11T13:26:38.324Z,0.0051,-0.9799,0.1761,-0.0137,-0.0654,0.0514,0.0083,0.0257,-0.0014,3.1166,1.3910,-3.1247
2024-10-11T13:26:38.334Z,0.0033,-0.9835,0.1776,-0.0137,-0.0654,0.0514,0.0119,0.0257,-0.0011,3.1166,1.3910,-3.1247
2024-10-11T13:26:38.344Z,-0.0020,-0.9844,0.1803,-0.0149,0.0112,-0.0155,0.0098,0.0282,-0.0007,3.1164,1.3907,-3.1241
2024-10-11T13:26:38.354Z,-0.0009,-0.9864,0.1825,-0.0149,0.0112,-0.0155,0.0100,0.0275,-0.0004,3.1164,1.3907,-3.1241
2024-10-11T13:26:38.364Z,-0.0001,-0.9885,0.1842,-0.0149,0.0112,-0.0155,0.0102,0.0312,-0.0001,3.1164,1.3907,-3.1241
2024-10-11T13:26:38.373Z,-0.0044,-0.9882,0.1864,0.0110,0.0427,-0.0683,0.0090,0.0304,-0.0011,3.1161,1.3904,-3.1231
2024-10-11T13:26:38.384Z,-0.0050,-0.9891,0.1860,0.0110,0.0427,-0.0683,0.0103,0.0316,0.0004,3.1161,1.3904,-3.1231
2024-10-11T13:26:38.394Z,-0.0068,-0.9895,0.1850,0.0110,0.0427,-0.0683,0.0127,0.0264,-0.0017,3.1161,1.3904,-3.1231
2024-10-11T13:26:38.405Z,-0.0058,-0.9909,0.1840,0.0217,0.0754,-0.0405,0.0121,0.0263,-0.0006,3.1161,1.3901,-3.1226
2024-10-11T13:26:38.414Z,-0.0079,-0.9919,0.1835,0.0217,0.0754,-0.0405,0.0119,0.0279,-0.0034,3.1161,1.3901,-3.1226
2024-10-11T13:26:38.424Z,-0.0111,-0.9928,0.1827,0.0217,0.0754,-0.0405,0.0136,0.0248,-0.0023,3.1161,1.3901,-3.1226
2024-10-11T13:26:38.434Z,-0.0100,-0.9933,0.1813,0.0704,0.0998,-0.0128,0.0127,0.0263,-0.0047,3.1166,1.3897,-3.1226
2024-10-11T13:26:38.444Z,-0.0121,-0.9928,0.1815,0.0704,0.0998,-0.0128,0.0116,0.0259,-0.0048,3.1166,1.3897,-3.1226
2024-10-11T13:26:38.455Z,-0.0089,-0.9941,0.1826,0.0704,0.0998,-0.0128,0.0112,0.0242,-0.0051,3.1166,1.3897,-3.1226
2024-10-11T13:26:38.464Z,-0.0097,-0.9901,0.1845,0.0622,0.0713,-0.0440,0.0140,0.0243,-0.0088,3.1175,1.3893,-3.1229
2024-10-11T13:26:38.474Z,-0.0102,-0.9913,0.1870,0.0622,0.0713,-0.0440,0.0111,0.0238,-0.0082,3.1175,1.3893,-3.1229
2024-10-11T13:26:38.484Z,-0.0112,-0.9890,0.1878,0.0622,0.0713,-0.0440,0.0106,0.0243,-0.0096,3.1175,1.3893,-3.1229
2024-10-11T13:26:38.494Z,-0.0097,-0.9897,0.1897,0.0585,0.0580,-0.0902,0.0110,0.0235,-0.0092,3.1187,1.3890,-3.1237
2024-10-11T13:26:38.504Z,-0.0110,-0.9893,0.1914,0.0585,0.0580,-0.0902,0.0064,0.0247,-0.0099,3.1187,1.3890,-3.1237
2024-10-11T13:26:38.514Z,-0.0100,-0.9898,0.1945,0.0585,0.0580,-0.0902,0.0046,0.0241,-0.0111,3.1187,1.3890,-3.1237
2024-10-11T13:26:38.523Z,-0.0062,-0.9886,0.1966,0.0249,0.0524,-0.1488,0.0030,0.0254,-0.0115,3.1202,1.3888,-3.1247
2024-10-11T13:26:38.534Z,-0.0074,-0.9901,0.1973,0.0249,0.0524,-0.1488,-0.0015,0.0269,-0.0114,3.1202,1.3888,-3.1247
2024-10-11T13:26:38.544Z,-0.0072,-0.9889,0.1991,0.0249,0.0524,-0.1488,-0.0001,0.0268,-0.0117,3.1202,1.3888,-3.1247
2024-10-11T13:26:38.554Z,-0.0031,-0.9877,0.1978,0.0007,0.0385,-0.1629,-0.0044,0.0301,-0.0112,3.1217,1.3888,-3.1256
2024-10-11T13:26:38.564Z,-0.0018,-0.9863,0.1980,0.0007,0.0385,-0.1629,-0.0067,0.0289,-0.0117,3.1217,1.3888,-3.1256
2024-10-11T13:26:38.574Z,-0.0023,-0.9849,0.1920,0.0007,0.0385,-0.1629,-0.0105,0.0321,-0.0123,3.1217,1.3888,-3.1256
2024-10-11T13:26:38.584Z,0.0005,-0.9855,0.1898,-0.0338,0.0236,-0.0882,-0.0106,0.0319,-0.0100,3.1232,1.3891,-3.1264
2024-10-11T13:26:38.594Z,0.0011,-0.9857,0.1893,-0.0338,0.0236,-0.0882,-0.0131,0.0353,-0.0078,3.1232,1.3891,-3.1264
2024-10-11T13:26:38.604Z,-0.0009,-0.9858,0.1867,-0.0338,0.0236,-0.0882,-0.0107,0.0352,-0.0081,3.1232,1.3891,-3.1264
2024-10-11T13:26:38.614Z,0.0011,-0.9866,0.1840,-0.0383,0.0295,-0.0349,-0.0176,0.0374,-0.0060,3.1243,1.3894,-3.1267
2024-10-11T13:26:38.623Z,-0.0001,-0.9883,0.1851,-0.0383,0.0295,-0.0349,-0.0129,0.0377,-0.0069,3.1243,1.3894,-3.1267
2024-10-11T13:26:38.634Z,-0.0004,-0.9870,0.1831,-0.0383,0.0295,-0.0349,-0.0177,0.0418,-0.0081,3.1243,1.3894,-3.1267
2024-10-11T13:26:38.644Z,-0.0005,-0.9867,0.1839,-0.0219,0.0232,-0.0319,-0.0136,0.0439,-0.0074,3.1252,1.3898,-3.1265
2024-10-11T13:26:38.655Z,0.0035,-0.9870,0.1822,-0.0219,0.0232,-0.0319,-0.0162,0.0455,-0.0056,3.1252,1.3898,-3.1265
2024-10-11T13:26:38.664Z,0.0023,-0.9864,0.1824,-0.0219,0.0232,-0.0319,-0.0163,0.0461,-0.0045,3.1252,1.3898,-3.1265
2024-10-11T13:26:38.674Z,0.0011,-0.9856,0.1806,-0.0396,0.0242,-0.0144,-0.0155,0.0503,-0.0066,3.1257,1.3902,-3.1259
2024-10-11T13:26:38.684Z,0.0027,-0.9856,0.1800,-0.0396,0.0242,-0.0144,-0.0177,0.0499,-0.0036,3.1257,1.3902,-3.1259
2024-10-11T13:26:38.694Z,0.0025,-0.9840,0.1802,-0.0396,0.0242,-0.0144,-0.0164,0.0493,-0.0038,3.1257,1.3902,-3.1259
2024-10-11T13:26:38.704Z,-0.0013,-0.9837,0.1816,-0.0109,-0.0098,-0.0256,-0.0182,0.0508,-0.0036,3.1259,1.3907,-3.1249
2024-10-11T13:26:38.714Z,-0.0004,-0.9833,0.1803,-0.0109,-0.0098,-0.0256,-0.0177,0.0521,-0.0024,3.1259,1.3907,-3.1249
2024-10-11T13:26:38.724Z,0.0012,-0.9809,0.1795,-0.0109,-0.0098,-0.0256,-0.0175,0.0488,-0.0032,3.1259,1.3907,-3.1249
2024-10-11T13:26:38.734Z,-0.0014,-0.9798,0.1832,-0.0131,-0.0384,-0.0463,-0.0148,0.0487,-0.0041,3.1264,1.3911,-3.1242
2024-10-11T13:26:38.744Z,0.0012,-0.9790,0.1845,-0.0131,-0.0384,-0.0463,-0.0204,0.0500,-0.0038,3.1264,1.3911,-3.1242
2024-10-11T13:26:38.754Z,-0.0021,-0.9802,0.1812,-0.0131,-0.0384,-0.0463,-0.0149,0.0477,-0.0058,3.1264,1.3911,-3.1242
2024-10-11T13:26:38.764Z,-0.0052,-0.9822,0.1771,0.0135,-0.0199,0.0146,-0.0139,0.0489,-0.0038,3.1270,1.3916,-3.1236
2024-10-11T13:26:38.774Z,-0.0029,-0.9815,0.1750,0.0135,-0.0199,0.0146,-0.0159,0.0487,-0.0049,3.1270,1.3916,-3.1236
2024-10-11T13:26:38.784Z,-0.0016,-0.9815,0.1737,0.0135,-0.0199,0.0146,-0.0164,0.0477,-0.0062,3.1270,1.3916,-3.1236
2024-10-11T13:26:38.794Z,0.0004,-0.9807,0.1726,-0.0349,-0.0385,0.0556,-0.0133,0.0479,-0.0044,3.1277,1.3919,-3.1231
2024-10-11T13:26:38.804Z,-0.0002,-0.9799,0.1703,-0.0349,-0.0385,0.0556,-0.0102,0.0479,-0.0056,3.1277,1.3919,-3.1231
2024-10-11T13:26:38.814Z,0.0023,-0.9813,0.1670,-0.0349,-0.0385,0.0556,-0.0096,0.0488,-0.0053,3.1277,1.3919,-3.1231
2024-10-11T13:26:38.824Z,0.0044,-0.9815,0.1664,-0.0757,-0.0187,0.1207,-0.0104,0.0472,-0.0052,3.1282,1.3922,-3.1224
2024-10-11T13:26:38.834Z,0.0050,-0.9812,0.1636,-0.0757,-0.0187,0.1207,-0.0098,0.0490,-0.0020,3.1282,1.3922,-3.1224
2024-10-11T13:26:38.844Z,0.0055,-0.9798,0.1633,-0.0757,-0.0187,0.1207,-0.0067,0.0492,-0.0024,3.1282,1.3922,-3.1224
2024-10-11T13:26:38.854Z,0.0072,-0.9786,0.1623,-0.1098,-0.0562,0.1431,-0.0031,0.0475,-0.0020,3.1282,1.3923,-3.1213
2024-10-11T13:26:38.864Z,0.0042,-0.9778,0.1628,-0.1098,-0.0562,0.1431,-0.0011,0.0488,-0.0013,3.1282,1.3923,-3.1213
2024-10-11T13:26:38.874Z,0.0035,-0.9769,0.1634,-0.1098,-0.0562,0.1431,0.0048,0.0474,-0.0016,3.1282,1.3923,-3.1213
2024-10-11T13:26:38.884Z,0.0033,-0.9759,0.1634,-0.0701,-0.0894,0.1376,0.0038,0.0493,-0.0006,3.1281,1.3922,-3.1200
2024-10-11T13:26:38.895Z,0.0022,-0.9742,0.1637,-0.0701,-0.0894,0.1376,0.0030,0.0477,-0.0028,3.1281,1.3922,-3.1200
2024-10-11T13:26:38.906Z,0.0005,-0.9746,0.1630,-0.0701,-0.0894,0.1376,0.0088,0.0471,-0.0002,3.1281,1.3922,-3.1200
2024-10-11T13:26:38.914Z,0.0019,-0.9752,0.1608,-0.0569,-0.0842,0.1626,0.0075,0.0471,-0.0034,3.1283,1.3919,-3.1191
2024-10-11T13:26:38.924Z,0.0006,-0.9774,0.1622,-0.0569,-0.0842,0.1626,0.0125,0.0448,-0.0006,3.1283,1.3919,-3.1191
2024-10-11T13:26:38.934Z,0.0040,-0.9774,0.1631,-0.0569,-0.0842,0.1626,0.0132,0.0423,-0.0016,3.1283,1.3919,-3.1191
2024-10-11T13:26:38.944Z,0.0026,-0.9777,0.1614,-0.0598,-0.0591,0.1605,0.0172,0.0428,-0.0025,3.1289,1.3915,-3.1186
2024-10-11T13:26:38.954Z,0.0005,-0.9783,0.1617,-0.0598,-0.0591,0.1605,0.0188,0.0434,-0.0027,3.1289,1.3915,-3.1186
2024-10-11T13:26:38.964Z,0.0003,-0.9790,0.1632,-0.0598,-0.0591,0.1605,0.0200,0.0411,-0.0018,3.1289,1.3915,-3.1186
2024-10-11T13:26:38.974Z,0.0031,-0.9783,0.1628,-0.0649,-0.0466,0.1562,0.0219,0.0422,-0.0029,3.1301,1.3911,-3.1188
2024-10-11T13:26:38.984Z,0.0004,-0.9807,0.1627,-0.0649,-0.0466,0.1562,0.0211,0.0391,-0.0020,3.1301,1.3911,-3.1188
2024-10-11T13:26:38.994Z,0.0029,-0.9804,0.1617,-0.0649,-0.0466,0.1562,0.0250,0.0391,-0.0020,3.1301,1.3911,-3.1188
2024-10-11T13:26:39.005Z,0.0031,-0.9799,0.1618,-0.0720,-0.0403,0.1703,0.0248,0.0368,-0.0016,3.1314,1.3908,-3.1193
2024-10-11T13:26:39.013Z,0.0017,-0.9789,0.1619,-0.0720,-0.0403,0.1703,0.0244,0.0379,-0.0034,3.1314,1.3908,-3.1193
2024-10-11T13:26:39.023Z,0.0005,-0.9783,0.1606,-0.0720,-0.0403,0.1703,0.0264,0.0347,-0.0042,3.1314,1.3908,-3.1193
2024-10-11T13:26:39.034Z,0.0022,-0.9767,0.1615,-0.0526,-0.0696,0.1690,0.0274,0.0341,-0.0044,3.1331,1.3904,-3.1202
2024-10-11T13:26:39.044Z,0.0007,-0.9769,0.1638,-0.0526,-0.0696,0.1690,0.0260,0.0353,-0.0026,3.1331,1.3904,-3.1202
2024-10-11T13:26:39.054Z,0.0008,-0.9759,0.1629,-0.0526,-0.0696,0.1690,0.0295,0.0354,-0.0031,3.1331,1.3904,-3.1202
2024-10-11T13:26:39.064Z,0.0012,-0.9746,0.1633,-0.0468,-0.0961,0.1562,0.0309,0.0332,-0.0033,3.1348,1.3901,-3.1212
2024-10-11T13:26:39.074Z,0.0010,-0.9751,0.1621,-0.0468,-0.0961,0.1562,0.0335,0.0323,-0.0040,3.1348,1.3901,-3.1212
2024-10-11T13:26:39.084Z,0.0004,-0.9779,0.1614,-0.0468,-0.0961,0.1562,0.0334,0.0296,-0.0044,3.1348,1.3901,-3.1212
2024-10-11T13:26:39.093Z,-0.0000,-0.9789,0.1623,-0.0332,-0.0480,0.1727,0.0322,0.0313,-0.0054,3.1370,1.3897,-3.1227
2024-10-11T13:26:39.106Z,-0.0008,-0.9785,0.1622,-0.0332,-0.0480,0.1727,0.0343,0.0299,-0.0042,3.1370,1.3897,-3.1227
2024-10-11T13:26:39.115Z,-0.0009,-0.9796,0.1618,-0.0332,-0.0480,0.1727,0.0350,0.0279,-0.0038,3.1370,1.3897,-3.1227
2024-10-11T13:26:39.123Z,-0.0048,-0.9819,0.1633,0.0129,-0.0108,0.1663,0.0351,0.0267,-0.0058,3.1388,1.3892,-3.1240
2024-10-11T13:26:39.134Z,-0.0035,-0.9823,0.1649,0.0129,-0.0108,0.1663,0.0361,0.0255,-0.0082,3.1388,1.3892,-3.1240
2024-10-11T13:26:39.144Z,-0.0041,-0.9823,0.1673,0.0129,-0.0108,0.1663,0.0355,0.0260,-0.0084,3.1388,1.3892,-3.1240
2024-10-11T13:26:39.155Z,-0.0030,-0.9844,0.1692,0.0018,0.0100,0.1170,0.0351,0.0270,-0.0100,3.1405,1.3883,-3.1250
2024-10-11T13:26:39.164Z,-0.0017,-0.9852,0.1709,0.0018,0.0100,0.1170,0.0358,0.0265,-0.0112,3.1405,1.3883,-3.1250
2024-10-11T13:26:39.174Z,0.0051,-0.9856,0.1739,0.0018,0.0100,0.1170,0.0359,0.0299,-0.0069,3.1405,1.3883,-3.1250
2024-10-11T13:26:39.184Z,0.0125,-0.9875,0.1798,-0.1539,0.0399,0.0265,0.0343,0.0297,-0.0069,-3.1415,1.3873,-3.1256
2024-10-11T13:26:39.194Z,0.0070,-0.9865,0.1785,-0.1539,0.0399,0.0265,0.0320,0.0306,-0.0065,-3.1415,1.3873,-3.1256
2024-10-11T13:26:39.204Z,0.0064,-0.9864,0.1803,-0.1539,0.0399,0.0265,0.0330,0.0305,-0.0052,-3.1415,1.3873,-3.1256
2024-10-11T13:26:39.214Z,0.0081,-0.9852,0.1826,-0.1129,0.0253,-0.0001,0.0297,0.0329,-0.0064,-3.1409,1.3863,-3.1255
2024-10-11T13:26:39.224Z,0.0084,-0.9869,0.1867,-0.1129,0.0253,-0.0001,0.0290,0.0326,-0.0033,-3.1409,1.3863,-3.1255
2024-10-11T13:26:39.234Z,0.0098,-0.9868,0.1886,-0.1129,0.0253,-0.0001,0.0270,0.0317,-0.0032,-3.1409,1.3863,-3.1255
2024-10-11T13:26:39.244Z,0.0044,-0.9865,0.1902,-0.0760,0.0414,-0.0602,0.0243,0.0296,-0.0030,-3.1405,1.3855,-3.1252
2024-10-11T13:26:39.255Z,0.0037,-0.9883,0.1959,-0.0760,0.0414,-0.0602,0.0233,0.0282,-0.0055,-3.1405,1.3855,-3.1252
2024-10-11T13:26:39.264Z,0.0018,-0.9890,0.1971,-0.0760,0.0414,-0.0602,0.0216,0.0280,-0.0028,-3.1405,1.3855,-3.1252
2024-10-11T13:26:39.274Z,-0.0004,-0.9913,0.1974,-0.0242,0.0823,-0.1269,0.0170,0.0255,-0.0035,-3.1400,1.3849,-3.1251
2024-10-11T13:26:39.284Z,0.0005,-0.9918,0.1999,-0.0242,0.0823,-0.1269,0.0154,0.0224,-0.0040,-3.1400,1.3849,-3.1251
2024-10-11T13:26:39.294Z,-0.0014,-0.9928,0.2033,-0.0242,0.0823,-0.1269,0.0107,0.0220,-0.0049,-3.1400,1.3849,-3.1251
2024-10-11T13:26:39.305Z,0.0016,-0.9929,0.2020,-0.0508,0.1044,-0.1584,0.0120,0.0191,-0.0037,-3.1393,1.3845,-3.1254
2024-10-11T13:26:39.314Z,0.0022,-0.9942,0.2021,-0.0508,0.1044,-0.1584,0.0089,0.0156,-0.0057,-3.1393,1.3845,-3.1254
2024-10-11T13:26:39.324Z,-0.0025,-0.9951,0.2041,-0.0508,0.1044,-0.1584,0.0077,0.0151,-0.0078,-3.1393,1.3845,-3.1254
2024-10-11T13:26:39.334Z,-0.0004,-0.9953,0.2059,-0.0319,0.1253,-0.2024,0.0048,0.0130,-0.0091,-3.1383,1.3844,-3.1263
2024-10-11T13:26:39.344Z,-0.0008,-0.9956,0.2073,-0.0319,0.1253,-0.2024,0.0018,0.0122,-0.0087,-3.1383,1.3844,-3.1263
2024-10-11T13:26:39.356Z,-0.0040,-0.9988,0.2080,-0.0319,0.1253,-0.2024,-0.0042,0.0054,-0.0087,-3.1383,1.3844,-3.1263
2024-10-11T13:26:39.364Z,0.0008,-0.9994,0.2117,-0.0446,0.1618,-0.2558,-0.0042,0.0054,-0.0087,-3.1370,1.3844,-3.1276
2024-10-11T13:26:39.374Z,0.0071,-0.9987,0.2123,-0.0446,0.1618,-0.2558,-0.0045,0.0036,-0.0065,-3.1370,1.3844,-3.1276
2024-10-11T13:26:39.385Z,0.0043,-0.9998,0.2120,-0.0446,0.1618,-0.2558,-0.0090,-0.0036,-0.0079,-3.1370,1.3844,-3.1276
2024-10-11T13:26:39.395Z,0.0005,-0.9988,0.2127,-0.0336,0.1532,-0.2699,-0.0097,-0.0037,-0.0089,-3.1357,1.3845,-3.1291
2024-10-11T13:26:39.405Z,0.0032,-0.9960,0.2137,-0.0336,0.1532,-0.2699,-0.0137,-0.0038,-0.0086,-3.1357,1.3845,-3.1291
2024-10-11T13:26:39.415Z,0.0019,-0.9958,0.2144,-0.0336,0.1532,-0.2699,-0.0145,-0.0032,-0.0084,-3.1357,1.3845,-3.1291
2024-10-11T13:26:39.425Z,0.0053,-0.9955,0.2138,-0.0655,0.1207,-0.2816,-0.0190,-0.0070,-0.0081,-3.1346,1.3850,-3.1306
2024-10-11T13:26:39.435Z,0.0034,-0.9938,0.2111,-0.0655,0.1207,-0.2816,-0.0213,-0.0038,-0.0087,-3.1346,1.3850,-3.1306
2024-10-11T13:26:39.445Z,0.0023,-0.9916,0.2108,-0.0655,0.1207,-0.2816,-0.0220,-0.0056,-0.0075,-3.1346,1.3850,-3.1306
2024-10-11T13:26:39.454Z,0.0044,-0.9892,0.2075,-0.0728,0.0606,-0.2236,-0.0245,-0.0075,-0.0064,-3.1335,1.3855,-3.1321
2024-10-11T13:26:39.465Z,0.0080,-0.9883,0.2047,-0.0728,0.0606,-0.2236,-0.0273,-0.0067,-0.0078,-3.1335,1.3855,-3.1321
2024-10-11T13:26:39.475Z,0.0086,-0.9856,0.2030,-0.0728,0.0606,-0.2236,-0.0269,-0.0067,-0.0059,-3.1335,1.3855,-3.1321
2024-10-11T13:26:39.485Z,0.0096,-0.9847,0.1992,-0.1046,0.0193,-0.1523,-0.0238,-0.0083,-0.0043,-3.1327,1.3861,-3.1333
2024-10-11T13:26:39.493Z,0.0084,-0.9845,0.1960,-0.1046,0.0193,-0.1523,-0.0238,-0.0083,-0.0043,-3.1327,1.3861,-3.1333
2024-10-11T13:26:39.504Z,0.0121,-0.9820,0.1944,-0.1046,0.0193,-0.1523,-0.0244,-0.0084,-0.0006,-3.1327,1.3861,-3.1333
2024-10-11T13:26:39.514Z,0.0089,-0.9820,0.1927,-0.0907,-0.0138,-0.0911,-0.0241,-0.0070,-0.0002,-3.1325,1.3868,-3.1341
2024-10-11T13:26:39.524Z,0.0057,-0.9828,0.1881,-0.0907,-0.0138,-0.0911,-0.0244,-0.0092,-0.0011,-3.1325,1.3868,-3.1341
2024-10-11T13:26:39.535Z,0.0050,-0.9829,0.1851,-0.0907,-0.0138,-0.0911,-0.0233,-0.0064,-0.0027,-3.1325,1.3868,-3.1341
2024-10-11T13:26:39.544Z,0.0047,-0.9821,0.1850,-0.0563,-0.0126,-0.0349,-0.0233,-0.0064,-0.0027,-3.1328,1.3875,-3.1343
2024-10-11T13:26:39.555Z,0.0062,-0.9805,0.1854,-0.0563,-0.0126,-0.0349,-0.0214,-0.0103,0.0016,-3.1328,1.3875,-3.1343
2024-10-11T13:26:39.564Z,0.0087,-0.9783,0.1838,-0.0563,-0.0126,-0.0349,-0.0238,-0.0078,0.0018,-3.1328,1.3875,-3.1343
2024-10-11T13:26:39.573Z,0.0068,-0.9778,0.1826,-0.0827,-0.0556,-0.0009,-0.0238,-0.0078,0.0018,-3.1333,1.3881,-3.1344
2024-10-11T13:26:39.584Z,0.0056,-0.9760,0.1805,-0.0827,-0.0556,-0.0009,-0.0244,-0.0099,0.0027,-3.1333,1.3881,-3.1344
2024-10-11T13:26:39.595Z,0.0025,-0.9743,0.1814,-0.0827,-0.0556,-0.0009,-0.0198,-0.0083,0.0017,-3.1333,1.3881,-3.1344
2024-10-11T13:26:39.604Z,0.0044,-0.9729,0.1758,-0.0589,-0.1087,0.0501,-0.0193,-0.0102,0.0041,-3.1339,1.3887,-3.1343
2024-10-11T13:26:39.614Z,0.0039,-0.9706,0.1771,-0.0589,-0.1087,0.0501,-0.0165,-0.0121,0.0035,-3.1339,1.3887,-3.1343
2024-10-11T13:26:39.623Z,0.0021,-0.9750,0.1773,-0.0589,-0.1087,0.0501,-0.0165,-0.0121,0.0035,-3.1339,1.3887,-3.1343
2024-10-11T13:26:39.635Z,0.0028,-0.9723,0.1759,-0.0368,-0.1141,0.0391,-0.0131,-0.0134,0.0053,-3.1347,1.3892,-3.1342
2024-10-11T13:26:39.645Z,0.0003,-0.9750,0.1744,-0.0368,-0.1141,0.0391,-0.0107,-0.0151,0.0016,-3.1347,1.3892,-3.1342
2024-10-11T13:26:39.654Z,-0.0010,-0.9748,0.1755,-0.0368,-0.1141,0.0391,-0.0118,-0.0148,0.0012,-3.1347,1.3892,-3.1342
2024-10-11T13:26:39.664Z,0.0032,-0.9770,0.1773,-0.0417,-0.0630,0.0359,-0.0084,-0.0177,0.0035,-3.1351,1.3895,-3.1344
2024-10-11T13:26:39.674Z,-0.0005,-0.9776,0.1742,-0.0417,-0.0630,0.0359,-0.0076,-0.0190,0.0034,-3.1351,1.3895,-3.1344
2024-10-11T13:26:39.684Z,0.0005,-0.9761,0.1743,-0.0417,-0.0630,0.0359,-0.0057,-0.0164,0.0029,-3.1351,1.3895,-3.1344
2024-10-11T13:26:39.694Z,0.0026,-0.9766,0.1734,-0.0413,-0.0738,0.0695,-0.0045,-0.0147,0.0035,-3.1355,1.3897,-3.1348
2024-10-11T13:26:39.704Z,0.0062,-0.9758,0.1763,-0.0413,-0.0738,0.0695,-0.0054,-0.0173,0.0046,-3.1355,1.3897,-3.1348
2024-10-11T13:26:39.714Z,0.0026,-0.9736,0.1758,-0.0413,-0.0738,0.0695,-0.0046,-0.0154,0.0029,-3.1355,1.3897,-3.1348
2024-10-11T13:26:39.723Z,0.0039,-0.9725,0.1763,-0.0525,-0.1104,0.0362,-0.0046,-0.0154,0.0029,-3.1361,1.3898,-3.1349
2024-10-11T13:26:39.734Z,0.0065,-0.9742,0.1794,-0.0525,-0.1104,0.0362,-0.0009,-0.0150,0.0029,-3.1361,1.3898,-3.1349
2024-10-11T13:26:39.745Z,0.0065,-0.9742,0.1794,-0.0525,-0.1104,0.0362,0.0025,-0.0169,0.0062,-3.1361,1.3898,-3.1349
2024-10-11T13:26:39.754Z,0.0040,-0.9736,0.1778,-0.0388,-0.0958,0.0193,0.0004,-0.0124,0.0052,-3.1369,1.3899,-3.1349
2024-10-11T13:26:39.764Z,0.0007,-0.9748,0.1778,-0.0388,-0.0958,0.0193,0.0015,-0.0146,0.0061,-3.1369,1.3899,-3.1349
2024-10-11T13:26:39.775Z,0.0007,-0.9748,0.1778,-0.0388,-0.0958,0.0193,0.0026,-0.0158,0.0053,-3.1369,1.3899,-3.1349
2024-10-11T13:26:39.784Z,0.0020,-0.9773,0.1766,-0.0379,-0.0584,0.0303,0.0024,-0.0171,0.0040,-3.1373,1.3899,-3.1352
2024-10-11T13:26:39.795Z,0.0031,-0.9783,0.1759,-0.0379,-0.0584,0.0303,0.0047,-0.0162,0.0050,-3.1373,1.3899,-3.1352
2024-10-11T13:26:39.804Z,0.0030,-0.9802,0.1742,-0.0379,-0.0584,0.0303,0.0039,-0.0153,0.0033,-3.1373,1.3899,-3.1352
2024-10-11T13:26:39.814Z,0.0010,-0.9805,0.1750,-0.0125,-0.0312,0.0530,0.0068,-0.0145,0.0045,-3.1377,1.3897,-3.1356
2024-10-11T13:26:39.825Z,0.0034,-0.9824,0.1786,-0.0125,-0.0312,0.0530,0.0042,-0.0162,0.0033,-3.1377,1.3897,-3.1356
2024-10-11T13:26:39.834Z,0.0041,-0.9837,0.1792,-0.0125,-0.0312,0.0530,0.0077,-0.0169,0.0061,-3.1377,1.3897,-3.1356
2024-10-11T13:26:39.844Z,0.0041,-0.9821,0.1814,-0.0541,-0.0240,-0.0127,0.0045,-0.0195,0.0039,-3.1386,1.3895,-3.1354
2024-10-11T13:26:39.854Z,0.0061,-0.9795,0.1820,-0.0541,-0.0240,-0.0127,0.0048,-0.0178,0.0068,-3.1386,1.3895,-3.1354
2024-10-11T13:26:39.864Z,0.0070,-0.9810,0.1812,-0.0541,-0.0240,-0.0127,0.0073,-0.0183,0.0062,-3.1386,1.3895,-3.1354
2024-10-11T13:26:39.874Z,0.0066,-0.9803,0.1835,-0.0739,-0.0346,-0.0334,0.0039,-0.0155,0.0062,-3.1397,1.3893,-3.1352
2024-10-11T13:26:39.885Z,-0.0007,-1.0114,0.1853,-0.0739,-0.0346,-0.0334,0.0057,-0.0170,0.0034,-3.1397,1.3893,-3.1352
2024-10-11T13:26:39.894Z,-0.0007,-1.0114,0.1853,-0.0739,-0.0346,-0.0334,0.0045,-0.0149,0.0064,-3.1397,1.3893,-3.1352
2024-10-11T13:26:39.905Z,-0.0032,-1.0179,0.1872,0.0157,0.3989,-0.0374,0.0080,-0.0129,0.0061,-3.1409,1.3891,-3.1347
2024-10-11T13:26:39.915Z,-0.0057,-1.0116,0.1958,0.0157,0.3989,-0.0374,0.0076,-0.0109,0.0043,-3.1409,1.3891,-3.1347
2024-10-11T13:26:39.924Z,-0.0057,-1.0116,0.1958,0.0157,0.3989,-0.0374,0.0024,-0.0099,0.0047,-3.1409,1.3891,-3.1347
2024-10-11T13:26:39.935Z,-0.0136,-1.0013,0.1942,0.1146,0.2409,-0.1494,0.0020,-0.0056,0.0050,3.1411,1.3889,-3.1342
2024-10-11T13:26:39.945Z,-0.0073,-0.9958,0.2014,0.1146,0.2409,-0.1494,-0.0021,-0.0043,0.0016,3.1411,1.3889,-3.1342
2024-10-11T13:26:39.954Z,-0.0073,-0.9958,0.2014,0.1146,0.2409,-0.1494,-0.0057,-0.0060,0.0010,3.1411,1.3889,-3.1342
2024-10-11T13:26:39.964Z,-0.0105,-0.9916,0.2066,0.0994,0.0696,-0.2587,-0.0081,-0.0041,0.0012,3.1403,1.3889,-3.1338
2024-10-11T13:26:39.975Z,-0.0177,-0.9860,0.2111,0.0994,0.0696,-0.2587,-0.0120,-0.0009,-0.0005,3.1403,1.3889,-3.1338
2024-10-11T13:26:39.984Z,-0.0211,-0.9817,0.2047,0.0994,0.0696,-0.2587,-0.0121,0.0044,-0.0022,3.1403,1.3889,-3.1338
2024-10-11T13:26:39.995Z,-0.0120,-0.9784,0.1906,0.1671,-0.0425,-0.1256,-0.0106,0.0041,-0.0023,3.1402,1.3892,-3.1339
2024-10-11T13:26:40.004Z,-0.0120,-0.9784,0.1906,0.1671,-0.0425,-0.1256,-0.0148,0.0128,-0.0024,3.1402,1.3892,-3.1339
2024-10-11T13:26:40.015Z,-0.0126,-0.9959,0.1793,0.1671,-0.0425,-0.1256,-0.0156,0.0156,-0.0032,3.1402,1.3892,-3.1339
2024-10-11T13:26:40.024Z,-0.0126,-0.9959,0.1793,0.1015,0.1095,0.0006,-0.0202,0.0217,-0.0016,3.1401,1.3896,-3.1337
2024-10-11T13:26:40.034Z,-0.0064,-0.9609,0.2052,0.1015,0.1095,0.0006,-0.0238,0.0265,0.0002,3.1401,1.3896,-3.1337
2024-10-11T13:26:40.045Z,-0.0162,-0.9641,0.1917,0.1015,0.1095,0.0006,-0.0261,0.0312,0.0012,3.1401,1.3896,-3.1337
2024-10-11T13:26:40.055Z,-0.0146,-0.9682,0.1761,0.1608,-0.1846,-0.0979,-0.0272,0.0341,0.0009,3.1398,1.3903,-3.1329
2024-10-11T13:26:40.063Z,-0.0146,-0.9682,0.1761,0.1608,-0.1846,-0.0979,-0.0243,0.0393,-0.0002,3.1398,1.3903,-3.1329
2024-10-11T13:26:40.075Z,-0.0135,-0.9655,0.1712,0.1608,-0.1846,-0.0979,-0.0265,0.0416,0.0015,3.1398,1.3903,-3.1329
2024-10-11T13:26:40.084Z,-0.0096,-0.9696,0.1676,0.0937,-0.1550,0.0942,-0.0282,0.0446,-0.0001,3.1394,1.3910,-3.1316
2024-10-11T13:26:40.095Z,-0.0013,-0.9699,0.1757,0.0937,-0.1550,0.0942,-0.0302,0.0462,0.0022,3.1394,1.3910,-3.1316
2024-10-11T13:26:40.104Z,0.0137,-0.9767,0.1855,0.0937,-0.1550,0.0942,-0.0300,0.0456,0.0059,3.1394,1.3910,-3.1316
2024-10-11T13:26:40.114Z,0.0102,-0.9850,0.1917,-0.1732,-0.0611,-0.0967,-0.0336,0.0462,0.0039,3.1385,1.3918,-3.1297
2024-10-11T13:26:40.125Z,0.0102,-0.9850,0.1917,-0.1732,-0.0611,-0.0967,-0.0333,0.0448,0.0055,3.1385,1.3918,-3.1297
2024-10-11T13:26:40.134Z,-0.0085,-1.0066,0.1754,-0.1732,-0.0611,-0.0967,-0.0338,0.0479,0.0042,3.1385,1.3918,-3.1297
2024-10-11T13:26:40.143Z,-0.0085,-1.0066,0.1754,0.0388,0.2271,0.0414,-0.0290,0.0460,0.0062,3.1374,1.3927,-3.1275
2024-10-11T13:26:40.154Z,-0.0008,-0.9977,0.1718,0.0388,0.2271,0.0414,-0.0272,0.0480,0.0032,3.1374,1.3927,-3.1275
2024-10-11T13:26:40.164Z,-0.0112,-0.9941,0.1687,0.0388,0.2271,0.0414,-0.0255,0.0451,0.0022,3.1374,1.3927,-3.1275
2024-10-11T13:26:40.174Z,-0.0112,-0.9941,0.1687,0.0996,0.1076,0.0856,-0.0255,0.0451,0.0022,3.1363,1.3935,-3.1253
2024-10-11T13:26:40.184Z,-0.0048,-0.9948,0.1773,0.0996,0.1076,0.0856,-0.0244,0.0387,0.0018,3.1363,1.3935,-3.1253
2024-10-11T13:26:40.194Z,-0.0028,-0.9914,0.1835,0.0996,0.1076,0.0856,-0.0238,0.0363,0.0011,3.1363,1.3935,-3.1253
2024-10-11T13:26:40.204Z,-0.0110,-0.9937,0.1667,0.0079,0.0699,-0.0666,-0.0213,0.0344,0.0016,3.1359,1.3942,-3.1241
2024-10-11T13:26:40.214Z,0.0017,-0.9883,0.1667,0.0079,0.0699,-0.0666,-0.0190,0.0310,0.0046,3.1359,1.3942,-3.1241
2024-10-11T13:26:40.225Z,0.0095,-0.9871,0.1675,0.0079,0.0699,-0.0666,-0.0181,0.0313,0.0047,3.1359,1.3942,-3.1241
2024-10-11T13:26:40.234Z,-0.0013,-0.9909,0.1672,-0.1169,0.0290,0.0751,-0.0174,0.0285,0.0049,3.1350,1.3947,-3.1224
2024-10-11T13:26:40.245Z,-0.0073,-0.9889,0.1797,-0.1169,0.0290,0.0751,-0.0191,0.0280,0.0022,3.1350,1.3947,-3.1224
2024-10-11T13:26:40.254Z,-0.0163,-0.9840,0.1881,-0.1169,0.0290,0.0751,-0.0184,0.0250,0.0035,3.1350,1.3947,-3.1224
2024-10-11T13:26:40.264Z,-0.0146,-0.9902,0.1889,0.1310,0.0020,-0.1445,-0.0213,0.0283,0.0009,3.1341,1.3952,-3.1210
2024-10-11T13:26:40.274Z,-0.0146,-0.9902,0.1889,0.1310,0.0020,-0.1445,-0.0234,0.0285,0.0012,3.1341,1.3952,-3.1210
2024-10-11T13:26:40.284Z,-0.0111,-0.9753,0.1995,0.1310,0.0020,-0.1445,-0.0253,0.0303,-0.0005,3.1341,1.3952,-3.1210
2024-10-11T13:26:40.294Z,-0.0048,-0.9777,0.1935,0.0831,-0.0960,-0.2390,-0.0260,0.0309,-0.0000,3.1336,1.3959,-3.1199
2024-10-11T13:26:40.304Z,0.0040,-0.9859,0.1888,0.0831,-0.0960,-0.2390,-0.0264,0.0349,0.0006,3.1336,1.3959,-3.1199
2024-10-11T13:26:40.314Z,-0.0009,-0.9902,0.1866,0.0831,-0.0960,-0.2390,-0.0242,0.0360,0.0021,3.1336,1.3959,-3.1199
2024-10-11T13:26:40.324Z,-0.0009,-0.9902,0.1866,-0.0177,0.0565,-0.1244,-0.0238,0.0360,0.0022,3.1330,1.3966,-3.1185
2024-10-11T13:26:40.334Z,-0.0137,-0.9904,0.1839,-0.0177,0.0565,-0.1244,-0.0247,0.0393,0.0027,3.1330,1.3966,-3.1185
2024-10-11T13:26:40.344Z,-0.0022,-0.9852,0.1952,-0.0177,0.0565,-0.1244,-0.0215,0.0378,0.0045,3.1330,1.3966,-3.1185
2024-10-11T13:26:40.354Z,-0.0010,-0.9855,0.1804,-0.0443,-0.0063,-0.2084,-0.0228,0.0446,0.0020,3.1322,1.3973,-3.1168
2024-10-11T13:26:40.364Z,-0.0144,-0.9865,0.1704,-0.0443,-0.0063,-0.2084,-0.0240,0.0409,0.0043,3.1322,1.3973,-3.1168
2024-10-11T13:26:40.374Z,-0.0144,-0.9865,0.1704,-0.0443,-0.0063,-0.2084,-0.0211,0.0446,0.0054,3.1322,1.3973,-3.1168
2024-10-11T13:26:40.384Z,-0.0014,-0.9861,0.1571,-0.0595,-0.0007,0.0644,-0.0191,0.0436,0.0048,3.1313,1.3979,-3.1149
2024-10-11T13:26:40.395Z,-0.0039,-0.9940,0.1544,-0.0595,-0.0007,0.0644,-0.0180,0.0434,0.0039,3.1313,1.3979,-3.1149
2024-10-11T13:26:40.404Z,-0.0033,-0.9954,0.1597,-0.0595,-0.0007,0.0644,-0.0199,0.0414,0.0026,3.1313,1.3979,-3.1149
2024-10-11T13:26:40.414Z,-0.0070,-0.9896,0.1582,-0.0123,0.0912,0.1184,-0.0179,0.0357,0.0028,3.1303,1.3984,-3.1129
2024-10-11T13:26:40.425Z,-0.0036,-0.9911,0.1523,-0.0123,0.0912,0.1184,-0.0158,0.0394,0.0021,3.1303,1.3984,-3.1129
2024-10-11T13:26:40.434Z,-0.0003,-0.9884,0.1484,-0.0123,0.0912,0.1184,-0.0157,0.0364,0.0029,3.1303,1.3984,-3.1129
2024-10-11T13:26:40.444Z,-0.0018,-0.9743,0.1501,-0.0543,0.0207,0.2205,-0.0143,0.0346,0.0032,3.1295,1.3989,-3.1113
2024-10-11T13:26:40.454Z,-0.0057,-0.9633,0.1564,-0.0543,0.0207,0.2205,-0.0103,0.0337,0.0016,3.1295,1.3989,-3.1113
2024-10-11T13:26:40.464Z,-0.0073,-0.9602,0.1551,-0.0543,0.0207,0.2205,-0.0105,0.0331,0.0027,3.1295,1.3989,-3.1113
2024-10-11T13:26:40.475Z,0.0015,-0.9650,0.1495,0.0126,-0.2417,0.1504,-0.0090,0.0352,0.0021,3.1289,1.3992,-3.1099
2024-10-11T13:26:40.484Z,-0.0056,-0.9682,0.1542,0.0126,-0.2417,0.1504,-0.0049,0.0302,0.0023,3.1289,1.3992,-3.1099
2024-10-11T13:26:40.494Z,-0.0143,-0.9730,0.1564,0.0126,-0.2417,0.1504,-0.0069,0.0317,0.0004,3.1289,1.3992,-3.1099
2024-10-11T13:26:40.504Z,-0.0121,-0.9769,0.1513,0.0845,-0.1158,0.1495,-0.0002,0.0301,-0.0025,3.1285,1.3994,-3.1088
2024-10-11T13:26:40.514Z,-0.0152,-0.9847,0.1546,0.0845,-0.1158,0.1495,0.0022,0.0307,-0.0025,3.1285,1.3994,-3.1088
2024-10-11T13:26:40.525Z,-0.0194,-0.9981,0.1621,0.0845,-0.1158,0.1495,0.0061,0.0325,-0.0047,3.1285,1.3994,-3.1088
2024-10-11T13:26:40.534Z,-0.0145,-1.0012,0.1594,0.1360,0.1377,0.0828,0.0078,0.0354,-0.0050,3.1288,1.3993,-3.1085
2024-10-11T13:26:40.543Z,-0.0149,-0.9989,0.1614,0.1360,0.1377,0.0828,0.0090,0.0355,-0.0056,3.1288,1.3993,-3.1085
2024-10-11T13:26:40.554Z,-0.0098,-0.9930,0.1634,0.1360,0.1377,0.0828,0.0057,0.0358,-0.0073,3.1288,1.3993,-3.1085
2024-10-11T13:26:40.564Z,-0.0092,-0.9816,0.1699,0.0329,0.0621,0.0603,0.0067,0.0407,-0.0049,3.1296,1.3991,-3.1084
2024-10-11T13:26:40.574Z,-0.0118,-0.9759,0.1770,0.0329,0.0621,0.0603,0.0034,0.0402,-0.0099,3.1296,1.3991,-3.1084
2024-10-11T13:26:40.584Z,-0.0123,-0.9776,0.1784,0.0329,0.0621,0.0603,0.0014,0.0430,-0.0085,3.1296,1.3991,-3.1084
2024-10-11T13:26:40.594Z,-0.0120,-0.9773,0.1760,0.0721,-0.0683,-0.0707,-0.0023,0.0470,-0.0081,3.1307,1.3990,-3.1085
2024-10-11T13:26:40.604Z,-0.0174,-0.9722,0.1807,0.0721,-0.0683,-0.0707,-0.0039,0.0506,-0.0092,3.1307,1.3990,-3.1085
2024-10-11T13:26:40.614Z,-0.0225,-0.9641,0.1831,0.0721,-0.0683,-0.0707,-0.0042,0.0514,-0.0122,3.1307,1.3990,-3.1085
2024-10-11T13:26:40.626Z,-0.0189,-0.9624,0.1743,0.1620,-0.2126,-0.1097,-0.0074,0.0570,-0.0104,3.1318,1.3991,-3.1084
2024-10-11T13:26:40.634Z,-0.0180,-0.9627,0.1743,0.1620,-0.2126,-0.1097,-0.0059,0.0629,-0.0114,3.1318,1.3991,-3.1084
2024-10-11T13:26:40.644Z,-0.0165,-0.9703,0.1713,0.1620,-0.2126,-0.1097,-0.0046,0.0625,-0.0147,3.1318,1.3991,-3.1084
2024-10-11T13:26:40.654Z,-0.0175,-0.9802,0.1727,0.1027,-0.1336,-0.0118,-0.0043,0.0670,-0.0125,3.1336,1.3993,-3.1085
2024-10-11T13:26:40.665Z,-0.0122,-0.9772,0.1669,0.1027,-0.1336,-0.0118,-0.0067,0.0678,-0.0124,3.1336,1.3993,-3.1085
2024-10-11T13:26:40.676Z,-0.0103,-0.9749,0.1632,0.1027,-0.1336,-0.0118,-0.0048,0.0687,-0.0123,3.1336,1.3993,-3.1085
2024-10-11T13:26:40.684Z,-0.0177,-0.9685,0.1695,0.0484,-0.1109,0.0827,-0.0038,0.0664,-0.0176,3.1358,1.3994,-3.1090
2024-10-11T13:26:40.694Z,-0.0129,-0.9701,0.1668,0.0484,-0.1109,0.0827,-0.0027,0.0671,-0.0179,3.1358,1.3994,-3.1090
2024-10-11T13:26:40.704Z,0.0001,-0.9792,0.1608,0.0484,-0.1109,0.0827,-0.0031,0.0641,-0.0165,3.1358,1.3994,-3.1090
2024-10-11T13:26:40.714Z,-0.0011,-0.9842,0.1608,-0.0523,-0.0497,0.1017,-0.0006,0.0656,-0.0147,3.1383,1.3995,-3.1097
2024-10-11T13:26:40.724Z,0.0017,-0.9887,0.1641,-0.0523,-0.0497,0.1017,-0.0046,0.0670,-0.0149,3.1383,1.3995,-3.1097
2024-10-11T13:26:40.734Z,0.0024,-0.9932,0.1638,-0.0523,-0.0497,0.1017,0.0016,0.0668,-0.0121,3.1383,1.3995,-3.1097
2024-10-11T13:26:40.743Z,0.0110,-0.9979,0.1658,-0.0807,0.0765,0.0572,-0.0013,0.0712,-0.0093,3.1403,1.3995,-3.1099
2024-10-11T13:26:40.754Z,0.0159,-1.0010,0.1709,-0.0807,0.0765,0.0572,0.0003,0.0663,-0.0083,3.1403,1.3995,-3.1099
2024-10-11T13:26:40.764Z,0.0084,-1.0032,0.1738,-0.0807,0.0765,0.0572,0.0015,0.0636,-0.0059,3.1403,1.3995,-3.1099
2024-10-11T13:26:40.774Z,0.0034,-1.0044,0.1739,-0.1198,0.1860,-0.0269,-0.0030,0.0596,-0.0086,3.1414,1.3995,-3.1093
2024-10-11T13:26:40.784Z,-0.0025,-1.0061,0.1859,-0.1198,0.1860,-0.0269,-0.0024,0.0560,-0.0089,3.1414,1.3995,-3.1093
2024-10-11T13:26:40.795Z,0.0016,-1.0052,0.1869,-0.1198,0.1860,-0.0269,-0.0046,0.0504,-0.0113,3.1414,1.3995,-3.1093
2024-10-11T13:26:40.804Z,-0.0014,-1.0030,0.1871,-0.0809,0.1958,-0.1608,-0.0099,0.0435,-0.0112,-3.1405,1.3995,-3.1092
2024-10-11T13:26:40.814Z,-0.0033,-0.9992,0.2088,-0.0809,0.1958,-0.1608,-0.0116,0.0377,-0.0145,-3.1405,1.3995,-3.1092
2024-10-11T13:26:40.826Z,-0.0019,-1.0065,0.2043,-0.0809,0.1958,-0.1608,-0.0168,0.0321,-0.0162,-3.1405,1.3995,-3.1092
2024-10-11T13:26:40.834Z,0.0043,-1.0097,0.2026,-0.0429,0.2137,-0.3249,-0.0206,0.0237,-0.0188,-3.1385,1.3998,-3.1103
2024-10-11T13:26:40.844Z,0.0068,-1.0089,0.1985,-0.0429,0.2137,-0.3249,-0.0193,0.0200,-0.0164,-3.1385,1.3998,-3.1103
2024-10-11T13:26:40.854Z,0.0089,-1.0055,0.1929,-0.0429,0.2137,-0.3249,-0.0224,0.0147,-0.0175,-3.1385,1.3998,-3.1103
2024-10-11T13:26:40.864Z,0.0205,-0.9968,0.1909,-0.1525,0.1882,-0.2192,-0.0259,0.0129,-0.0164,-3.1359,1.4004,-3.1126
2024-10-11T13:26:40.876Z,0.0109,-0.9878,0.1887,-0.1525,0.1882,-0.2192,-0.0287,0.0124,-0.0146,-3.1359,1.4004,-3.1126
2024-10-11T13:26:40.884Z,0.0043,-0.9831,0.1859,-0.1525,0.1882,-0.2192,-0.0274,0.0112,-0.0162,-3.1359,1.4004,-3.1126
2024-10-11T13:26:40.894Z,0.0034,-0.9891,0.1776,-0.0866,-0.0187,-0.1604,-0.0291,0.0085,-0.0165,-3.1335,1.4012,-3.1148
2024-10-11T13:26:40.904Z,0.0020,-0.9914,0.1766,-0.0866,-0.0187,-0.1604,-0.0334,0.0042,-0.0175,-3.1335,1.4012,-3.1148
2024-10-11T13:26:40.914Z,0.0079,-0.9920,0.1700,-0.0866,-0.0187,-0.1604,-0.0310,0.0000,-0.0170,-3.1335,1.4012,-3.1148
2024-10-11T13:26:40.925Z,0.0096,-0.9957,0.1546,-0.1250,0.0559,0.0131,-0.0292,-0.0028,-0.0169,-3.1308,1.4021,-3.1176
2024-10-11T13:26:40.934Z,0.0033,-0.9937,0.1595,-0.1250,0.0559,0.0131,-0.0309,-0.0022,-0.0180,-3.1308,1.4021,-3.1176
2024-10-11T13:26:40.944Z,0.0072,-0.9947,0.1690,-0.1250,0.0559,0.0131,-0.0297,-0.0044,-0.0175,-3.1308,1.4021,-3.1176
2024-10-11T13:26:40.954Z,0.0103,-1.0002,0.1644,-0.1111,0.0953,-0.0164,-0.0319,-0.0056,-0.0151,-3.1281,1.4030,-3.1206
2024-10-11T13:26:40.964Z,0.0105,-0.9996,0.1653,-0.1111,0.0953,-0.0164,-0.0322,-0.0062,-0.0161,-3.1281,1.4030,-3.1206
2024-10-11T13:26:40.974Z,0.0046,-0.9919,0.1658,-0.1111,0.0953,-0.0164,-0.0329,-0.0065,-0.0172,-3.1281,1.4030,-3.1206
2024-10-11T13:26:40.984Z,0.0070,-0.9828,0.1635,-0.0708,0.0487,0.0032,-0.0307,-0.0077,-0.0150,-3.1256,1.4039,-3.1236
2024-10-11T13:26:40.994Z,0.0133,-0.9786,0.1597,-0.0708,0.0487,0.0032,-0.0332,-0.0116,-0.0171,-3.1256,1.4039,-3.1236
2024-10-11T13:26:41.004Z,0.0092,-0.9816,0.1538,-0.0708,0.0487,0.0032,-0.0310,-0.0112,-0.0166,-3.1256,1.4039,-3.1236
2024-10-11T13:26:41.014Z,-0.0002,-0.9870,0.1463,-0.1020,-0.0422,0.1230,-0.0292,-0.0117,-0.0157,-3.1231,1.4048,-3.1267
2024-10-11T13:26:41.025Z,0.0072,-0.9892,0.1434,-0.1020,-0.0422,0.1230,-0.0299,-0.0152,-0.0141,-3.1231,1.4048,-3.1267
2024-10-11T13:26:41.034Z,0.0112,-0.9812,0.1525,-0.1020,-0.0422,0.1230,-0.0264,-0.0109,-0.0148,-3.1231,1.4048,-3.1267
2024-10-11T13:26:41.044Z,0.0112,-0.9812,0.1525,-0.1281,-0.0527,0.1026,-0.0274,-0.0110,-0.0164,-3.1204,1.4056,-3.1299
2024-10-11T13:26:41.054Z,0.0125,-0.9866,0.1424,-0.1281,-0.0527,0.1026,-0.0246,-0.0124,-0.0135,-3.1204,1.4056,-3.1299
2024-10-11T13:26:41.064Z,0.0083,-0.9792,0.1451,-0.1281,-0.0527,0.1026,-0.0218,-0.0143,-0.0168,-3.1204,1.4056,-3.1299
2024-10-11T13:26:41.075Z,0.0113,-0.9734,0.1405,-0.0958,-0.0800,0.1708,-0.0163,-0.0154,-0.0147,-3.1181,1.4063,-3.1329
2024-10-11T13:26:41.084Z,0.0058,-0.9675,0.1405,-0.0958,-0.0800,0.1708,-0.0186,-0.0134,-0.0141,-3.1181,1.4063,-3.1329
2024-10-11T13:26:41.094Z,0.0056,-0.9597,0.1437,-0.0958,-0.0800,0.1708,-0.0205,-0.0187,-0.0143,-3.1181,1.4063,-3.1329
2024-10-11T13:26:41.105Z,0.0021,-0.9551,0.1546,-0.0576,-0.2758,0.1772,-0.0221,-0.0174,-0.0155,-3.1158,1.4069,-3.1359
2024-10-11T13:26:41.114Z,0.0072,-0.9612,0.1600,-0.0576,-0.2758,0.1772,-0.0204,-0.0194,-0.0139,-3.1158,1.4069,-3.1359
2024-10-11T13:26:41.125Z,0.0115,-0.9714,0.1652,-0.0576,-0.2758,0.1772,-0.0213,-0.0220,-0.0152,-3.1158,1.4069,-3.1359
2024-10-11T13:26:41.134Z,0.0075,-0.9749,0.1615,-0.1144,-0.1453,-0.0213,-0.0185,-0.0224,-0.0114,-3.1133,1.4075,-3.1392
2024-10-11T13:26:41.144Z,0.0103,-0.9781,0.1599,-0.1144,-0.1453,-0.0213,-0.0178,-0.0212,-0.0128,-3.1133,1.4075,-3.1392
2024-10-11T13:26:41.154Z,0.0154,-0.9839,0.1627,-0.1144,-0.1453,-0.0213,-0.0204,-0.0226,-0.0119,-3.1133,1.4075,-3.1392
2024-10-11T13:26:41.164Z,0.0169,-0.9874,0.1662,-0.1585,-0.0203,-0.0196,-0.0168,-0.0191,-0.0071,-3.1114,1.4080,3.1412
2024-10-11T13:26:41.175Z,0.0125,-0.9978,0.1544,-0.1585,-0.0203,-0.0196,-0.0170,-0.0206,-0.0083,-3.1114,1.4080,3.1412
2024-10-11T13:26:41.184Z,0.0122,-0.9999,0.1568,-0.1585,-0.0203,-0.0196,-0.0177,-0.0201,-0.0036,-3.1114,1.4080,3.1412
2024-10-11T13:26:41.194Z,0.0165,-0.9894,0.1695,-0.1277,0.1209,0.0406,-0.0193,-0.0195,-0.0054,-3.1104,1.4085,3.1393
2024-10-11T13:26:41.204Z,0.0111,-0.9818,0.1703,-0.1277,0.1209,0.0406,-0.0207,-0.0174,-0.0022,-3.1104,1.4085,3.1393
2024-10-11T13:26:41.214Z,0.0085,-0.9779,0.1588,-0.1277,0.1209,0.0406,-0.0204,-0.0189,0.0000,-3.1104,1.4085,3.1393
2024-10-11T13:26:41.225Z,0.0104,-0.9779,0.1577,-0.0809,-0.0924,0.0321,-0.0175,-0.0180,-0.0013,-3.1102,1.4091,3.1383
2024-10-11T13:26:41.234Z,0.0073,-0.9797,0.1585,-0.0809,-0.0924,0.0321,-0.0198,-0.0181,0.0012,-3.1102,1.4091,3.1383
2024-10-11T13:26:41.244Z,0.0096,-0.9860,0.1521,-0.0809,-0.0924,0.0321,-0.0198,-0.0146,-0.0004,-3.1102,1.4091,3.1383
2024-10-11T13:26:41.254Z,0.0097,-0.9832,0.1513,-0.0805,-0.0098,0.0787,-0.0172,-0.0133,0.0006,-3.1104,1.4097,3.1377
2024-10-11T13:26:41.263Z,0.0090,-0.9791,0.1506,-0.0805,-0.0098,0.0787,-0.0153,-0.0139,0.0018,-3.1104,1.4097,3.1377
2024-10-11T13:26:41.277Z,0.0056,-0.9790,0.1512,-0.0459,-0.0829,0.0775,-0.0154,-0.0159,0.0036,-3.1110,1.4101,3.1376
2024-10-11T13:26:41.284Z,0.0073,-0.9768,0.1533,-0.0459,-0.0829,0.0775,-0.0147,-0.0188,0.0045,-3.1110,1.4101,3.1376
2024-10-11T13:26:41.294Z,0.0047,-0.9753,0.1525,-0.0459,-0.0829,0.0775,-0.0129,-0.0167,0.0035,-3.1110,1.4101,3.1376
2024-10-11T13:26:41.304Z,-0.0024,-0.9799,0.1497,-0.0459,-0.0829,0.0775,-0.0142,-0.0168,0.0031,-3.1110,1.4101,3.1376
2024-10-11T13:26:41.314Z,0.0040,-0.9824,0.1496,0.0288,-0.0582,0.0844,-0.0098,-0.0210,0.0077,-3.1121,1.4105,3.1378
2024-10-11T13:26:41.324Z,0.0074,-0.9825,0.1506,0.0288,-0.0582,0.0844,-0.0069,-0.0178,0.0060,-3.1121,1.4105,3.1378
2024-10-11T13:26:41.334Z,-0.0047,-0.9865,0.1456,0.0288,-0.0582,0.0844,-0.0063,-0.0199,0.0051,-3.1121,1.4105,3.1378
2024-10-11T13:26:41.344Z,-0.0001,-0.9958,0.1416,0.0434,0.0047,0.1425,-0.0017,-0.0172,0.0031,-3.1133,1.4107,3.1382
2024-10-11T13:26:41.354Z,-0.0011,-0.9997,0.1512,0.0434,0.0047,0.1425,0.0006,-0.0170,0.0033,-3.1133,1.4107,3.1382
2024-10-11T13:26:41.364Z,-0.0007,-1.0031,0.1518,0.0434,0.0047,0.1425,-0.0009,-0.0167,0.0012,-3.1133,1.4107,3.1382
2024-10-11T13:26:41.374Z,-0.0023,-1.0007,0.1526,0.0093,0.1561,0.0773,-0.0007,-0.0152,0.0007,-3.1141,1.4107,3.1383
2024-10-11T13:26:41.384Z,-0.0072,-0.9969,0.1606,0.0093,0.1561,0.0773,-0.0012,-0.0173,0.0020,-3.1141,1.4107,3.1383
2024-10-11T13:26:41.394Z,-0.0013,-0.9942,0.1674,0.0093,0.1561,0.0773,-0.0020,-0.0181,0.0020,-3.1141,1.4107,3.1383
2024-10-11T13:26:41.404Z,0.0022,-0.9913,0.1745,0.0107,0.0632,-0.0748,-0.0037,-0.0149,0.0011,-3.1147,1.4107,3.1381
2024-10-11T13:26:41.414Z,0.0020,-0.9881,0.1828,0.0107,0.0632,-0.0748,-0.0073,-0.0097,0.0001,-3.1147,1.4107,3.1381
2024-10-11T13:26:41.424Z,0.0025,-0.9945,0.1784,0.0107,0.0632,-0.0748,-0.0087,-0.0119,0.0016,-3.1147,1.4107,3.1381
2024-10-11T13:26:41.434Z,-0.0018,-1.0037,0.1789,-0.0151,0.0779,-0.1830,-0.0079,-0.0129,0.0026,-3.1154,1.4109,3.1382
2024-10-11T13:26:41.444Z,-0.0036,-0.9992,0.1755,-0.0151,0.0779,-0.1830,-0.0140,-0.0096,0.0017,-3.1154,1.4109,3.1382
2024-10-11T13:26:41.454Z,0.0022,-0.9895,0.1808,-0.0151,0.0779,-0.1830,-0.0127,-0.0061,0.0010,-3.1154,1.4109,3.1382
2024-10-11T13:26:41.463Z,0.0044,-0.9872,0.1778,-0.0210,0.0082,-0.2112,-0.0183,-0.0047,0.0049,-3.1159,1.4112,3.1382
2024-10-11T13:26:41.474Z,0.0076,-0.9877,0.1786,-0.0210,0.0082,-0.2112,-0.0189,0.0018,0.0066,-3.1159,1.4112,3.1382
2024-10-11T13:26:41.484Z,0.0082,-0.9792,0.1757,-0.0210,0.0082,-0.2112,-0.0183,0.0011,0.0033,-3.1159,1.4112,3.1382
2024-10-11T13:26:41.493Z,-0.0019,-0.9806,0.1678,-0.0769,-0.0768,-0.1654,-0.0190,0.0026,0.0028,-3.1168,1.4117,3.1388
2024-10-11T13:26:41.504Z,-0.0077,-0.9760,0.1725,-0.0769,-0.0768,-0.1654,-0.0226,0.0050,-0.0007,-3.1168,1.4117,3.1388
2024-10-11T13:26:41.513Z,-0.0002,-0.9753,0.1714,-0.0769,-0.0768,-0.1654,-0.0232,0.0078,-0.0005,-3.1168,1.4117,3.1388
2024-10-11T13:26:41.524Z,-0.0002,-0.9781,0.1731,0.0049,-0.1195,-0.1382,-0.0232,0.0073,-0.0005,-3.1175,1.4123,3.1393
2024-10-11T13:26:41.534Z,-0.0047,-0.9850,0.1734,0.0049,-0.1195,-0.1382,-0.0234,0.0031,-0.0005,-3.1175,1.4123,3.1393
2024-10-11T13:26:41.543Z,-0.0074,-0.9932,0.1658,0.0049,-0.1195,-0.1382,-0.0200,0.0102,-0.0015,-3.1175,1.4123,3.1393
2024-10-11T13:26:41.554Z,0.0007,-1.0006,0.1512,0.0760,0.0724,-0.0680,-0.0231,0.0131,-0.0025,-3.1176,1.4130,3.1393
2024-10-11T13:26:41.564Z,0.0101,-0.9992,0.1529,0.0760,0.0724,-0.0680,-0.0190,0.0122,-0.0004,-3.1176,1.4130,3.1393
2024-10-11T13:26:41.574Z,0.0124,-0.9948,0.1565,0.0760,0.0724,-0.0680,-0.0189,0.0189,0.0025,-3.1176,1.4130,3.1393
2024-10-11T13:26:41.584Z,0.0155,-0.9958,0.1514,-0.1133,0.0692,0.0057,-0.0167,0.0187,-0.0005,-3.1178,1.4135,3.1397
2024-10-11T13:26:41.593Z,0.0212,-0.9988,0.1447,-0.1133,0.0692,0.0057,-0.0144,0.0252,0.0029,-3.1178,1.4135,3.1397
2024-10-11T13:26:41.604Z,0.0127,-0.9932,0.1480,-0.1133,0.0692,0.0057,-0.0103,0.0282,0.0045,-3.1178,1.4135,3.1397
2024-10-11T13:26:41.614Z,0.0160,-0.9860,0.1563,-0.1333,0.0408,0.0829,-0.0124,0.0305,0.0059,-3.1188,1.4139,3.1413
2024-10-11T13:26:41.624Z,0.0018,-0.9787,0.1576,-0.1333,0.0408,0.0829,-0.0152,0.0343,0.0057,-3.1188,1.4139,3.1413
2024-10-11T13:26:41.634Z,-0.0036,-0.9738,0.1653,-0.1333,0.0408,0.0829,-0.0147,0.0328,0.0055,-3.1188,1.4139,3.1413
2024-10-11T13:26:41.643Z,-0.0031,-0.9747,0.1661,0.0283,-0.1333,-0.0922,-0.0141,0.0309,0.0040,-3.1201,1.4143,-3.1399
2024-10-11T13:26:41.654Z,-0.0053,-0.9800,0.1719,0.0283,-0.1333,-0.0922,-0.0161,0.0294,-0.0009,-3.1201,1.4143,-3.1399
2024-10-11T13:26:41.665Z,-0.0063,-0.9827,0.1712,0.0463,-0.0536,-0.1620,-0.0156,0.0270,-0.0019,-3.1201,1.4148,-3.1393
2024-10-11T13:26:41.674Z,0.0077,-0.9808,0.1689,0.0463,-0.0536,-0.1620,-0.0162,0.0270,0.0002,-3.1201,1.4148,-3.1393
2024-10-11T13:26:41.684Z,0.0132,-0.9772,0.1767,0.0463,-0.0536,-0.1620,-0.0205,0.0333,0.0023,-3.1201,1.4148,-3.1393
2024-10-11T13:26:41.693Z,0.0092,-0.9765,0.1806,0.0463,-0.0536,-0.1620,-0.0221,0.0337,0.0028,-3.1201,1.4148,-3.1393
2024-10-11T13:26:41.704Z,0.0041,-0.9756,0.1838,-0.0949,-0.1174,-0.2585,-0.0210,0.0344,0.0037,-3.1204,1.4154,-3.1384
2024-10-11T13:26:41.714Z,0.0036,-0.9728,0.1790,-0.0949,-0.1174,-0.2585,-0.0259,0.0345,0.0019,-3.1204,1.4154,-3.1384
2024-10-11T13:26:41.725Z,0.0057,-0.9665,0.1819,-0.0636,-0.2155,-0.2804,-0.0272,0.0352,0.0027,-3.1211,1.4161,-3.1369
2024-10-11T13:26:41.734Z,0.0067,-0.9669,0.1801,-0.0636,-0.2155,-0.2804,-0.0271,0.0361,0.0015,-3.1211,1.4161,-3.1369
2024-10-11T13:26:41.744Z,0.0047,-0.9728,0.1698,-0.0636,-0.2155,-0.2804,-0.0294,0.0365,0.0040,-3.1211,1.4161,-3.1369
2024-10-11T13:26:41.754Z,0.0030,-0.9819,0.1625,-0.0636,-0.2155,-0.2804,-0.0270,0.0375,0.0038,-3.1211,1.4161,-3.1369
2024-10-11T13:26:41.764Z,0.0053,-0.9925,0.1592,-0.0362,-0.0495,-0.0862,-0.0223,0.0359,0.0026,-3.1220,1.4169,-3.1352
2024-10-11T13:26:41.774Z,0.0046,-0.9993,0.1551,-0.0362,-0.0495,-0.0862,-0.0207,0.0396,0.0030,-3.1220,1.4169,-3.1352
2024-10-11T13:26:41.785Z,0.0023,-1.0016,0.1514,-0.0208,0.1290,0.0251,-0.0193,0.0370,0.0007,-3.1225,1.4175,-3.1338
2024-10-11T13:26:41.793Z,0.0003,-0.9984,0.1486,-0.0208,0.1290,0.0251,-0.0147,0.0350,-0.0009,-3.1225,1.4175,-3.1338
2024-10-11T13:26:41.804Z,-0.0001,-0.9977,0.1514,-0.0208,0.1290,0.0251,-0.0145,0.0337,0.0002,-3.1225,1.4175,-3.1338
2024-10-11T13:26:41.815Z,0.0039,-1.0004,0.1678,-0.0579,0.1210,-0.1513,-0.0144,0.0315,0.0009,-3.1228,1.4178,-3.1327
2024-10-11T13:26:41.824Z,0.0052,-0.9979,0.1661,-0.0579,0.1210,-0.1513,-0.0140,0.0319,0.0013,-3.1228,1.4178,-3.1327
2024-10-11T13:26:41.834Z,0.0067,-0.9965,0.1592,-0.0579,0.1210,-0.1513,-0.0136,0.0333,-0.0015,-3.1228,1.4178,-3.1327
2024-10-11T13:26:41.845Z,0.0034,-0.9890,0.1537,-0.0495,0.0063,-0.0200,-0.0111,0.0288,0.0008,-3.1232,1.4181,-3.1317
2024-10-11T13:26:41.854Z,0.0036,-0.9857,0.1574,-0.0495,0.0063,-0.0200,-0.0104,0.0278,0.0016,-3.1232,1.4181,-3.1317
2024-10-11T13:26:41.864Z,0.0024,-0.9840,0.1523,-0.0495,0.0063,-0.0200,-0.0108,0.0259,0.0009,-3.1232,1.4181,-3.1317
2024-10-11T13:26:41.875Z,0.0081,-0.9826,0.1496,-0.1034,-0.0618,0.0206,-0.0112,0.0255,0.0040,-3.1240,1.4184,-3.1304
2024-10-11T13:26:41.884Z,0.0152,-0.9759,0.1515,-0.1034,-0.0618,0.0206,-0.0104,0.0262,0.0035,-3.1240,1.4184,-3.1304
2024-10-11T13:26:41.894Z,0.0135,-0.9704,0.1456,-0.1034,-0.0618,0.0206,-0.0053,0.0285,0.0077,-3.1240,1.4184,-3.1304
2024-10-11T13:26:41.905Z,0.0050,-0.9645,0.1412,-0.0607,-0.2388,0.1151,-0.0042,0.0273,0.0074,-3.1253,1.4186,-3.1284
2024-10-11T13:26:41.914Z,0.0016,-0.9602,0.1359,-0.0607,-0.2388,0.1151,-0.0023,0.0252,0.0057,-3.1253,1.4186,-3.1284
2024-10-11T13:26:41.924Z,-0.0033,-0.9599,0.1443,-0.0607,-0.2388,0.1151,-0.0031,0.0286,0.0057,-3.1253,1.4186,-3.1284
2024-10-11T13:26:41.934Z,0.0025,-0.9626,0.1471,-0.0503,-0.2441,0.0360,0.0021,0.0219,0.0042,-3.1265,1.4185,-3.1268
2024-10-11T13:26:41.944Z,0.0021,-0.9694,0.1525,-0.0503,-0.2441,0.0360,0.0039,0.0260,0.0031,-3.1265,1.4185,-3.1268
2024-10-11T13:26:41.953Z,-0.0029,-0.9748,0.1479,-0.0503,-0.2441,0.0360,0.0044,0.0167,0.0018,-3.1265,1.4185,-3.1268
2024-10-11T13:26:41.964Z,0.0065,-0.9797,0.1419,-0.0503,-0.2441,0.0360,0.0070,0.0171,0.0041,-3.1265,1.4185,-3.1268
2024-10-11T13:26:41.974Z,0.0072,-0.9790,0.1453,-0.0955,-0.0845,0.1094,0.0101,0.0196,0.0066,-3.1270,1.4183,-3.1259
2024-10-11T13:26:41.984Z,0.0094,-0.9770,0.1485,-0.0955,-0.0845,0.1094,0.0109,0.0176,0.0069,-3.1270,1.4183,-3.1259
2024-10-11T13:26:41.995Z,0.0135,-0.9811,0.1436,-0.1558,-0.0637,0.0878,0.0132,0.0181,0.0080,-3.1280,1.4179,-3.1247
2024-10-11T13:26:42.004Z,0.0167,-0.9834,0.1412,-0.1558,-0.0637,0.0878,0.0155,0.0165,0.0084,-3.1280,1.4179,-3.1247
2024-10-11T13:26:42.014Z,0.0146,-0.9864,0.1478,-0.1558,-0.0637,0.0878,0.0176,0.0119,0.0126,-3.1280,1.4179,-3.1247
2024-10-11T13:26:42.024Z,0.0070,-0.9860,0.1454,-0.1011,-0.0253,0.0601,0.0157,0.0124,0.0118,-3.1306,1.4174,-3.1220
2024-10-11T13:26:42.034Z,0.0055,-0.9841,0.1515,-0.1011,-0.0253,0.0601,0.0128,0.0117,0.0134,-3.1306,1.4174,-3.1220
2024-10-11T13:26:42.044Z,0.0070,-0.9821,0.1610,-0.1011,-0.0253,0.0601,0.0128,0.0095,0.0116,-3.1306,1.4174,-3.1220
2024-10-11T13:26:42.054Z,-0.0016,-0.9837,0.1649,-0.0080,-0.0356,-0.1019,0.0133,0.0070,0.0114,-3.1332,1.4169,-3.1194
2024-10-11T13:26:42.064Z,0.0023,-0.9857,0.1603,-0.0080,-0.0356,-0.1019,0.0146,0.0023,0.0132,-3.1332,1.4169,-3.1194
2024-10-11T13:26:42.074Z,0.0071,-0.9868,0.1577,-0.0080,-0.0356,-0.1019,0.0142,0.0023,0.0114,-3.1332,1.4169,-3.1194
2024-10-11T13:26:42.085Z,0.0052,-0.9915,0.1570,-0.0875,0.0333,-0.0242,0.0152,-0.0011,0.0125,-3.1358,1.4165,-3.1170
2024-10-11T13:26:42.094Z,0.0047,-0.9840,0.1588,-0.0875,0.0333,-0.0242,0.0136,-0.0060,0.0122,-3.1358,1.4165,-3.1170
2024-10-11T13:26:42.104Z,0.0005,-0.9745,0.1696,-0.0875,0.0333,-0.0242,0.0125,-0.0091,0.0125,-3.1358,1.4165,-3.1170
2024-10-11T13:26:42.114Z,-0.0011,-0.9732,0.1701,-0.0302,-0.1380,-0.1435,0.0137,-0.0138,0.0128,-3.1381,1.4161,-3.1153
2024-10-11T13:26:42.124Z,-0.0037,-0.9772,0.1660,-0.0302,-0.1380,-0.1435,0.0111,-0.0165,0.0097,-3.1381,1.4161,-3.1153
2024-10-11T13:26:42.134Z,-0.0058,-0.9746,0.1610,-0.0302,-0.1380,-0.1435,0.0094,-0.0222,0.0075,-3.1381,1.4161,-3.1153
2024-10-11T13:26:42.145Z,-0.0069,-0.9709,0.1600,0.0308,-0.1723,-0.0320,0.0086,-0.0242,0.0100,-3.1400,1.4158,-3.1144
2024-10-11T13:26:42.153Z,-0.0006,-0.9681,0.1555,0.0308,-0.1723,-0.0320,0.0088,-0.0268,0.0088,-3.1400,1.4158,-3.1144
2024-10-11T13:26:42.164Z,0.0013,-0.9708,0.1559,0.0308,-0.1723,-0.0320,0.0118,-0.0315,0.0076,-3.1400,1.4158,-3.1144
2024-10-11T13:26:42.175Z,0.0007,-0.9772,0.1528,-0.0462,-0.0950,0.0271,0.0119,-0.0316,0.0073,-3.1414,1.4154,-3.1140
2024-10-11T13:26:42.184Z,-0.0036,-0.9830,0.1463,-0.0462,-0.0950,0.0271,0.0092,-0.0354,0.0089,-3.1414,1.4154,-3.1140
2024-10-11T13:26:42.195Z,-0.0040,-0.9835,0.1521,-0.0462,-0.0950,0.0271,0.0112,-0.0376,0.0051,-3.1414,1.4154,-3.1140
2024-10-11T13:26:42.204Z,-0.0072,-0.9803,0.1565,0.0433,-0.0810,-0.0182,0.0106,-0.0388,0.0023,3.1407,1.4150,-3.1144
2024-10-11T13:26:42.214Z,-0.0119,-0.9817,0.1561,0.0433,-0.0810,-0.0182,0.0128,-0.0414,0.0021,3.1407,1.4150,-3.1144
2024-10-11T13:26:42.224Z,-0.0110,-0.9807,0.1613,0.0433,-0.0810,-0.0182,0.0142,-0.0436,0.0024,3.1407,1.4150,-3.1144
2024-10-11T13:26:42.234Z,-0.0022,-0.9818,0.1657,-0.0215,-0.0519,-0.0981,0.0115,-0.0459,-0.0012,3.1403,1.4146,-3.1155
2024-10-11T13:26:42.243Z,-0.0046,-0.9877,0.1618,-0.0215,-0.0519,-0.0981,0.0116,-0.0410,0.0000,3.1403,1.4146,-3.1155
2024-10-11T13:26:42.253Z,-0.0089,-0.9889,0.1598,-0.0215,-0.0519,-0.0981,0.0127,-0.0490,-0.0020,3.1403,1.4146,-3.1155
2024-10-11T13:26:42.264Z,-0.0090,-0.9901,0.1631,0.0455,0.0258,-0.0791,0.0129,-0.0500,-0.0016,3.1404,1.4142,-3.1174
2024-10-11T13:26:42.274Z,-0.0064,-0.9922,0.1702,0.0455,0.0258,-0.0791,0.0135,-0.0494,-0.0023,3.1404,1.4142,-3.1174
2024-10-11T13:26:42.284Z,-0.0032,-0.9967,0.1807,0.0455,0.0258,-0.0791,0.0110,-0.0484,-0.0023,3.1404,1.4142,-3.1174
2024-10-11T13:26:42.295Z,0.0007,-0.9997,0.1783,-0.0519,0.1197,-0.2040,0.0114,-0.0518,-0.0023,3.1407,1.4137,-3.1195
2024-10-11T13:26:42.304Z,0.0008,-0.9976,0.1724,-0.0519,0.1197,-0.2040,0.0110,-0.0530,-0.0018,3.1407,1.4137,-3.1195
2024-10-11T13:26:42.313Z,-0.0035,-0.9936,0.1726,-0.0519,0.1197,-0.2040,0.0122,-0.0553,-0.0014,3.1407,1.4137,-3.1195
2024-10-11T13:26:42.324Z,-0.0023,-0.9901,0.1842,0.0008,0.0276,-0.2725,0.0106,-0.0563,-0.0001,3.1406,1.4134,-3.1212
2024-10-11T13:26:42.334Z,-0.0080,-0.9947,0.1792,0.0008,0.0276,-0.2725,0.0099,-0.0581,-0.0024,3.1406,1.4134,-3.1212
2024-10-11T13:26:42.344Z,-0.0096,-1.0033,0.1812,0.0008,0.0276,-0.2725,0.0075,-0.0580,-0.0035,3.1406,1.4134,-3.1212
2024-10-11T13:26:42.354Z,-0.0102,-1.0047,0.1854,0.0632,0.1679,-0.2704,0.0057,-0.0597,-0.0021,3.1408,1.4131,-3.1234
2024-10-11T13:26:42.363Z,-0.0004,-1.0058,0.1825,0.0632,0.1679,-0.2704,0.0054,-0.0614,-0.0042,3.1408,1.4131,-3.1234
2024-10-11T13:26:42.374Z,-0.0026,-1.0061,0.1704,0.0632,0.1679,-0.2704,0.0029,-0.0589,-0.0037,3.1408,1.4131,-3.1234
2024-10-11T13:26:42.384Z,-0.0055,-1.0076,0.1626,0.0302,0.2011,-0.0506,0.0067,-0.0586,-0.0033,3.1411,1.4129,-3.1258
2024-10-11T13:26:42.395Z,-0.0061,-1.0084,0.1661,0.0302,0.2011,-0.0506,0.0046,-0.0575,-0.0041,3.1411,1.4129,-3.1258
2024-10-11T13:26:42.404Z,-0.0037,-1.0083,0.1655,0.0302,0.2011,-0.0506,0.0079,-0.0585,-0.0027,3.1411,1.4129,-3.1258
