time,gFx,gFy,gFz,ax,ay,az,wx,wy,wz,yaw,pitch,roll
2024-10-11T12:52:59.620Z,-0.0032,-0.9682,0.2306,0.1850,-0.0523,-0.0555,0.0154,0.0107,-0.0033,-2.3599,1.3407,3.0821
2024-10-11T12:52:59.627Z,-0.0042,-0.9689,0.2331,0.1850,-0.0523,-0.0555,0.0154,0.0108,-0.0043,-2.3599,1.3407,3.0821
2024-10-11T12:52:59.637Z,0.0024,-0.9696,0.2318,0.1850,-0.0523,-0.0555,0.0135,0.0124,-0.0051,-2.3599,1.3407,3.0821
2024-10-11T12:52:59.647Z,0.0071,-0.9711,0.2306,0.0219,-0.0367,-0.0116,0.0135,0.0135,-0.0029,-2.3596,1.3404,3.0819
2024-10-11T12:52:59.657Z,0.0117,-0.9691,0.2284,0.0219,-0.0367,-0.0116,0.0080,0.0137,-0.0024,-2.3596,1.3404,3.0819
2024-10-11T12:52:59.667Z,0.0148,-0.9702,0.2259,0.0219,-0.0367,-0.0116,0.0128,0.0139,-0.0012,-2.3596,1.3404,3.0819
2024-10-11T12:52:59.677Z,0.0129,-0.9705,0.2261,0.0320,-0.0121,0.0230,0.0103,0.0156,-0.0018,-2.3600,1.3401,3.0824
2024-10-11T12:52:59.687Z,0.0098,-0.9733,0.2239,0.0320,-0.0121,0.0230,0.0072,0.0179,-0.0030,-2.3600,1.3401,3.0824
2024-10-11T12:52:59.697Z,0.0076,-0.9753,0.2227,0.0320,-0.0121,0.0230,0.0114,0.0197,-0.0015,-2.3600,1.3401,3.0824
2024-10-11T12:52:59.706Z,0.0066,-0.9756,0.2257,0.0509,0.0401,0.0321,0.0074,0.0189,-0.0023,-2.3606,1.3397,3.0834
2024-10-11T12:52:59.717Z,0.0079,-0.9780,0.2255,0.0509,0.0401,0.0321,0.0111,0.0206,-0.0031,-2.3606,1.3397,3.0834
2024-10-11T12:52:59.727Z,0.0078,-0.9790,0.2289,0.0509,0.0401,0.0321,0.0105,0.0192,-0.0046,-2.3606,1.3397,3.0834
2024-10-11T12:52:59.737Z,0.0069,-0.9796,0.2281,0.0991,0.0562,-0.0033,0.0090,0.0192,-0.0044,-2.3606,1.3394,3.0837
2024-10-11T12:52:59.747Z,0.0025,-0.9790,0.2299,0.0991,0.0562,-0.0033,0.0118,0.0173,-0.0036,-2.3606,1.3394,3.0837
2024-10-11T12:52:59.757Z,0.0062,-0.9778,0.2325,0.0991,0.0562,-0.0033,0.0098,0.0160,-0.0045,-2.3606,1.3394,3.0837
2024-10-11T12:52:59.767Z,0.0051,-0.9782,0.2347,0.0788,0.0502,-0.0670,0.0088,0.0144,-0.0053,-2.3602,1.3391,3.0836
2024-10-11T12:52:59.777Z,0.0053,-0.9785,0.2367,0.0788,0.0502,-0.0670,0.0096,0.0128,-0.0073,-2.3602,1.3391,3.0836
2024-10-11T12:52:59.787Z,0.0050,-0.9785,0.2390,0.0788,0.0502,-0.0670,0.0043,0.0157,-0.0079,-2.3602,1.3391,3.0836
2024-10-11T12:52:59.797Z,0.0054,-0.9787,0.2397,0.0735,0.0495,-0.1310,0.0066,0.0117,-0.0084,-2.3597,1.3389,3.0833
2024-10-11T12:52:59.807Z,0.0071,-0.9792,0.2442,0.0735,0.0495,-0.1310,0.0012,0.0130,-0.0077,-2.3597,1.3389,3.0833
2024-10-11T12:52:59.817Z,0.0121,-0.9792,0.2470,0.0735,0.0495,-0.1310,0.0016,0.0110,-0.0074,-2.3597,1.3389,3.0833
2024-10-11T12:52:59.827Z,0.0157,-0.9789,0.2467,-0.0226,0.0608,-0.1841,0.0016,0.0110,-0.0074,-2.3591,1.3388,3.0828
2024-10-11T12:52:59.837Z,0.0168,-0.9792,0.2482,-0.0226,0.0608,-0.1841,-0.0018,0.0117,-0.0053,-2.3591,1.3388,3.0828
2024-10-11T12:52:59.847Z,0.0182,-0.9803,0.2484,-0.0226,0.0608,-0.1841,-0.0045,0.0127,-0.0045,-2.3591,1.3388,3.0828
2024-10-11T12:52:59.857Z,0.0142,-0.9802,0.2454,-0.0194,0.0579,-0.1172,-0.0055,0.0154,-0.0084,-2.3587,1.3388,3.0826
2024-10-11T12:52:59.867Z,0.0171,-0.9774,0.2404,-0.0194,0.0579,-0.1172,-0.0045,0.0136,-0.0021,-2.3587,1.3388,3.0826
2024-10-11T12:52:59.877Z,0.0210,-0.9746,0.2400,-0.0194,0.0579,-0.1172,-0.0024,0.0137,-0.0002,-2.3587,1.3388,3.0826
2024-10-11T12:52:59.887Z,0.0202,-0.9720,0.2373,-0.0774,-0.0301,-0.0254,-0.0058,0.0147,-0.0038,-2.3585,1.3389,3.0826
2024-10-11T12:52:59.897Z,0.0207,-0.9692,0.2304,-0.0774,-0.0301,-0.0254,-0.0020,0.0148,-0.0011,-2.3585,1.3389,3.0826
2024-10-11T12:52:59.907Z,0.0155,-0.9692,0.2301,-0.0774,-0.0301,-0.0254,-0.0019,0.0110,0.0004,-2.3585,1.3389,3.0826
2024-10-11T12:52:59.917Z,0.0191,-0.9695,0.2286,-0.0639,-0.0450,0.0063,-0.0044,0.0113,-0.0002,-2.3584,1.3389,3.0827
2024-10-11T12:52:59.926Z,0.0193,-0.9692,0.2288,-0.0639,-0.0450,0.0063,-0.0022,0.0131,0.0006,-2.3584,1.3389,3.0827
2024-10-11T12:52:59.937Z,0.0212,-0.9719,0.2274,-0.0639,-0.0450,0.0063,-0.0010,0.0129,0.0023,-2.3584,1.3389,3.0827
2024-10-11T12:52:59.947Z,0.0183,-0.9714,0.2249,-0.0265,-0.0153,0.0516,-0.0011,0.0118,0.0010,-2.3586,1.3389,3.0829
2024-10-11T12:52:59.957Z,0.0169,-0.9727,0.2257,-0.0265,-0.0153,0.0516,-0.0025,0.0142,0.0021,-2.3586,1.3389,3.0829
2024-10-11T12:52:59.967Z,0.0172,-0.9731,0.2286,-0.0265,-0.0153,0.0516,0.0009,0.0123,0.0039,-2.3586,1.3389,3.0829
2024-10-11T12:52:59.976Z,0.0163,-0.9735,0.2292,-0.0424,0.0092,-0.0021,-0.0002,0.0153,-0.0002,-2.3588,1.3389,3.0833
2024-10-11T12:52:59.987Z,0.0170,-0.9744,0.2295,-0.0424,0.0092,-0.0021,-0.0000,0.0141,0.0035,-2.3588,1.3389,3.0833
2024-10-11T12:52:59.997Z,0.0147,-0.9757,0.2328,-0.0424,0.0092,-0.0021,-0.0024,0.0139,0.0016,-2.3588,1.3389,3.0833
2024-10-11T12:53:00.007Z,0.0171,-0.9745,0.2338,-0.0521,0.0204,-0.0661,0.0006,0.0143,0.0055,-2.3591,1.3390,3.0838
2024-10-11T12:53:00.017Z,0.0181,-0.9759,0.2378,-0.0521,0.0204,-0.0661,-0.0003,0.0130,0.0038,-2.3591,1.3390,3.0838
2024-10-11T12:53:00.026Z,0.0162,-0.9775,0.2430,-0.0521,0.0204,-0.0661,-0.0045,0.0133,0.0050,-2.3591,1.3390,3.0838
2024-10-11T12:53:00.037Z,0.0145,-0.9800,0.2445,0.0217,0.0916,-0.1549,-0.0054,0.0148,0.0043,-2.3596,1.3391,3.0845
2024-10-11T12:53:00.047Z,0.0068,-0.9840,0.2442,0.0217,0.0916,-0.1549,-0.0080,0.0131,0.0057,-2.3596,1.3391,3.0845
2024-10-11T12:53:00.057Z,0.0017,-0.9862,0.2430,0.0217,0.0916,-0.1549,-0.0088,0.0151,0.0032,-2.3596,1.3391,3.0845
2024-10-11T12:53:00.067Z,-0.0021,-0.9881,0.2494,0.1105,0.1395,-0.2121,-0.0092,0.0169,0.0001,-2.3598,1.3394,3.0849
2024-10-11T12:53:00.076Z,0.0025,-0.9867,0.2518,0.1105,0.1395,-0.2121,-0.0134,0.0210,-0.0016,-2.3598,1.3394,3.0849
2024-10-11T12:53:00.087Z,-0.0067,-0.9852,0.2477,0.1105,0.1395,-0.2121,-0.0151,0.0199,-0.0014,-2.3598,1.3394,3.0849
2024-10-11T12:53:00.097Z,0.0055,-0.9805,0.2491,0.0723,0.0525,-0.1999,-0.0195,0.0248,-0.0048,-2.3594,1.3398,3.0849
2024-10-11T12:53:00.107Z,0.0060,-0.9788,0.2497,0.0723,0.0525,-0.1999,-0.0193,0.0199,-0.0030,-2.3594,1.3398,3.0849
2024-10-11T12:53:00.117Z,0.0134,-0.9757,0.2495,0.0723,0.0525,-0.1999,-0.0206,0.0214,-0.0013,-2.3594,1.3398,3.0849
2024-10-11T12:53:00.128Z,0.0125,-0.9698,0.2460,-0.0007,-0.0459,-0.1760,-0.0221,0.0218,-0.0048,-2.3591,1.3403,3.0850
2024-10-11T12:53:00.138Z,0.0145,-0.9679,0.2454,-0.0007,-0.0459,-0.1760,-0.0238,0.0175,-0.0016,-2.3591,1.3403,3.0850
2024-10-11T12:53:00.148Z,0.0175,-0.9676,0.2410,-0.0007,-0.0459,-0.1760,-0.0262,0.0198,-0.0003,-2.3591,1.3403,3.0850
2024-10-11T12:53:00.157Z,0.0153,-0.9656,0.2383,-0.0230,-0.0936,-0.0644,-0.0257,0.0196,-0.0007,-2.3592,1.3410,3.0854
2024-10-11T12:53:00.167Z,0.0148,-0.9649,0.2317,-0.0230,-0.0936,-0.0644,-0.0284,0.0199,-0.0011,-2.3592,1.3410,3.0854
2024-10-11T12:53:00.177Z,0.0119,-0.9658,0.2278,-0.0230,-0.0936,-0.0644,-0.0256,0.0207,-0.0029,-2.3592,1.3410,3.0854
2024-10-11T12:53:00.187Z,0.0131,-0.9659,0.2256,-0.0040,-0.0710,0.0459,-0.0246,0.0208,-0.0022,-2.3589,1.3417,3.0856
2024-10-11T12:53:00.197Z,0.0123,-0.9676,0.2218,-0.0040,-0.0710,0.0459,-0.0296,0.0221,-0.0046,-2.3589,1.3417,3.0856
2024-10-11T12:53:00.207Z,0.0152,-0.9693,0.2228,-0.0040,-0.0710,0.0459,-0.0254,0.0241,-0.0013,-2.3589,1.3417,3.0856
2024-10-11T12:53:00.217Z,0.0170,-0.9707,0.2230,-0.0232,-0.0046,0.0312,-0.0273,0.0276,-0.0007,-2.3586,1.3424,3.0857
2024-10-11T12:53:00.226Z,0.0152,-0.9746,0.2234,-0.0232,-0.0046,0.0312,-0.0271,0.0278,0.0014,-2.3586,1.3424,3.0857
2024-10-11T12:53:00.237Z,0.0165,-0.9769,0.2217,-0.0232,-0.0046,0.0312,-0.0212,0.0312,0.0026,-2.3586,1.3424,3.0857
2024-10-11T12:53:00.247Z,0.0144,-0.9781,0.2236,-0.0179,0.0326,0.0029,-0.0245,0.0310,0.0024,-2.3586,1.3430,3.0863
2024-10-11T12:53:00.257Z,0.0155,-0.9786,0.2255,-0.0179,0.0326,0.0029,-0.0221,0.0327,0.0035,-2.3586,1.3430,3.0863
2024-10-11T12:53:00.267Z,0.0146,-0.9774,0.2263,-0.0179,0.0326,0.0029,-0.0242,0.0337,0.0050,-2.3586,1.3430,3.0863
2024-10-11T12:53:00.277Z,0.0145,-0.9767,0.2281,-0.0380,0.0113,-0.0367,-0.0240,0.0366,0.0072,-2.3592,1.3437,3.0876
2024-10-11T12:53:00.287Z,0.0160,-0.9756,0.2295,-0.0380,0.0113,-0.0367,-0.0262,0.0381,0.0079,-2.3592,1.3437,3.0876
2024-10-11T12:53:00.298Z,0.0105,-0.9737,0.2305,-0.0380,0.0113,-0.0367,-0.0254,0.0402,0.0072,-2.3592,1.3437,3.0876
2024-10-11T12:53:00.308Z,0.0105,-0.9737,0.2305,0.0149,0.0114,-0.0713,-0.0231,0.0377,0.0075,-2.3599,1.3445,3.0892
2024-10-11T12:53:00.317Z,0.0084,-0.9757,0.2335,0.0149,0.0114,-0.0713,-0.0233,0.0383,0.0055,-2.3599,1.3445,3.0892
2024-10-11T12:53:00.327Z,0.0077,-0.9722,0.2337,0.0149,0.0114,-0.0713,-0.0250,0.0374,0.0052,-2.3599,1.3445,3.0892
2024-10-11T12:53:00.338Z,0.0064,-0.9764,0.2297,0.0522,0.0157,-0.0677,-0.0259,0.0365,0.0065,-2.3603,1.3452,3.0905
2024-10-11T12:53:00.348Z,0.0057,-0.9751,0.2280,0.0522,0.0157,-0.0677,-0.0232,0.0322,0.0029,-2.3603,1.3452,3.0905
2024-10-11T12:53:00.359Z,0.0057,-0.9751,0.2280,0.0522,0.0157,-0.0677,-0.0257,0.0295,0.0014,-2.3603,1.3452,3.0905
2024-10-11T12:53:00.368Z,0.0075,-0.9757,0.2248,0.0369,0.0102,-0.0318,-0.0250,0.0243,-0.0026,-2.3601,1.3458,3.0909
2024-10-11T12:53:00.378Z,0.0046,-0.9763,0.2241,0.0369,0.0102,-0.0318,-0.0260,0.0198,-0.0017,-2.3601,1.3458,3.0909
2024-10-11T12:53:00.389Z,0.0051,-0.9754,0.2215,0.0369,0.0102,-0.0318,-0.0238,0.0148,-0.0063,-2.3601,1.3458,3.0909
2024-10-11T12:53:00.398Z,0.0093,-0.9752,0.2203,0.0352,0.0059,0.0126,-0.0241,0.0122,-0.0075,-2.3595,1.3464,3.0906
2024-10-11T12:53:00.408Z,0.0093,-0.9752,0.2203,0.0352,0.0059,0.0126,-0.0251,0.0077,-0.0070,-2.3595,1.3464,3.0906
2024-10-11T12:53:00.418Z,0.0123,-0.9725,0.2186,0.0352,0.0059,0.0126,-0.0241,0.0052,-0.0092,-2.3595,1.3464,3.0906
2024-10-11T12:53:00.428Z,0.0135,-0.9714,0.2184,-0.0124,-0.0328,0.0311,-0.0221,0.0045,-0.0095,-2.3585,1.3469,3.0896
2024-10-11T12:53:00.438Z,0.0174,-0.9720,0.2167,-0.0124,-0.0328,0.0311,-0.0215,-0.0013,-0.0110,-2.3585,1.3469,3.0896
2024-10-11T12:53:00.448Z,0.0145,-0.9704,0.2157,-0.0124,-0.0328,0.0311,-0.0178,-0.0010,-0.0101,-2.3585,1.3469,3.0896
2024-10-11T12:53:00.457Z,0.0145,-0.9704,0.2157,-0.0398,-0.0514,0.0692,-0.0194,-0.0006,-0.0087,-2.3574,1.3475,3.0883
2024-10-11T12:53:00.466Z,0.0179,-0.9700,0.2131,-0.0398,-0.0514,0.0692,-0.0181,0.0015,-0.0101,-2.3574,1.3475,3.0883
2024-10-11T12:53:00.478Z,0.0182,-0.9669,0.2116,-0.0398,-0.0514,0.0692,-0.0172,0.0014,-0.0090,-2.3574,1.3475,3.0883
2024-10-11T12:53:00.488Z,0.0204,-0.9637,0.2108,-0.0766,-0.1049,0.1000,-0.0164,-0.0001,-0.0048,-2.3564,1.3480,3.0870
2024-10-11T12:53:00.497Z,0.0199,-0.9627,0.2082,-0.0766,-0.1049,0.1000,-0.0174,0.0028,-0.0049,-2.3564,1.3480,3.0870
2024-10-11T12:53:00.507Z,0.0199,-0.9627,0.2082,-0.0766,-0.1049,0.1000,-0.0147,0.0043,-0.0062,-2.3564,1.3480,3.0870
2024-10-11T12:53:00.517Z,0.0192,-0.9616,0.2078,-0.0752,-0.1347,0.1087,-0.0129,0.0018,-0.0050,-2.3556,1.3484,3.0861
2024-10-11T12:53:00.527Z,0.0160,-0.9620,0.2074,-0.0752,-0.1347,0.1087,-0.0117,0.0010,-0.0039,-2.3556,1.3484,3.0861
2024-10-11T12:53:00.538Z,0.0143,-0.9622,0.2075,-0.0752,-0.1347,0.1087,-0.0128,0.0046,-0.0018,-2.3556,1.3484,3.0861
2024-10-11T12:53:00.547Z,0.0146,-0.9624,0.2086,-0.0239,-0.1330,0.1059,-0.0119,0.0056,-0.0017,-2.3550,1.3488,3.0854
2024-10-11T12:53:00.558Z,0.0146,-0.9624,0.2086,-0.0239,-0.1330,0.1059,-0.0095,0.0017,-0.0023,-2.3550,1.3488,3.0854
2024-10-11T12:53:00.567Z,0.0118,-0.9643,0.2086,-0.0239,-0.1330,0.1059,-0.0092,0.0051,-0.0019,-2.3550,1.3488,3.0854
2024-10-11T12:53:00.578Z,0.0143,-0.9688,0.2040,-0.0157,-0.0775,0.1417,-0.0063,0.0046,-0.0003,-2.3543,1.3491,3.0846
2024-10-11T12:53:00.587Z,0.0107,-0.9734,0.2021,-0.0157,-0.0775,0.1417,-0.0057,0.0076,-0.0021,-2.3543,1.3491,3.0846
2024-10-11T12:53:00.597Z,0.0134,-0.9758,0.2016,-0.0157,-0.0775,0.1417,-0.0024,0.0095,0.0004,-2.3543,1.3491,3.0846
2024-10-11T12:53:00.608Z,0.0134,-0.9758,0.2016,0.0105,0.0120,0.1574,-0.0007,0.0107,0.0001,-2.3538,1.3493,3.0841
2024-10-11T12:53:00.617Z,0.0100,-0.9816,0.2053,0.0105,0.0120,0.1574,0.0004,0.0106,0.0013,-2.3538,1.3493,3.0841
2024-10-11T12:53:00.627Z,0.0078,-0.9826,0.2063,0.0105,0.0120,0.1574,0.0023,0.0141,0.0005,-2.3538,1.3493,3.0841
2024-10-11T12:53:00.637Z,0.0079,-0.9833,0.2051,0.0477,0.0706,0.1266,0.0042,0.0148,0.0001,-2.3538,1.3493,3.0843
2024-10-11T12:53:00.648Z,0.0037,-0.9825,0.2034,0.0477,0.0706,0.1266,0.0056,0.0151,-0.0003,-2.3538,1.3493,3.0843
2024-10-11T12:53:00.659Z,0.0042,-0.9823,0.2064,0.0477,0.0706,0.1266,0.0068,0.0149,-0.0040,-2.3538,1.3493,3.0843
2024-10-11T12:53:00.667Z,0.0047,-0.9804,0.2077,0.0822,0.0532,0.1161,0.0062,0.0150,-0.0043,-2.3536,1.3492,3.0843
2024-10-11T12:53:00.678Z,0.0064,-0.9775,0.2096,0.0822,0.0532,0.1161,0.0053,0.0141,-0.0026,-2.3536,1.3492,3.0843
2024-10-11T12:53:00.687Z,0.0055,-0.9767,0.2132,0.0822,0.0532,0.1161,0.0077,0.0149,-0.0027,-2.3536,1.3492,3.0843
2024-10-11T12:53:00.697Z,0.0062,-0.9740,0.2135,0.0621,-0.0060,0.0631,0.0067,0.0163,-0.0053,-2.3534,1.3492,3.0843
2024-10-11T12:53:00.709Z,0.0045,-0.9734,0.2152,0.0621,-0.0060,0.0631,0.0050,0.0188,-0.0031,-2.3534,1.3492,3.0843
2024-10-11T12:53:00.717Z,0.0084,-0.9717,0.2181,0.0621,-0.0060,0.0631,0.0042,0.0190,-0.0062,-2.3534,1.3492,3.0843
2024-10-11T12:53:00.728Z,0.0119,-0.9686,0.2224,0.0125,-0.0620,-0.0152,0.0028,0.0245,-0.0038,-2.3531,1.3491,3.0843
2024-10-11T12:53:00.737Z,0.0103,-0.9685,0.2238,0.0125,-0.0620,-0.0152,0.0013,0.0201,-0.0057,-2.3531,1.3491,3.0843
2024-10-11T12:53:00.747Z,0.0098,-0.9689,0.2227,0.0125,-0.0620,-0.0152,0.0002,0.0211,-0.0035,-2.3531,1.3491,3.0843
2024-10-11T12:53:00.758Z,0.0094,-0.9699,0.2233,0.0377,-0.0605,-0.0280,-0.0007,0.0210,-0.0033,-2.3528,1.3492,3.0844
2024-10-11T12:53:00.768Z,0.0147,-0.9696,0.2272,0.0377,-0.0605,-0.0280,-0.0018,0.0214,-0.0023,-2.3528,1.3492,3.0844
2024-10-11T12:53:00.777Z,0.0147,-0.9696,0.2272,0.0377,-0.0605,-0.0280,-0.0053,0.0187,-0.0055,-2.3528,1.3492,3.0844
2024-10-11T12:53:00.788Z,0.0168,-0.9741,0.2274,-0.0426,-0.0200,-0.0797,-0.0040,0.0166,-0.0027,-2.3527,1.3493,3.0847
2024-10-11T12:53:00.797Z,0.0171,-0.9765,0.2287,-0.0426,-0.0200,-0.0797,-0.0032,0.0138,-0.0014,-2.3527,1.3493,3.0847
2024-10-11T12:53:00.809Z,0.0169,-0.9788,0.2253,-0.0426,-0.0200,-0.0797,-0.0064,0.0132,-0.0008,-2.3527,1.3493,3.0847
2024-10-11T12:53:00.817Z,0.0177,-0.9818,0.2230,-0.0505,0.0479,-0.0464,-0.0040,0.0113,-0.0019,-2.3526,1.3494,3.0848
2024-10-11T12:53:00.827Z,0.0182,-0.9853,0.2186,-0.0505,0.0479,-0.0464,-0.0044,0.0096,-0.0023,-2.3526,1.3494,3.0848
2024-10-11T12:53:00.837Z,0.0184,-0.9848,0.2144,-0.0505,0.0479,-0.0464,-0.0046,0.0072,-0.0022,-2.3526,1.3494,3.0848
2024-10-11T12:53:00.847Z,0.0208,-0.9871,0.2110,-0.0628,0.0962,0.0668,-0.0010,0.0016,0.0008,-2.3525,1.3494,3.0846
2024-10-11T12:53:00.858Z,0.0224,-0.9885,0.2147,-0.0628,0.0962,0.0668,-0.0031,0.0026,0.0012,-2.3525,1.3494,3.0846
2024-10-11T12:53:00.867Z,0.0224,-0.9885,0.2144,-0.0628,0.0962,0.0668,-0.0019,-0.0003,-0.0008,-2.3525,1.3494,3.0846
2024-10-11T12:53:00.877Z,0.0224,-0.9888,0.2109,-0.0904,0.1329,0.0736,-0.0011,0.0002,0.0017,-2.3528,1.3494,3.0847
2024-10-11T12:53:00.887Z,0.0241,-0.9871,0.2103,-0.0904,0.1329,0.0736,-0.0024,-0.0030,0.0013,-2.3528,1.3494,3.0847
2024-10-11T12:53:00.897Z,0.0223,-0.9841,0.2089,-0.0904,0.1329,0.0736,-0.0014,-0.0056,0.0032,-2.3528,1.3494,3.0847
2024-10-11T12:53:00.908Z,0.0213,-0.9792,0.2105,-0.0865,0.0561,0.0926,0.0043,-0.0049,0.0043,-2.3533,1.3493,3.0847
2024-10-11T12:53:00.917Z,0.0239,-0.9763,0.2127,-0.0865,0.0561,0.0926,0.0039,-0.0091,0.0054,-2.3533,1.3493,3.0847
2024-10-11T12:53:00.927Z,0.0272,-0.9723,0.2158,-0.0865,0.0561,0.0926,0.0063,-0.0140,0.0061,-2.3533,1.3493,3.0847
2024-10-11T12:53:00.937Z,0.0275,-0.9693,0.2155,-0.1455,-0.0561,0.0324,0.0022,-0.0136,0.0063,-2.3540,1.3493,3.0849
2024-10-11T12:53:00.947Z,0.0298,-0.9649,0.2175,-0.1455,-0.0561,0.0324,0.0024,-0.0162,0.0059,-2.3540,1.3493,3.0849
2024-10-11T12:53:00.958Z,0.0254,-0.9641,0.2172,-0.1455,-0.0561,0.0324,0.0005,-0.0167,0.0082,-2.3540,1.3493,3.0849
2024-10-11T12:53:00.967Z,0.0238,-0.9640,0.2200,-0.1094,-0.1127,0.0028,0.0035,-0.0215,0.0063,-2.3550,1.3492,3.0850
2024-10-11T12:53:00.977Z,0.0248,-0.9635,0.2245,-0.1094,-0.1127,0.0028,0.0045,-0.0227,0.0071,-2.3550,1.3492,3.0850
2024-10-11T12:53:00.988Z,0.0221,-0.9664,0.2274,-0.1094,-0.1127,0.0028,0.0032,-0.0288,0.0069,-2.3550,1.3492,3.0850
2024-10-11T12:53:00.997Z,0.0210,-0.9684,0.2286,-0.0871,-0.0720,-0.0877,0.0032,-0.0304,0.0076,-2.3558,1.3492,3.0847
2024-10-11T12:53:01.008Z,0.0159,-0.9716,0.2274,-0.0871,-0.0720,-0.0877,0.0015,-0.0316,0.0047,-2.3558,1.3492,3.0847
2024-10-11T12:53:01.017Z,0.0152,-0.9737,0.2301,-0.0871,-0.0720,-0.0877,-0.0001,-0.0369,0.0035,-2.3558,1.3492,3.0847
2024-10-11T12:53:01.028Z,0.0186,-0.9749,0.2297,-0.0472,-0.0151,-0.1077,-0.0008,-0.0386,0.0018,-2.3558,1.3491,3.0834
2024-10-11T12:53:01.037Z,0.0170,-0.9776,0.2286,-0.0472,-0.0151,-0.1077,-0.0026,-0.0425,0.0036,-2.3558,1.3491,3.0834
2024-10-11T12:53:01.047Z,0.0205,-0.9783,0.2287,-0.0472,-0.0151,-0.1077,-0.0021,-0.0448,0.0021,-2.3558,1.3491,3.0834
2024-10-11T12:53:01.058Z,0.0229,-0.9826,0.2257,-0.0885,0.0438,-0.0750,-0.0025,-0.0462,0.0011,-2.3558,1.3492,3.0818
2024-10-11T12:53:01.067Z,0.0266,-0.9833,0.2200,-0.0885,0.0438,-0.0750,-0.0000,-0.0495,0.0029,-2.3558,1.3492,3.0818
2024-10-11T12:53:01.077Z,0.0224,-0.9841,0.2168,-0.0885,0.0438,-0.0750,-0.0017,-0.0509,0.0044,-2.3558,1.3492,3.0818
2024-10-11T12:53:01.087Z,0.0234,-0.9818,0.2149,-0.0812,0.0762,0.0440,-0.0009,-0.0527,0.0032,-2.3559,1.3491,3.0802
2024-10-11T12:53:01.097Z,0.0282,-0.9790,0.2116,-0.0812,0.0762,0.0440,-0.0026,-0.0522,0.0009,-2.3559,1.3491,3.0802
2024-10-11T12:53:01.107Z,0.0297,-0.9793,0.2105,-0.0812,0.0762,0.0440,0.0015,-0.0554,0.0039,-2.3559,1.3491,3.0802
2024-10-11T12:53:01.117Z,0.0311,-0.9799,0.2117,-0.1584,0.0353,0.0894,0.0021,-0.0584,0.0027,-2.3563,1.3490,3.0787
2024-10-11T12:53:01.127Z,0.0299,-0.9779,0.2136,-0.1584,0.0353,0.0894,0.0058,-0.0642,0.0067,-2.3563,1.3490,3.0787
2024-10-11T12:53:01.137Z,0.0279,-0.9774,0.2116,-0.1584,0.0353,0.0894,0.0016,-0.0655,0.0052,-2.3563,1.3490,3.0787
2024-10-11T12:53:01.147Z,0.0279,-0.9757,0.2128,-0.1436,0.0114,0.0784,0.0029,-0.0651,0.0056,-2.3573,1.3490,3.0775
2024-10-11T12:53:01.157Z,0.0245,-0.9717,0.2134,-0.1436,0.0114,0.0784,0.0053,-0.0647,0.0071,-2.3573,1.3490,3.0775
2024-10-11T12:53:01.167Z,0.0207,-0.9697,0.2141,-0.1436,0.0114,0.0784,0.0055,-0.0587,0.0093,-2.3573,1.3490,3.0775
2024-10-11T12:53:01.177Z,0.0176,-0.9683,0.2136,-0.0452,-0.0648,0.0567,0.0060,-0.0542,0.0070,-2.3586,1.3488,3.0768
2024-10-11T12:53:01.187Z,0.0132,-0.9668,0.2136,-0.0452,-0.0648,0.0567,0.0068,-0.0531,0.0111,-2.3586,1.3488,3.0768
2024-10-11T12:53:01.197Z,0.0111,-0.9657,0.2120,-0.0452,-0.0648,0.0567,0.0077,-0.0458,0.0111,-2.3586,1.3488,3.0768
2024-10-11T12:53:01.207Z,0.0081,-0.9673,0.2121,0.0411,-0.0765,0.0806,0.0090,-0.0412,0.0114,-2.3603,1.3486,3.0767
2024-10-11T12:53:01.217Z,0.0040,-0.9666,0.2140,0.0411,-0.0765,0.0806,0.0099,-0.0405,0.0122,-2.3603,1.3486,3.0767
2024-10-11T12:53:01.227Z,0.0030,-0.9676,0.2163,0.0411,-0.0765,0.0806,0.0131,-0.0342,0.0133,-2.3603,1.3486,3.0767
2024-10-11T12:53:01.237Z,0.0003,-0.9662,0.2183,0.1301,-0.0842,0.0172,0.0120,-0.0280,0.0127,-2.3623,1.3483,3.0774
2024-10-11T12:53:01.248Z,-0.0025,-0.9659,0.2172,0.1301,-0.0842,0.0172,0.0094,-0.0206,0.0140,-2.3623,1.3483,3.0774
2024-10-11T12:53:01.257Z,-0.0040,-0.9669,0.2170,0.1301,-0.0842,0.0172,0.0089,-0.0144,0.0127,-2.3623,1.3483,3.0774
2024-10-11T12:53:01.267Z,-0.0050,-0.9696,0.2175,0.1817,-0.0692,0.0321,0.0104,-0.0104,0.0126,-2.3644,1.3480,3.0787
2024-10-11T12:53:01.277Z,-0.0036,-0.9680,0.2167,0.1817,-0.0692,0.0321,0.0112,-0.0051,0.0135,-2.3644,1.3480,3.0787
2024-10-11T12:53:01.287Z,-0.0147,-0.9678,0.2175,0.1817,-0.0692,0.0321,0.0119,-0.0013,0.0113,-2.3644,1.3480,3.0787
2024-10-11T12:53:01.297Z,-0.0138,-0.9649,0.2146,0.2780,-0.0916,0.0553,0.0144,0.0024,0.0123,-2.3665,1.3477,3.0804
2024-10-11T12:53:01.307Z,-0.0171,-0.9653,0.2138,0.2780,-0.0916,0.0553,0.0175,0.0081,0.0101,-2.3665,1.3477,3.0804
2024-10-11T12:53:01.317Z,-0.0154,-0.9651,0.2120,0.2780,-0.0916,0.0553,0.0155,0.0123,0.0080,-2.3665,1.3477,3.0804
2024-10-11T12:53:01.328Z,-0.0148,-0.9655,0.2133,0.2670,-0.1042,0.0825,0.0188,0.0155,0.0043,-2.3681,1.3472,3.0820
2024-10-11T12:53:01.337Z,-0.0135,-0.9663,0.2151,0.2670,-0.1042,0.0825,0.0234,0.0178,0.0032,-2.3681,1.3472,3.0820
2024-10-11T12:53:01.347Z,-0.0096,-0.9678,0.2155,0.2670,-0.1042,0.0825,0.0228,0.0219,0.0009,-2.3681,1.3472,3.0820
2024-10-11T12:53:01.357Z,-0.0089,-0.9708,0.2205,0.2142,-0.0544,0.0357,0.0228,0.0213,0.0046,-2.3693,1.3466,3.0836
2024-10-11T12:53:01.367Z,-0.0054,-0.9739,0.2194,0.2142,-0.0544,0.0357,0.0242,0.0243,-0.0003,-2.3693,1.3466,3.0836
2024-10-11T12:53:01.377Z,-0.0044,-0.9771,0.2227,0.2142,-0.0544,0.0357,0.0250,0.0263,-0.0013,-2.3693,1.3466,3.0836
2024-10-11T12:53:01.387Z,-0.0025,-0.9836,0.2250,0.1544,0.0629,-0.0218,0.0247,0.0282,0.0017,-2.3704,1.3459,3.0853
2024-10-11T12:53:01.397Z,-0.0050,-0.9865,0.2245,0.1544,0.0629,-0.0218,0.0257,0.0296,0.0003,-2.3704,1.3459,3.0853
2024-10-11T12:53:01.407Z,-0.0031,-0.9869,0.2256,0.1544,0.0629,-0.0218,0.0273,0.0325,-0.0019,-2.3704,1.3459,3.0853
2024-10-11T12:53:01.417Z,-0.0004,-0.9870,0.2275,0.1233,0.1304,-0.0342,0.0263,0.0328,-0.0021,-2.3714,1.3452,3.0870
2024-10-11T12:53:01.428Z,0.0033,-0.9853,0.2321,0.1233,0.1304,-0.0342,0.0222,0.0361,-0.0002,-2.3714,1.3452,3.0870
2024-10-11T12:53:01.437Z,0.0060,-0.9835,0.2326,0.1233,0.1304,-0.0342,0.0214,0.0367,0.0004,-2.3714,1.3452,3.0870
2024-10-11T12:53:01.447Z,-0.0006,-0.9837,0.2292,0.1023,0.0888,-0.0596,0.0220,0.0381,0.0014,-2.3724,1.3445,3.0888
2024-10-11T12:53:01.457Z,0.0010,-0.9817,0.2286,0.1023,0.0888,-0.0596,0.0193,0.0375,0.0002,-2.3724,1.3445,3.0888
2024-10-11T12:53:01.466Z,0.0035,-0.9805,0.2281,0.1023,0.0888,-0.0596,0.0168,0.0383,-0.0012,-2.3724,1.3445,3.0888
2024-10-11T12:53:01.477Z,0.0055,-0.9790,0.2297,0.0689,0.0519,-0.0395,0.0166,0.0373,0.0028,-2.3731,1.3440,3.0904
2024-10-11T12:53:01.487Z,0.0063,-0.9770,0.2269,0.0689,0.0519,-0.0395,0.0150,0.0405,0.0017,-2.3731,1.3440,3.0904
2024-10-11T12:53:01.497Z,0.0068,-0.9760,0.2257,0.0689,0.0519,-0.0395,0.0166,0.0396,0.0032,-2.3731,1.3440,3.0904
2024-10-11T12:53:01.507Z,0.0032,-0.9745,0.2228,0.0553,0.0082,0.0137,0.0155,0.0393,-0.0007,-2.3737,1.3435,3.0920
2024-10-11T12:53:01.517Z,0.0027,-0.9738,0.2227,0.0553,0.0082,0.0137,0.0156,0.0399,0.0005,-2.3737,1.3435,3.0920
2024-10-11T12:53:01.527Z,0.0094,-0.9698,0.2242,0.0553,0.0082,0.0137,0.0160,0.0399,0.0027,-2.3737,1.3435,3.0920
2024-10-11T12:53:01.537Z,0.0067,-0.9690,0.2261,0.0303,-0.0483,-0.0019,0.0143,0.0431,0.0022,-2.3743,1.3430,3.0937
2024-10-11T12:53:01.547Z,0.0093,-0.9663,0.2237,0.0303,-0.0483,-0.0019,0.0147,0.0416,0.0016,-2.3743,1.3430,3.0937
2024-10-11T12:53:01.557Z,0.0085,-0.9662,0.2219,0.0303,-0.0483,-0.0019,0.0133,0.0445,0.0010,-2.3743,1.3430,3.0937
2024-10-11T12:53:01.567Z,0.0072,-0.9657,0.2196,0.0395,-0.0779,0.0513,0.0154,0.0435,0.0047,-2.3751,1.3426,3.0954
2024-10-11T12:53:01.577Z,0.0043,-0.9671,0.2220,0.0395,-0.0779,0.0513,0.0133,0.0444,0.0056,-2.3751,1.3426,3.0954
2024-10-11T12:53:01.587Z,0.0036,-0.9688,0.2231,0.0395,-0.0779,0.0513,0.0153,0.0444,0.0035,-2.3751,1.3426,3.0954
2024-10-11T12:53:01.597Z,0.0024,-0.9713,0.2264,0.0556,-0.0318,0.0175,0.0163,0.0458,0.0044,-2.3761,1.3421,3.0975
2024-10-11T12:53:01.607Z,-0.0016,-0.9745,0.2271,0.0556,-0.0318,0.0175,0.0149,0.0474,0.0030,-2.3761,1.3421,3.0975
2024-10-11T12:53:01.617Z,-0.0003,-0.9765,0.2286,0.0556,-0.0318,0.0175,0.0166,0.0446,0.0037,-2.3761,1.3421,3.0975
2024-10-11T12:53:01.627Z,-0.0011,-0.9826,0.2300,0.1025,0.0608,-0.0325,0.0139,0.0458,0.0022,-2.3768,1.3417,3.0993
2024-10-11T12:53:01.637Z,0.0005,-0.9858,0.2314,0.1025,0.0608,-0.0325,0.0135,0.0476,0.0007,-2.3768,1.3417,3.0993
2024-10-11T12:53:01.647Z,0.0024,-0.9879,0.2319,0.1025,0.0608,-0.0325,0.0140,0.0441,-0.0008,-2.3768,1.3417,3.0993
2024-10-11T12:53:01.657Z,0.0008,-0.9870,0.2315,0.0845,0.1408,-0.0445,0.0121,0.0452,-0.0024,-2.3771,1.3413,3.1007
2024-10-11T12:53:01.667Z,0.0028,-0.9868,0.2318,0.0845,0.1408,-0.0445,0.0124,0.0445,-0.0033,-2.3771,1.3413,3.1007
2024-10-11T12:53:01.678Z,0.0000,-0.9844,0.2356,0.0845,0.1408,-0.0445,0.0085,0.0378,-0.0008,-2.3771,1.3413,3.1007
2024-10-11T12:53:01.688Z,0.0033,-0.9822,0.2379,0.0767,0.0925,-0.0929,0.0069,0.0374,-0.0046,-2.3772,1.3411,3.1017
2024-10-11T12:53:01.697Z,0.0051,-0.9799,0.2402,0.0767,0.0925,-0.0929,0.0056,0.0374,-0.0058,-2.3772,1.3411,3.1017
2024-10-11T12:53:01.707Z,0.0037,-0.9776,0.2404,0.0767,0.0925,-0.0929,0.0049,0.0320,-0.0067,-2.3772,1.3411,3.1017
2024-10-11T12:53:01.717Z,0.0073,-0.9767,0.2400,0.0204,0.0353,-0.1270,0.0025,0.0329,-0.0079,-2.3766,1.3409,3.1020
2024-10-11T12:53:01.727Z,0.0089,-0.9752,0.2407,0.0204,0.0353,-0.1270,-0.0008,0.0336,-0.0095,-2.3766,1.3409,3.1020
2024-10-11T12:53:01.737Z,0.0106,-0.9732,0.2425,0.0204,0.0353,-0.1270,-0.0004,0.0319,-0.0084,-2.3766,1.3409,3.1020
2024-10-11T12:53:01.747Z,0.0124,-0.9734,0.2404,-0.0261,-0.0051,-0.1362,-0.0032,0.0286,-0.0076,-2.3758,1.3409,3.1018
2024-10-11T12:53:01.757Z,0.0118,-0.9716,0.2369,-0.0261,-0.0051,-0.1362,-0.0019,0.0277,-0.0081,-2.3758,1.3409,3.1018
2024-10-11T12:53:01.767Z,0.0128,-0.9727,0.2360,-0.0261,-0.0051,-0.1362,-0.0034,0.0239,-0.0100,-2.3758,1.3409,3.1018
2024-10-11T12:53:01.777Z,0.0126,-0.9738,0.2341,-0.0324,-0.0070,-0.0745,-0.0036,0.0230,-0.0074,-2.3749,1.3410,3.1015
2024-10-11T12:53:01.787Z,0.0141,-0.9748,0.2322,-0.0324,-0.0070,-0.0745,-0.0068,0.0249,-0.0099,-2.3749,1.3410,3.1015
2024-10-11T12:53:01.797Z,0.0161,-0.9745,0.2291,-0.0324,-0.0070,-0.0745,-0.0043,0.0241,-0.0093,-2.3749,1.3410,3.1015
2024-10-11T12:53:01.807Z,0.0189,-0.9749,0.2295,-0.0888,0.0058,-0.0170,-0.0074,0.0253,-0.0047,-2.3740,1.3411,3.1011
2024-10-11T12:53:01.817Z,0.0187,-0.9735,0.2297,-0.0888,0.0058,-0.0170,-0.0050,0.0259,-0.0060,-2.3740,1.3411,3.1011
2024-10-11T12:53:01.827Z,0.0198,-0.9712,0.2314,-0.0888,0.0058,-0.0170,-0.0065,0.0292,-0.0075,-2.3740,1.3411,3.1011
2024-10-11T12:53:01.837Z,0.0179,-0.9720,0.2317,-0.0909,-0.0185,-0.0411,-0.0078,0.0292,-0.0079,-2.3731,1.3411,3.1008
2024-10-11T12:53:01.847Z,0.0178,-0.9712,0.2339,-0.0909,-0.0185,-0.0411,-0.0073,0.0337,-0.0098,-2.3731,1.3411,3.1008
2024-10-11T12:53:01.857Z,0.0220,-0.9720,0.2350,-0.0909,-0.0185,-0.0411,-0.0067,0.0294,-0.0061,-2.3731,1.3411,3.1008
2024-10-11T12:53:01.867Z,0.0208,-0.9728,0.2375,-0.1138,-0.0156,-0.0855,-0.0064,0.0281,-0.0077,-2.3721,1.3413,3.1005
2024-10-11T12:53:01.878Z,0.0216,-0.9729,0.2373,-0.1138,-0.0156,-0.0855,-0.0081,0.0259,-0.0043,-2.3721,1.3413,3.1005
2024-10-11T12:53:01.887Z,0.0200,-0.9750,0.2378,-0.1138,-0.0156,-0.0855,-0.0081,0.0263,-0.0067,-2.3721,1.3413,3.1005
2024-10-11T12:53:01.897Z,0.0213,-0.9759,0.2353,-0.1227,0.0181,-0.0873,-0.0087,0.0235,-0.0082,-2.3710,1.3414,3.0998
2024-10-11T12:53:01.908Z,0.0178,-0.9762,0.2320,-0.1227,0.0181,-0.0873,-0.0096,0.0204,-0.0059,-2.3710,1.3414,3.0998
2024-10-11T12:53:01.917Z,0.0188,-0.9776,0.2309,-0.1227,0.0181,-0.0873,-0.0062,0.0177,-0.0045,-2.3710,1.3414,3.0998
2024-10-11T12:53:01.927Z,0.0175,-0.9773,0.2302,-0.0854,0.0340,-0.0316,-0.0098,0.0171,-0.0059,-2.3691,1.3415,3.0983
2024-10-11T12:53:01.937Z,0.0172,-0.9748,0.2290,-0.0854,0.0340,-0.0316,-0.0084,0.0175,-0.0088,-2.3691,1.3415,3.0983
2024-10-11T12:53:01.947Z,0.0159,-0.9727,0.2304,-0.0854,0.0340,-0.0316,-0.0088,0.0195,-0.0066,-2.3691,1.3415,3.0983
2024-10-11T12:53:01.957Z,0.0168,-0.9740,0.2303,-0.0538,-0.0010,-0.0289,-0.0074,0.0171,-0.0089,-2.3668,1.3414,3.0962
2024-10-11T12:53:01.967Z,0.0175,-0.9727,0.2299,-0.0538,-0.0010,-0.0289,-0.0101,0.0124,-0.0061,-2.3668,1.3414,3.0962
2024-10-11T12:53:01.977Z,0.0143,-0.9707,0.2312,-0.0538,-0.0010,-0.0289,-0.0097,0.0114,-0.0080,-2.3668,1.3414,3.0962
2024-10-11T12:53:01.987Z,0.0147,-0.9722,0.2305,-0.0373,-0.0229,-0.0381,-0.0071,0.0096,-0.0061,-2.3644,1.3413,3.0939
2024-10-11T12:53:01.997Z,0.0145,-0.9722,0.2305,-0.0373,-0.0229,-0.0381,-0.0112,0.0098,-0.0067,-2.3644,1.3413,3.0939
2024-10-11T12:53:02.007Z,0.0188,-0.9717,0.2297,-0.0373,-0.0229,-0.0381,-0.0050,0.0085,-0.0038,-2.3644,1.3413,3.0939
2024-10-11T12:53:02.017Z,0.0176,-0.9718,0.2294,-0.0790,-0.0187,-0.0211,-0.0066,0.0085,-0.0045,-2.3626,1.3415,3.0921
2024-10-11T12:53:02.027Z,0.0169,-0.9725,0.2302,-0.0790,-0.0187,-0.0211,-0.0081,0.0093,-0.0060,-2.3626,1.3415,3.0921
2024-10-11T12:53:02.037Z,0.0166,-0.9757,0.2320,-0.0790,-0.0187,-0.0211,-0.0067,0.0086,-0.0061,-2.3626,1.3415,3.0921
2024-10-11T12:53:02.046Z,0.0147,-0.9765,0.2316,-0.0251,0.0318,-0.0409,-0.0061,0.0097,-0.0050,-2.3606,1.3414,3.0902
2024-10-11T12:53:02.057Z,0.0153,-0.9771,0.2309,-0.0251,0.0318,-0.0409,-0.0048,0.0119,-0.0058,-2.3606,1.3414,3.0902
2024-10-11T12:53:02.067Z,0.0175,-0.9780,0.2311,-0.0251,0.0318,-0.0409,-0.0088,0.0158,-0.0029,-2.3606,1.3414,3.0902
2024-10-11T12:53:02.077Z,0.0198,-0.9792,0.2343,-0.0760,0.0486,-0.0620,-0.0061,0.0139,-0.0011,-2.3595,1.3414,3.0892
2024-10-11T12:53:02.087Z,0.0187,-0.9791,0.2366,-0.0760,0.0486,-0.0620,-0.0074,0.0149,-0.0007,-2.3595,1.3414,3.0892
2024-10-11T12:53:02.096Z,0.0150,-0.9793,0.2381,-0.0760,0.0486,-0.0620,-0.0111,0.0168,0.0013,-2.3595,1.3414,3.0892
2024-10-11T12:53:02.107Z,0.0143,-0.9784,0.2367,-0.0300,0.0453,-0.1008,-0.0102,0.0155,0.0005,-2.3590,1.3416,3.0889
2024-10-11T12:53:02.117Z,0.0102,-0.9784,0.2372,-0.0300,0.0453,-0.1008,-0.0140,0.0182,0.0021,-2.3590,1.3416,3.0889
2024-10-11T12:53:02.128Z,0.0110,-0.9768,0.2383,-0.0300,0.0453,-0.1008,-0.0177,0.0169,0.0037,-2.3590,1.3416,3.0889
2024-10-11T12:53:02.137Z,0.0118,-0.9770,0.2382,0.0032,0.0227,-0.1050,-0.0147,0.0236,0.0008,-2.3591,1.3420,3.0892
2024-10-11T12:53:02.146Z,0.0094,-0.9766,0.2370,0.0032,0.0227,-0.1050,-0.0176,0.0227,0.0027,-2.3591,1.3420,3.0892
2024-10-11T12:53:02.157Z,0.0078,-0.9774,0.2363,0.0032,0.0227,-0.1050,-0.0171,0.0241,0.0018,-2.3591,1.3420,3.0892
2024-10-11T12:53:02.167Z,0.0089,-0.9765,0.2322,0.0257,0.0243,-0.0762,-0.0166,0.0248,0.0008,-2.3588,1.3424,3.0894
2024-10-11T12:53:02.177Z,0.0077,-0.9767,0.2274,0.0257,0.0243,-0.0762,-0.0182,0.0269,0.0041,-2.3588,1.3424,3.0894
2024-10-11T12:53:02.187Z,0.0066,-0.9735,0.2256,0.0257,0.0243,-0.0762,-0.0184,0.0239,0.0043,-2.3588,1.3424,3.0894
2024-10-11T12:53:02.197Z,0.0059,-0.9741,0.2244,0.0535,-0.0058,0.0060,-0.0185,0.0243,0.0031,-2.3590,1.3428,3.0901
2024-10-11T12:53:02.207Z,0.0020,-0.9725,0.2230,0.0535,-0.0058,0.0060,-0.0230,0.0239,0.0016,-2.3590,1.3428,3.0901
2024-10-11T12:53:02.217Z,-0.0011,-0.9731,0.2211,0.0535,-0.0058,0.0060,-0.0214,0.0263,-0.0006,-2.3590,1.3428,3.0901
2024-10-11T12:53:02.227Z,-0.0035,-0.9707,0.2194,0.1365,-0.0290,0.0454,-0.0192,0.0266,-0.0005,-2.3591,1.3434,3.0908
2024-10-11T12:53:02.237Z,-0.0052,-0.9700,0.2192,0.1365,-0.0290,0.0454,-0.0209,0.0251,-0.0018,-2.3591,1.3434,3.0908
2024-10-11T12:53:02.247Z,-0.0068,-0.9695,0.2166,0.1365,-0.0290,0.0454,-0.0180,0.0260,-0.0044,-2.3591,1.3434,3.0908
2024-10-11T12:53:02.257Z,-0.0077,-0.9694,0.2151,0.1838,-0.0520,0.0898,-0.0194,0.0266,-0.0079,-2.3587,1.3439,3.0909
2024-10-11T12:53:02.267Z,-0.0059,-0.9687,0.2151,0.1838,-0.0520,0.0898,-0.0165,0.0251,-0.0075,-2.3587,1.3439,3.0909
2024-10-11T12:53:02.277Z,-0.0061,-0.9691,0.2164,0.1838,-0.0520,0.0898,-0.0163,0.0239,-0.0071,-2.3587,1.3439,3.0909
2024-10-11T12:53:02.287Z,-0.0030,-0.9682,0.2180,0.1479,-0.0515,0.0695,-0.0165,0.0237,-0.0107,-2.3575,1.3444,3.0903
2024-10-11T12:53:02.297Z,-0.0037,-0.9688,0.2183,0.1479,-0.0515,0.0695,-0.0147,0.0204,-0.0121,-2.3575,1.3444,3.0903
2024-10-11T12:53:02.307Z,-0.0033,-0.9695,0.2176,0.1479,-0.0515,0.0695,-0.0113,0.0184,-0.0107,-2.3575,1.3444,3.0903
2024-10-11T12:53:02.317Z,-0.0057,-0.9683,0.2198,0.1707,-0.0546,0.0466,-0.0129,0.0190,-0.0180,-2.3561,1.3447,3.0892
2024-10-11T12:53:02.328Z,-0.0040,-0.9683,0.2209,0.1707,-0.0546,0.0466,-0.0138,0.0218,-0.0168,-2.3561,1.3447,3.0892
2024-10-11T12:53:02.337Z,-0.0028,-0.9676,0.2199,0.1707,-0.0546,0.0466,-0.0094,0.0210,-0.0174,-2.3561,1.3447,3.0892
2024-10-11T12:53:02.347Z,-0.0008,-0.9683,0.2231,0.1372,-0.0593,0.0198,-0.0104,0.0239,-0.0175,-2.3546,1.3451,3.0882
2024-10-11T12:53:02.357Z,0.0016,-0.9680,0.2243,0.1372,-0.0593,0.0198,-0.0118,0.0263,-0.0197,-2.3546,1.3451,3.0882
2024-10-11T12:53:02.367Z,0.0021,-0.9683,0.2226,0.1372,-0.0593,0.0198,-0.0101,0.0281,-0.0181,-2.3546,1.3451,3.0882
2024-10-11T12:53:02.377Z,0.0030,-0.9694,0.2232,0.0931,-0.0555,-0.0005,-0.0111,0.0326,-0.0181,-2.3544,1.3456,3.0888
2024-10-11T12:53:02.387Z,0.0042,-0.9714,0.2240,0.0931,-0.0555,-0.0005,-0.0124,0.0328,-0.0185,-2.3544,1.3456,3.0888
2024-10-11T12:53:02.397Z,0.0061,-0.9725,0.2239,0.0931,-0.0555,-0.0005,-0.0116,0.0337,-0.0180,-2.3544,1.3456,3.0888
2024-10-11T12:53:02.407Z,0.0078,-0.9737,0.2259,0.0406,-0.0242,-0.0302,-0.0118,0.0354,-0.0191,-2.3528,1.3459,3.0880
2024-10-11T12:53:02.417Z,0.0052,-0.9771,0.2259,0.0406,-0.0242,-0.0302,-0.0102,0.0363,-0.0185,-2.3528,1.3459,3.0880
2024-10-11T12:53:02.427Z,0.0018,-0.9789,0.2222,0.0406,-0.0242,-0.0302,-0.0090,0.0355,-0.0192,-2.3528,1.3459,3.0880
2024-10-11T12:53:02.437Z,0.0036,-0.9799,0.2225,0.0868,0.0401,-0.0013,-0.0071,0.0368,-0.0207,-2.3509,1.3461,3.0870
2024-10-11T12:53:02.447Z,0.0054,-0.9822,0.2257,0.0868,0.0401,-0.0013,-0.0088,0.0358,-0.0183,-2.3509,1.3461,3.0870
2024-10-11T12:53:02.457Z,0.0036,-0.9838,0.2251,0.0868,0.0401,-0.0013,-0.0083,0.0344,-0.0195,-2.3509,1.3461,3.0870
2024-10-11T12:53:02.467Z,0.0059,-0.9830,0.2228,0.0737,0.0737,-0.0045,-0.0086,0.0361,-0.0192,-2.3487,1.3463,3.0857
2024-10-11T12:53:02.477Z,0.0050,-0.9821,0.2258,0.0737,0.0737,-0.0045,-0.0092,0.0373,-0.0195,-2.3487,1.3463,3.0857
2024-10-11T12:53:02.487Z,0.0073,-0.9835,0.2251,0.0737,0.0737,-0.0045,-0.0096,0.0340,-0.0184,-2.3487,1.3463,3.0857
2024-10-11T12:53:02.497Z,0.0110,-0.9825,0.2243,0.0155,0.0743,-0.0227,-0.0113,0.0363,-0.0182,-2.3463,1.3465,3.0842
2024-10-11T12:53:02.508Z,0.0087,-0.9842,0.2242,0.0155,0.0743,-0.0227,-0.0113,0.0355,-0.0194,-2.3463,1.3465,3.0842
2024-10-11T12:53:02.517Z,0.0123,-0.9828,0.2255,0.0155,0.0743,-0.0227,-0.0113,0.0355,-0.0194,-2.3463,1.3465,3.0842
2024-10-11T12:53:02.528Z,0.0139,-0.9798,0.2236,-0.0057,0.0592,-0.0239,-0.0120,0.0372,-0.0195,-2.3441,1.3468,3.0828
2024-10-11T12:53:02.538Z,0.0128,-0.9764,0.2247,-0.0057,0.0592,-0.0239,-0.0103,0.0364,-0.0178,-2.3441,1.3468,3.0828
2024-10-11T12:53:02.548Z,0.0129,-0.9762,0.2250,-0.0057,0.0592,-0.0239,-0.0103,0.0364,-0.0178,-2.3441,1.3468,3.0828
2024-10-11T12:53:02.557Z,0.0130,-0.9733,0.2236,0.0007,-0.0024,-0.0367,-0.0142,0.0371,-0.0208,-2.3422,1.3471,3.0818
2024-10-11T12:53:02.568Z,0.0141,-0.9720,0.2212,0.0007,-0.0024,-0.0367,-0.0128,0.0375,-0.0168,-2.3422,1.3471,3.0818
2024-10-11T12:53:02.579Z,0.0185,-0.9698,0.2231,-0.0571,-0.0583,-0.0218,-0.0128,0.0375,-0.0168,-2.3402,1.3474,3.0808
2024-10-11T12:53:02.588Z,0.0186,-0.9686,0.2237,-0.0571,-0.0583,-0.0218,-0.0102,0.0385,-0.0174,-2.3402,1.3474,3.0808
2024-10-11T12:53:02.598Z,0.0143,-0.9675,0.2231,-0.0571,-0.0583,-0.0218,-0.0109,0.0380,-0.0144,-2.3402,1.3474,3.0808
2024-10-11T12:53:02.608Z,0.0169,-0.9656,0.2221,-0.0571,-0.0583,-0.0218,-0.0143,0.0403,-0.0150,-2.3402,1.3474,3.0808
2024-10-11T12:53:02.618Z,0.0175,-0.9676,0.2214,-0.0354,-0.0696,-0.0069,-0.0129,0.0382,-0.0141,-2.3382,1.3477,3.0797
2024-10-11T12:53:02.627Z,0.0160,-0.9671,0.2212,-0.0354,-0.0696,-0.0069,-0.0129,0.0382,-0.0141,-2.3382,1.3477,3.0797
2024-10-11T12:53:02.638Z,0.0144,-0.9689,0.2184,-0.0354,-0.0696,-0.0069,-0.0114,0.0391,-0.0158,-2.3382,1.3477,3.0797
2024-10-11T12:53:02.646Z,0.0162,-0.9681,0.2184,-0.0150,-0.0633,0.0261,-0.0114,0.0391,-0.0158,-2.3362,1.3480,3.0786
2024-10-11T12:53:02.658Z,0.0214,-0.9712,0.2189,-0.0150,-0.0633,0.0261,-0.0138,0.0398,-0.0138,-2.3362,1.3480,3.0786
2024-10-11T12:53:02.668Z,0.0227,-0.9718,0.2192,-0.0150,-0.0633,0.0261,-0.0132,0.0378,-0.0131,-2.3362,1.3480,3.0786
2024-10-11T12:53:02.678Z,0.0205,-0.9735,0.2183,-0.0666,-0.0247,0.0131,-0.0132,0.0378,-0.0131,-2.3342,1.3483,3.0776
2024-10-11T12:53:02.688Z,0.0193,-0.9736,0.2181,-0.0666,-0.0247,0.0131,-0.0104,0.0423,-0.0149,-2.3342,1.3483,3.0776
2024-10-11T12:53:02.696Z,0.0214,-0.9746,0.2177,-0.0666,-0.0247,0.0131,-0.0104,0.0423,-0.0149,-2.3342,1.3483,3.0776
2024-10-11T12:53:02.707Z,0.0223,-0.9767,0.2152,-0.0874,0.0027,0.0315,-0.0102,0.0417,-0.0125,-2.3322,1.3485,3.0766
2024-10-11T12:53:02.718Z,0.0211,-0.9761,0.2183,-0.0874,0.0027,0.0315,-0.0090,0.0408,-0.0117,-2.3322,1.3485,3.0766
2024-10-11T12:53:02.730Z,0.0232,-0.9751,0.2176,-0.0882,-0.0024,0.0422,-0.0089,0.0414,-0.0109,-2.3303,1.3488,3.0757
2024-10-11T12:53:02.737Z,0.0232,-0.9752,0.2142,-0.0882,-0.0024,0.0422,-0.0067,0.0406,-0.0104,-2.3303,1.3488,3.0757
2024-10-11T12:53:02.748Z,0.0250,-0.9743,0.2130,-0.0882,-0.0024,0.0422,-0.0049,0.0376,-0.0083,-2.3303,1.3488,3.0757
2024-10-11T12:53:02.759Z,0.0264,-0.9737,0.2130,-0.1279,-0.0254,0.0684,-0.0049,0.0376,-0.0083,-2.3286,1.3489,3.0749
2024-10-11T12:53:02.767Z,0.0287,-0.9720,0.2126,-0.1279,-0.0254,0.0684,-0.0051,0.0371,-0.0098,-2.3286,1.3489,3.0749
2024-10-11T12:53:02.780Z,0.0316,-0.9705,0.2134,-0.1279,-0.0254,0.0684,-0.0033,0.0396,-0.0074,-2.3286,1.3489,3.0749
2024-10-11T12:53:02.788Z,0.0328,-0.9713,0.2151,-0.1279,-0.0254,0.0684,0.0011,0.0376,-0.0067,-2.3286,1.3489,3.0749
2024-10-11T12:53:02.798Z,0.0301,-0.9709,0.2164,-0.1590,-0.0401,0.0321,0.0006,0.0394,-0.0036,-2.3274,1.3490,3.0747
2024-10-11T12:53:02.807Z,0.0325,-0.9682,0.2154,-0.1590,-0.0401,0.0321,0.0006,0.0394,-0.0029,-2.3274,1.3490,3.0747
2024-10-11T12:53:02.817Z,0.0310,-0.9669,0.2149,-0.1590,-0.0401,0.0321,0.0003,0.0377,-0.0014,-2.3274,1.3490,3.0747
2024-10-11T12:53:02.827Z,0.0299,-0.9678,0.2151,-0.1610,-0.0764,0.0450,0.0025,0.0373,-0.0004,-2.3268,1.3490,3.0750
2024-10-11T12:53:02.836Z,0.0293,-0.9675,0.2169,-0.1610,-0.0764,0.0450,0.0025,0.0373,-0.0004,-2.3268,1.3490,3.0750
2024-10-11T12:53:02.848Z,0.0287,-0.9686,0.2197,-0.1610,-0.0764,0.0450,0.0035,0.0341,0.0016,-2.3268,1.3490,3.0750
2024-10-11T12:53:02.857Z,0.0313,-0.9698,0.2188,-0.1478,-0.0628,0.0050,0.0054,0.0308,0.0044,-2.3264,1.3490,3.0753
2024-10-11T12:53:02.867Z,0.0276,-0.9712,0.2185,-0.1478,-0.0628,0.0050,0.0023,0.0292,0.0037,-2.3264,1.3490,3.0753
2024-10-11T12:53:02.880Z,0.0287,-0.9707,0.2189,-0.1406,-0.0402,0.0127,0.0047,0.0289,0.0045,-2.3253,1.3490,3.0748
2024-10-11T12:53:02.887Z,0.0274,-0.9704,0.2184,-0.1406,-0.0402,0.0127,0.0014,0.0277,0.0055,-2.3253,1.3490,3.0748
2024-10-11T12:53:02.898Z,0.0238,-0.9713,0.2180,-0.1406,-0.0402,0.0127,0.0021,0.0229,0.0055,-2.3253,1.3490,3.0748
2024-10-11T12:53:02.908Z,0.0249,-0.9734,0.2181,-0.0870,-0.0075,0.0142,0.0017,0.0208,0.0055,-2.3233,1.3489,3.0733
2024-10-11T12:53:02.917Z,0.0237,-0.9754,0.2175,-0.0870,-0.0075,0.0142,0.0038,0.0203,0.0043,-2.3233,1.3489,3.0733
2024-10-11T12:53:02.928Z,0.0226,-0.9822,0.2223,-0.0870,-0.0075,0.0142,0.0069,0.0169,0.0041,-2.3233,1.3489,3.0733
2024-10-11T12:53:02.938Z,0.0228,-1.0053,0.2208,-0.0870,-0.0075,0.0142,0.0063,0.0139,0.0061,-2.3233,1.3489,3.0733
2024-10-11T12:53:02.947Z,0.0259,-1.0208,0.2215,-0.0997,0.3888,-0.0114,0.0085,0.0153,0.0068,-2.3235,1.3488,3.0736
2024-10-11T12:53:02.957Z,0.0233,-1.0157,0.2157,-0.0997,0.3888,-0.0114,0.0058,0.0092,0.0071,-2.3235,1.3488,3.0736
2024-10-11T12:53:02.968Z,0.0223,-1.0101,0.2239,-0.0737,0.2947,-0.0333,0.0023,0.0093,0.0081,-2.3242,1.3486,3.0745
2024-10-11T12:53:02.978Z,0.0246,-1.0044,0.2267,-0.0737,0.2947,-0.0333,0.0023,0.0093,0.0081,-2.3242,1.3486,3.0745
2024-10-11T12:53:02.988Z,0.0286,-0.9963,0.2228,-0.0737,0.2947,-0.0333,-0.0023,0.0063,0.0111,-2.3242,1.3486,3.0745
2024-10-11T12:53:02.997Z,0.0218,-0.9832,0.2255,-0.0737,0.2947,-0.0333,-0.0033,0.0050,0.0119,-2.3242,1.3486,3.0745
2024-10-11T12:53:03.007Z,0.0278,-0.9782,0.2275,-0.1040,0.0503,-0.0616,-0.0092,0.0021,0.0142,-2.3255,1.3487,3.0757
2024-10-11T12:53:03.017Z,0.0269,-0.9747,0.2385,-0.1040,0.0503,-0.0616,-0.0116,0.0022,0.0114,-2.3255,1.3487,3.0757
2024-10-11T12:53:03.029Z,0.0249,-0.9729,0.2474,-0.0892,-0.0135,-0.2749,-0.0155,-0.0009,0.0146,-2.3271,1.3490,3.0770
2024-10-11T12:53:03.037Z,0.0232,-0.9733,0.2443,-0.0892,-0.0135,-0.2749,-0.0162,-0.0012,0.0159,-2.3271,1.3490,3.0770
2024-10-11T12:53:03.047Z,0.0215,-0.9731,0.2377,-0.0892,-0.0135,-0.2749,-0.0185,-0.0015,0.0152,-2.3271,1.3490,3.0770
2024-10-11T12:53:03.059Z,0.0210,-0.9838,0.2328,-0.0863,0.1649,-0.0712,-0.0168,-0.0016,0.0154,-2.3287,1.3496,3.0783
2024-10-11T12:53:03.067Z,0.0241,-0.9917,0.2226,-0.0863,0.1649,-0.0712,-0.0207,-0.0008,0.0161,-2.3287,1.3496,3.0783
2024-10-11T12:53:03.078Z,0.0243,-0.9777,0.2313,-0.0863,0.1649,-0.0712,-0.0244,-0.0008,0.0119,-2.3287,1.3496,3.0783
2024-10-11T12:53:03.088Z,0.0197,-0.9536,0.2363,-0.0256,-0.2346,-0.2322,-0.0257,-0.0023,0.0137,-2.3305,1.3502,3.0797
2024-10-11T12:53:03.097Z,0.0150,-0.9538,0.2325,-0.0256,-0.2346,-0.2322,-0.0277,-0.0063,0.0158,-2.3305,1.3502,3.0797
2024-10-11T12:53:03.107Z,0.0193,-0.9575,0.2262,-0.0256,-0.2346,-0.2322,-0.0303,-0.0082,0.0145,-2.3305,1.3502,3.0797
2024-10-11T12:53:03.118Z,0.0175,-0.9552,0.2202,-0.0785,-0.1822,-0.0937,-0.0298,-0.0117,0.0162,-2.3325,1.3510,3.0811
2024-10-11T12:53:03.128Z,0.0232,-0.9584,0.2270,-0.0785,-0.1822,-0.0937,-0.0299,-0.0159,0.0168,-2.3325,1.3510,3.0811
2024-10-11T12:53:03.137Z,0.0120,-0.9643,0.2222,-0.0785,-0.1822,-0.0937,-0.0292,-0.0178,0.0152,-2.3325,1.3510,3.0811
2024-10-11T12:53:03.148Z,0.0082,-0.9671,0.2173,0.0550,-0.0634,0.0351,-0.0295,-0.0213,0.0125,-2.3343,1.3518,3.0822
2024-10-11T12:53:03.157Z,0.0044,-0.9706,0.2095,0.0550,-0.0634,0.0351,-0.0268,-0.0204,0.0110,-2.3343,1.3518,3.0822
2024-10-11T12:53:03.167Z,0.0056,-0.9734,0.2050,0.0550,-0.0634,0.0351,-0.0240,-0.0198,0.0110,-2.3343,1.3518,3.0822
2024-10-11T12:53:03.178Z,0.0080,-0.9753,0.2099,0.0473,0.0418,0.0082,-0.0240,-0.0198,0.0110,-2.3356,1.3524,3.0826
2024-10-11T12:53:03.187Z,0.0070,-0.9860,0.2147,0.0473,0.0418,0.0082,-0.0209,-0.0230,0.0092,-2.3356,1.3524,3.0826
2024-10-11T12:53:03.198Z,0.0070,-0.9818,0.2088,0.0473,0.0418,0.0082,-0.0174,-0.0280,0.0058,-2.3356,1.3524,3.0826
2024-10-11T12:53:03.208Z,0.0085,-0.9747,0.2085,0.0199,-0.0872,0.1013,-0.0188,-0.0281,0.0074,-2.3364,1.3529,3.0824
2024-10-11T12:53:03.216Z,0.0141,-0.9677,0.2096,0.0199,-0.0872,0.1013,-0.0156,-0.0261,0.0076,-2.3364,1.3529,3.0824
2024-10-11T12:53:03.228Z,0.0174,-0.9789,0.1924,0.0199,-0.0872,0.1013,-0.0129,-0.0290,0.0098,-2.3364,1.3529,3.0824
2024-10-11T12:53:03.238Z,0.0184,-0.9788,0.2056,-0.0062,-0.0365,0.0791,-0.0104,-0.0280,0.0095,-2.3377,1.3534,3.0826
2024-10-11T12:53:03.247Z,0.0087,-0.9724,0.2100,-0.0062,-0.0365,0.0791,-0.0120,-0.0293,0.0078,-2.3377,1.3534,3.0826
2024-10-11T12:53:03.257Z,0.0038,-0.9721,0.2034,-0.0062,-0.0365,0.0791,-0.0075,-0.0307,0.0038,-2.3377,1.3534,3.0826
2024-10-11T12:53:03.268Z,-0.0015,-0.9727,0.1993,0.1413,-0.0645,0.1547,-0.0078,-0.0319,0.0031,-2.3385,1.3537,3.0823
2024-10-11T12:53:03.276Z,0.0003,-0.9698,0.2029,0.1413,-0.0645,0.1547,-0.0059,-0.0343,0.0017,-2.3385,1.3537,3.0823
2024-10-11T12:53:03.287Z,0.0034,-0.9684,0.1980,0.1413,-0.0645,0.1547,-0.0018,-0.0326,0.0024,-2.3385,1.3537,3.0823
2024-10-11T12:53:03.298Z,0.0055,-0.9686,0.2075,0.0746,-0.0699,0.1090,-0.0002,-0.0375,-0.0013,-2.3388,1.3538,3.0814
2024-10-11T12:53:03.307Z,0.0068,-0.9692,0.2027,0.0746,-0.0699,0.1090,0.0007,-0.0285,-0.0001,-2.3388,1.3538,3.0814
2024-10-11T12:53:03.317Z,0.0125,-0.9764,0.2005,0.0746,-0.0699,0.1090,0.0018,-0.0283,0.0055,-2.3388,1.3538,3.0814
2024-10-11T12:53:03.328Z,0.0166,-0.9773,0.2079,-0.0360,0.0270,-0.0037,0.0011,-0.0255,0.0034,-2.3393,1.3538,3.0808
2024-10-11T12:53:03.337Z,0.0153,-0.9772,0.2136,-0.0360,0.0270,-0.0037,0.0016,-0.0257,0.0048,-2.3393,1.3538,3.0808
2024-10-11T12:53:03.347Z,0.0131,-0.9790,0.2192,-0.0360,0.0270,-0.0037,0.0025,-0.0259,0.0058,-2.3393,1.3538,3.0808
2024-10-11T12:53:03.358Z,0.0143,-0.9912,0.2118,-0.0013,0.1895,-0.0492,0.0007,-0.0259,0.0042,-2.3403,1.3539,3.0807
2024-10-11T12:53:03.367Z,0.0126,-0.9967,0.2204,-0.0013,0.1895,-0.0492,0.0006,-0.0248,0.0069,-2.3403,1.3539,3.0807
2024-10-11T12:53:03.376Z,0.0141,-0.9971,0.2191,-0.0013,0.1895,-0.0492,-0.0025,-0.0252,0.0077,-2.3403,1.3539,3.0807
2024-10-11T12:53:03.387Z,0.0146,-0.9957,0.2224,-0.0059,0.1682,-0.1255,-0.0025,-0.0252,0.0077,-2.3414,1.3539,3.0809
2024-10-11T12:53:03.397Z,0.0132,-0.9906,0.2280,-0.0059,0.1682,-0.1255,-0.0025,-0.0202,0.0085,-2.3414,1.3539,3.0809
2024-10-11T12:53:03.407Z,0.0163,-0.9851,0.2326,-0.0059,0.1682,-0.1255,-0.0072,-0.0146,0.0095,-2.3414,1.3539,3.0809
2024-10-11T12:53:03.418Z,0.0174,-0.9831,0.2356,-0.0361,0.0334,-0.2441,-0.0153,-0.0144,0.0126,-2.3428,1.3542,3.0815
2024-10-11T12:53:03.427Z,0.0153,-0.9800,0.2375,-0.0361,0.0334,-0.2441,-0.0173,-0.0120,0.0108,-2.3428,1.3542,3.0815
2024-10-11T12:53:03.438Z,0.0131,-0.9806,0.2331,-0.0361,0.0334,-0.2441,-0.0207,-0.0144,0.0110,-2.3428,1.3542,3.0815
2024-10-11T12:53:03.447Z,0.0134,-0.9865,0.2334,-0.0361,0.0334,-0.2441,-0.0219,-0.0146,0.0114,-2.3428,1.3542,3.0815
2024-10-11T12:53:03.457Z,0.0095,-0.9889,0.2325,0.0142,0.1109,-0.1766,-0.0228,-0.0169,0.0129,-2.3444,1.3547,3.0823
2024-10-11T12:53:03.467Z,0.0052,-0.9894,0.2268,0.0142,0.1109,-0.1766,-0.0216,-0.0187,0.0128,-2.3444,1.3547,3.0823
2024-10-11T12:53:03.478Z,0.0028,-0.9920,0.2235,0.1102,0.1542,-0.0991,-0.0246,-0.0166,0.0094,-2.3458,1.3554,3.0829
2024-10-11T12:53:03.487Z,-0.0004,-0.9907,0.2249,0.1102,0.1542,-0.0991,-0.0304,-0.0181,0.0082,-2.3458,1.3554,3.0829
2024-10-11T12:53:03.497Z,0.0051,-0.9738,0.2245,0.1102,0.1542,-0.0991,-0.0295,-0.0203,0.0097,-2.3458,1.3554,3.0829
2024-10-11T12:53:03.507Z,0.0107,-0.9654,0.2220,0.0244,-0.1834,-0.0960,-0.0298,-0.0180,0.0103,-2.3468,1.3563,3.0832
2024-10-11T12:53:03.517Z,0.0110,-0.9572,0.2225,0.0244,-0.1834,-0.0960,-0.0324,-0.0158,0.0106,-2.3468,1.3563,3.0832
2024-10-11T12:53:03.527Z,0.0145,-0.9607,0.2124,0.0244,-0.1834,-0.0960,-0.0349,-0.0130,0.0140,-2.3468,1.3563,3.0832
2024-10-11T12:53:03.537Z,0.0114,-0.9646,0.2108,-0.0056,-0.1045,0.0209,-0.0313,-0.0098,0.0126,-2.3485,1.3572,3.0841
2024-10-11T12:53:03.547Z,0.0127,-0.9685,0.2082,-0.0056,-0.1045,0.0209,-0.0317,-0.0094,0.0108,-2.3485,1.3572,3.0841
2024-10-11T12:53:03.557Z,0.0099,-0.9709,0.2023,-0.0056,-0.1045,0.0209,-0.0291,-0.0061,0.0136,-2.3485,1.3572,3.0841
2024-10-11T12:53:03.568Z,0.0078,-0.9749,0.2045,0.0445,0.0362,0.0316,-0.0273,-0.0106,0.0108,-2.3502,1.3580,3.0854
2024-10-11T12:53:03.576Z,0.0070,-0.9858,0.2092,0.0445,0.0362,0.0316,-0.0273,-0.0079,0.0128,-2.3502,1.3580,3.0854
2024-10-11T12:53:03.587Z,0.0050,-0.9917,0.2025,0.0445,0.0362,0.0316,-0.0251,-0.0043,0.0110,-2.3502,1.3580,3.0854
2024-10-11T12:53:03.598Z,0.0052,-0.9835,0.2000,0.0214,0.0160,0.1834,-0.0251,-0.0043,0.0110,-2.3517,1.3587,3.0865
2024-10-11T12:53:03.607Z,0.0127,-0.9763,0.1927,0.0214,0.0160,0.1834,-0.0218,-0.0030,0.0105,-2.3517,1.3587,3.0865
2024-10-11T12:53:03.617Z,0.0077,-0.9670,0.1998,0.0214,0.0160,0.1834,-0.0229,-0.0027,0.0117,-2.3517,1.3587,3.0865
2024-10-11T12:53:03.627Z,0.0138,-0.9613,0.2011,-0.0335,-0.1026,0.0994,-0.0223,-0.0020,0.0130,-2.3532,1.3594,3.0876
2024-10-11T12:53:03.637Z,0.0091,-0.9690,0.1966,-0.0335,-0.1026,0.0994,-0.0206,-0.0057,0.0122,-2.3532,1.3594,3.0876
2024-10-11T12:53:03.648Z,0.0060,-0.9725,0.1971,-0.0335,-0.1026,0.0994,-0.0185,-0.0060,0.0125,-2.3532,1.3594,3.0876
2024-10-11T12:53:03.657Z,0.0078,-0.9730,0.1981,0.0912,-0.0528,0.0730,-0.0200,-0.0054,0.0092,-2.3548,1.3600,3.0887
2024-10-11T12:53:03.668Z,0.0018,-0.9706,0.1998,0.0912,-0.0528,0.0730,-0.0165,-0.0088,0.0082,-2.3548,1.3600,3.0887
2024-10-11T12:53:03.677Z,0.0060,-0.9684,0.2002,0.0912,-0.0528,0.0730,-0.0139,-0.0055,0.0049,-2.3548,1.3600,3.0887
2024-10-11T12:53:03.688Z,-0.0013,-0.9662,0.1991,0.1071,-0.0988,0.0431,-0.0129,-0.0070,0.0068,-2.3561,1.3606,3.0895
2024-10-11T12:53:03.697Z,0.0025,-0.9700,0.2002,0.1071,-0.0988,0.0431,-0.0119,-0.0067,0.0068,-2.3561,1.3606,3.0895
2024-10-11T12:53:03.707Z,0.0028,-0.9787,0.2013,0.1071,-0.0988,0.0431,-0.0090,-0.0090,0.0048,-2.3561,1.3606,3.0895
2024-10-11T12:53:03.717Z,0.0074,-0.9789,0.1922,0.0141,-0.0209,0.1047,-0.0064,-0.0043,0.0045,-2.3568,1.3609,3.0898
2024-10-11T12:53:03.726Z,0.0086,-0.9755,0.1962,0.0141,-0.0209,0.1047,-0.0057,-0.0073,0.0054,-2.3568,1.3609,3.0898
2024-10-11T12:53:03.737Z,0.0038,-0.9685,0.2024,0.0141,-0.0209,0.1047,-0.0071,-0.0085,0.0044,-2.3568,1.3609,3.0898
2024-10-11T12:53:03.748Z,0.0045,-0.9726,0.2096,0.0393,0.0115,0.0101,-0.0085,-0.0087,0.0057,-2.3577,1.3611,3.0902
2024-10-11T12:53:03.757Z,0.0087,-0.9831,0.2096,0.0393,0.0115,0.0101,-0.0038,-0.0076,0.0049,-2.3577,1.3611,3.0902
2024-10-11T12:53:03.767Z,0.0083,-0.9866,0.2078,0.0393,0.0115,0.0101,-0.0049,-0.0060,0.0044,-2.3577,1.3611,3.0902
2024-10-11T12:53:03.777Z,0.0093,-0.9877,0.2101,0.0257,0.1126,-0.0120,-0.0048,-0.0025,0.0038,-2.3588,1.3613,3.0908
2024-10-11T12:53:03.787Z,0.0061,-0.9900,0.2085,0.0257,0.1126,-0.0120,-0.0047,-0.0027,0.0052,-2.3588,1.3613,3.0908
2024-10-11T12:53:03.797Z,0.0073,-0.9929,0.2050,0.0257,0.1126,-0.0120,-0.0065,-0.0020,0.0066,-2.3588,1.3613,3.0908
2024-10-11T12:53:03.807Z,0.0027,-0.9881,0.2027,0.0440,0.0700,0.0036,-0.0067,-0.0030,0.0063,-2.3598,1.3616,3.0915
2024-10-11T12:53:03.817Z,0.0090,-0.9859,0.2111,0.0440,0.0700,0.0036,-0.0111,0.0004,0.0057,-2.3598,1.3616,3.0915
2024-10-11T12:53:03.827Z,0.0056,-0.9888,0.2079,0.0440,0.0700,0.0036,-0.0081,-0.0041,0.0064,-2.3598,1.3616,3.0915
2024-10-11T12:53:03.837Z,0.0007,-0.9911,0.2213,0.1132,0.0840,-0.0863,-0.0133,-0.0031,0.0050,-2.3606,1.3619,3.0920
2024-10-11T12:53:03.849Z,-0.0006,-0.9851,0.2171,0.1132,0.0840,-0.0863,-0.0165,-0.0002,0.0027,-2.3606,1.3619,3.0920
2024-10-11T12:53:03.857Z,-0.0005,-0.9815,0.2202,0.1132,0.0840,-0.0863,-0.0183,0.0003,-0.0001,-2.3606,1.3619,3.0920
2024-10-11T12:53:03.867Z,-0.0025,-0.9784,0.2310,0.1247,0.0386,-0.2276,-0.0200,-0.0029,0.0028,-2.3610,1.3624,3.0921
2024-10-11T12:53:03.877Z,-0.0024,-0.9840,0.2249,0.1247,0.0386,-0.2276,-0.0223,-0.0018,0.0008,-2.3610,1.3624,3.0921
2024-10-11T12:53:03.888Z,-0.0076,-0.9857,0.2172,0.1247,0.0386,-0.2276,-0.0219,-0.0007,0.0002,-2.3610,1.3624,3.0921
2024-10-11T12:53:03.898Z,-0.0011,-0.9824,0.2179,0.1172,0.0152,-0.1101,-0.0257,0.0015,-0.0006,-2.3610,1.3631,3.0918
2024-10-11T12:53:03.907Z,-0.0030,-0.9774,0.2172,0.1172,0.0152,-0.1101,-0.0259,0.0053,-0.0045,-2.3610,1.3631,3.0918
2024-10-11T12:53:03.917Z,0.0009,-0.9719,0.2140,0.1172,0.0152,-0.1101,-0.0281,0.0055,-0.0022,-2.3610,1.3631,3.0918
2024-10-11T12:53:03.927Z,0.0029,-0.9632,0.2173,0.0687,-0.1833,-0.1341,-0.0281,0.0070,-0.0009,-2.3609,1.3638,3.0916
2024-10-11T12:53:03.937Z,0.0040,-0.9590,0.2181,0.0687,-0.1833,-0.1341,-0.0294,0.0109,0.0009,-2.3609,1.3638,3.0916
2024-10-11T12:53:03.946Z,0.0022,-0.9648,0.2159,0.0687,-0.1833,-0.1341,-0.0308,0.0143,-0.0013,-2.3609,1.3638,3.0916
2024-10-11T12:53:03.957Z,0.0037,-0.9738,0.2060,0.0694,-0.0013,-0.0689,-0.0272,0.0148,0.0007,-2.3611,1.3646,3.0920
2024-10-11T12:53:03.967Z,0.0001,-0.9800,0.2062,0.0694,-0.0013,-0.0689,-0.0260,0.0145,0.0006,-2.3611,1.3646,3.0920
2024-10-11T12:53:03.977Z,-0.0041,-0.9842,0.2005,0.0694,-0.0013,-0.0689,-0.0284,0.0193,0.0011,-2.3611,1.3646,3.0920
2024-10-11T12:53:03.987Z,-0.0078,-0.9871,0.1993,0.1815,0.0695,-0.0168,-0.0257,0.0249,-0.0008,-2.3615,1.3653,3.0927
2024-10-11T12:53:03.997Z,-0.0079,-0.9870,0.2038,0.1815,0.0695,-0.0168,-0.0244,0.0300,-0.0024,-2.3615,1.3653,3.0927
2024-10-11T12:53:04.007Z,-0.0075,-0.9911,0.1957,0.1815,0.0695,-0.0168,-0.0253,0.0360,-0.0051,-2.3615,1.3653,3.0927
2024-10-11T12:53:04.018Z,-0.0042,-0.9867,0.1880,0.1337,0.0301,0.1006,-0.0231,0.0387,-0.0027,-2.3611,1.3659,3.0931
2024-10-11T12:53:04.027Z,-0.0057,-0.9782,0.1934,0.1337,0.0301,0.1006,-0.0239,0.0438,-0.0068,-2.3611,1.3659,3.0931
2024-10-11T12:53:04.037Z,-0.0073,-0.9705,0.1904,0.1337,0.0301,0.1006,-0.0251,0.0440,-0.0070,-2.3611,1.3659,3.0931
2024-10-11T12:53:04.048Z,-0.0012,-0.9742,0.1859,0.1195,-0.0397,0.1215,-0.0226,0.0472,-0.0067,-2.3606,1.3666,3.0938
2024-10-11T12:53:04.057Z,-0.0045,-0.9778,0.1940,0.1195,-0.0397,0.1215,-0.0182,0.0438,-0.0053,-2.3606,1.3666,3.0938
2024-10-11T12:53:04.067Z,-0.0030,-0.9860,0.1884,0.1195,-0.0397,0.1215,-0.0167,0.0444,-0.0094,-2.3606,1.3666,3.0938
2024-10-11T12:53:04.077Z,-0.0042,-0.9928,0.1838,0.1564,0.0980,0.1614,-0.0155,0.0456,-0.0082,-2.3599,1.3671,3.0942
2024-10-11T12:53:04.087Z,-0.0078,-0.9871,0.1946,0.1564,0.0980,0.1614,-0.0154,0.0427,-0.0133,-2.3599,1.3671,3.0942
2024-10-11T12:53:04.098Z,-0.0091,-0.9853,0.1953,0.1564,0.0980,0.1614,-0.0162,0.0418,-0.0161,-2.3599,1.3671,3.0942
2024-10-11T12:53:04.108Z,-0.0106,-0.9876,0.1992,0.2334,0.0590,0.0615,-0.0146,0.0441,-0.0190,-2.3579,1.3676,3.0933
2024-10-11T12:53:04.116Z,-0.0141,-0.9824,0.1962,0.2334,0.0590,0.0615,-0.0123,0.0446,-0.0177,-2.3579,1.3676,3.0933
2024-10-11T12:53:04.127Z,-0.0019,-0.9811,0.1921,0.2334,0.0590,0.0615,-0.0111,0.0468,-0.0218,-2.3579,1.3676,3.0933
2024-10-11T12:53:04.137Z,-0.0017,-0.9779,0.1922,0.0992,-0.0105,0.1228,-0.0070,0.0429,-0.0186,-2.3556,1.3680,3.0921
2024-10-11T12:53:04.147Z,0.0008,-0.9790,0.1896,0.0992,-0.0105,0.1228,-0.0116,0.0441,-0.0181,-2.3556,1.3680,3.0921
2024-10-11T12:53:04.157Z,-0.0040,-0.9749,0.1968,0.0992,-0.0105,0.1228,-0.0098,0.0438,-0.0169,-2.3556,1.3680,3.0921
2024-10-11T12:53:04.167Z,0.0027,-0.9795,0.1932,0.0820,0.0309,0.1413,-0.0086,0.0436,-0.0177,-2.3534,1.3683,3.0911
2024-10-11T12:53:04.177Z,-0.0021,-0.9833,0.1846,0.0820,0.0309,0.1413,-0.0040,0.0432,-0.0172,-2.3534,1.3683,3.0911
2024-10-11T12:53:04.187Z,-0.0003,-0.9828,0.1859,0.0820,0.0309,0.1413,-0.0023,0.0439,-0.0169,-2.3534,1.3683,3.0911
2024-10-11T12:53:04.197Z,-0.0016,-0.9820,0.1833,0.1566,0.0403,0.1559,-0.0014,0.0420,-0.0158,-2.3516,1.3684,3.0904
2024-10-11T12:53:04.206Z,-0.0037,-0.9825,0.1876,0.1566,0.0403,0.1559,-0.0011,0.0408,-0.0178,-2.3516,1.3684,3.0904
2024-10-11T12:53:04.216Z,0.0036,-0.9813,0.1981,0.1566,0.0403,0.1559,-0.0008,0.0450,-0.0152,-2.3516,1.3684,3.0904
2024-10-11T12:53:04.227Z,0.0012,-0.9890,0.1874,0.0723,0.1304,0.1191,0.0014,0.0467,-0.0155,-2.3494,1.3685,3.0893
2024-10-11T12:53:04.237Z,0.0042,-0.9929,0.1874,0.0723,0.1304,0.1191,0.0023,0.0462,-0.0146,-2.3494,1.3685,3.0893
2024-10-11T12:53:04.247Z,0.0072,-0.9857,0.1870,0.0723,0.1304,0.1191,0.0011,0.0515,-0.0145,-2.3494,1.3685,3.0893
2024-10-11T12:53:04.257Z,0.0078,-0.9773,0.1945,0.0387,-0.0586,0.0213,0.0010,0.0554,-0.0142,-2.3477,1.3685,3.0889
2024-10-11T12:53:04.267Z,0.0081,-0.9722,0.1995,0.0387,-0.0586,0.0213,-0.0013,0.0525,-0.0134,-2.3477,1.3685,3.0889
2024-10-11T12:53:04.277Z,0.0080,-0.9679,0.1991,0.0387,-0.0586,0.0213,-0.0047,0.0522,-0.0110,-2.3477,1.3685,3.0889
2024-10-11T12:53:04.287Z,0.0094,-0.9662,0.2082,-0.0182,-0.0885,-0.0296,-0.0078,0.0553,-0.0109,-2.3463,1.3687,3.0888
2024-10-11T12:53:04.298Z,0.0131,-0.9739,0.2012,-0.0182,-0.0885,-0.0296,-0.0088,0.0545,-0.0088,-2.3463,1.3687,3.0888
2024-10-11T12:53:04.307Z,0.0115,-0.9691,0.2083,-0.0182,-0.0885,-0.0296,-0.0081,0.0553,-0.0093,-2.3463,1.3687,3.0888
2024-10-11T12:53:04.318Z,0.0119,-0.9682,0.2100,-0.0097,-0.0961,-0.1400,-0.0103,0.0584,-0.0092,-2.3453,1.3690,3.0893
2024-10-11T12:53:04.328Z,0.0114,-0.9704,0.2136,-0.0097,-0.0961,-0.1400,-0.0085,0.0586,-0.0067,-2.3453,1.3690,3.0893
2024-10-11T12:53:04.337Z,0.0142,-0.9657,0.2120,-0.0097,-0.0961,-0.1400,-0.0144,0.0608,-0.0045,-2.3453,1.3690,3.0893
2024-10-11T12:53:04.347Z,0.0182,-0.9648,0.2064,-0.0931,-0.1382,-0.0055,-0.0149,0.0611,-0.0053,-2.3446,1.3694,3.0901
2024-10-11T12:53:04.357Z,0.0203,-0.9675,0.2042,-0.0931,-0.1382,-0.0055,-0.0122,0.0596,-0.0034,-2.3446,1.3694,3.0901
2024-10-11T12:53:04.367Z,0.0111,-0.9701,0.2029,-0.0931,-0.1382,-0.0055,-0.0116,0.0585,-0.0048,-2.3446,1.3694,3.0901
2024-10-11T12:53:04.377Z,0.0084,-0.9652,0.2080,0.0209,-0.1539,-0.0632,-0.0119,0.0536,-0.0055,-2.3442,1.3697,3.0913
2024-10-11T12:53:04.387Z,0.0066,-0.9645,0.2035,0.0209,-0.1539,-0.0632,-0.0151,0.0585,-0.0041,-2.3442,1.3697,3.0913
2024-10-11T12:53:04.397Z,0.0049,-0.9716,0.1960,0.0209,-0.1539,-0.0632,-0.0095,0.0550,-0.0052,-2.3442,1.3697,3.0913
2024-10-11T12:53:04.407Z,0.0013,-0.9776,0.1965,0.0571,-0.0096,0.0260,-0.0075,0.0531,-0.0052,-2.3435,1.3699,3.0920
2024-10-11T12:53:04.417Z,0.0081,-0.9795,0.1948,0.0571,-0.0096,0.0260,-0.0067,0.0550,-0.0007,-2.3435,1.3699,3.0920
2024-10-11T12:53:04.427Z,0.0074,-0.9819,0.1924,0.0571,-0.0096,0.0260,-0.0059,0.0534,-0.0052,-2.3435,1.3699,3.0920
2024-10-11T12:53:04.437Z,0.0117,-0.9744,0.1973,-0.0588,-0.0622,0.0307,-0.0049,0.0529,-0.0034,-2.3426,1.3701,3.0925
2024-10-11T12:53:04.447Z,0.0144,-0.9728,0.1952,-0.0588,-0.0622,0.0307,-0.0079,0.0545,-0.0046,-2.3426,1.3701,3.0925
2024-10-11T12:53:04.457Z,0.0096,-0.9702,0.2004,-0.0588,-0.0622,0.0307,-0.0066,0.0519,-0.0031,-2.3426,1.3701,3.0925
2024-10-11T12:53:04.467Z,0.0137,-0.9686,0.2005,-0.0096,-0.0651,-0.0465,-0.0088,0.0509,-0.0039,-2.3421,1.3703,3.0932
2024-10-11T12:53:04.477Z,0.0069,-0.9790,0.1985,-0.0096,-0.0651,-0.0465,-0.0062,0.0498,-0.0055,-2.3421,1.3703,3.0932
2024-10-11T12:53:04.487Z,0.0020,-0.9888,0.2020,-0.0096,-0.0651,-0.0465,-0.0040,0.0523,-0.0075,-2.3421,1.3703,3.0932
2024-10-11T12:53:04.497Z,0.0047,-0.9943,0.1856,0.0178,0.0841,0.0532,-0.0005,0.0477,-0.0082,-2.3413,1.3704,3.0937
2024-10-11T12:53:04.507Z,0.0067,-0.9861,0.1973,0.0178,0.0841,0.0532,0.0014,0.0441,-0.0087,-2.3413,1.3704,3.0937
2024-10-11T12:53:04.517Z,0.0060,-0.9828,0.1917,0.0178,0.0841,0.0532,0.0010,0.0414,-0.0095,-2.3413,1.3704,3.0937
2024-10-11T12:53:04.527Z,0.0084,-0.9875,0.1963,0.0532,0.0402,0.0110,0.0003,0.0425,-0.0124,-2.3398,1.3703,3.0933
2024-10-11T12:53:04.538Z,0.0045,-0.9833,0.1992,0.0532,0.0402,0.0110,0.0027,0.0409,-0.0114,-2.3398,1.3703,3.0933
2024-10-11T12:53:04.547Z,0.0150,-0.9826,0.1956,0.0532,0.0402,0.0110,0.0024,0.0408,-0.0126,-2.3398,1.3703,3.0933
2024-10-11T12:53:04.557Z,0.0104,-0.9781,0.1951,0.0176,-0.0079,0.0141,0.0056,0.0406,-0.0132,-2.3380,1.3702,3.0925
2024-10-11T12:53:04.567Z,0.0076,-0.9797,0.1980,0.0176,-0.0079,0.0141,0.0052,0.0369,-0.0131,-2.3380,1.3702,3.0925
2024-10-11T12:53:04.577Z,0.0030,-0.9807,0.1941,0.0176,-0.0079,0.0141,0.0061,0.0315,-0.0160,-2.3380,1.3702,3.0925
2024-10-11T12:53:04.587Z,0.0071,-0.9844,0.1994,0.0134,0.0654,0.0489,0.0077,0.0315,-0.0181,-2.3360,1.3700,3.0912
2024-10-11T12:53:04.598Z,0.0080,-0.9884,0.1949,0.0134,0.0654,0.0489,0.0056,0.0325,-0.0163,-2.3360,1.3700,3.0912
2024-10-11T12:53:04.607Z,0.0093,-0.9970,0.1903,0.0134,0.0654,0.0489,0.0070,0.0297,-0.0200,-2.3360,1.3700,3.0912
2024-10-11T12:53:04.617Z,0.0072,-0.9937,0.1936,0.0134,0.1049,0.0944,0.0100,0.0314,-0.0182,-2.3333,1.3698,3.0892
2024-10-11T12:53:04.627Z,0.0109,-0.9877,0.1903,0.0134,0.1049,0.0944,0.0070,0.0316,-0.0180,-2.3333,1.3698,3.0892
2024-10-11T12:53:04.637Z,0.0137,-0.9834,0.2045,0.0134,0.1049,0.0944,0.0075,0.0301,-0.0195,-2.3333,1.3698,3.0892
2024-10-11T12:53:04.648Z,0.0160,-0.9864,0.1944,-0.0701,0.0721,-0.0100,0.0059,0.0346,-0.0175,-2.3309,1.3695,3.0876
2024-10-11T12:53:04.658Z,0.0163,-0.9829,0.2005,-0.0701,0.0721,-0.0100,0.0058,0.0333,-0.0161,-2.3309,1.3695,3.0876
2024-10-11T12:53:04.667Z,0.0163,-0.9829,0.2005,-0.0701,0.0721,-0.0100,0.0024,0.0364,-0.0182,-2.3309,1.3695,3.0876
2024-10-11T12:53:04.677Z,0.0149,-0.9764,0.2007,0.0273,-0.0574,-0.0399,0.0018,0.0343,-0.0135,-2.3288,1.3694,3.0863
2024-10-11T12:53:04.687Z,0.0084,-0.9734,0.2065,0.0273,-0.0574,-0.0399,0.0022,0.0365,-0.0136,-2.3288,1.3694,3.0863
2024-10-11T12:53:04.697Z,0.0145,-0.9711,0.2063,0.0273,-0.0574,-0.0399,-0.0021,0.0396,-0.0165,-2.3288,1.3694,3.0863
2024-10-11T12:53:04.708Z,0.0157,-0.9745,0.2066,-0.0437,-0.0577,-0.0864,-0.0015,0.0374,-0.0131,-2.3269,1.3694,3.0852
2024-10-11T12:53:04.718Z,0.0113,-0.9763,0.2059,-0.0437,-0.0577,-0.0864,-0.0028,0.0383,-0.0129,-2.3269,1.3694,3.0852
2024-10-11T12:53:04.727Z,0.0113,-0.9763,0.2059,-0.0437,-0.0577,-0.0864,-0.0020,0.0395,-0.0142,-2.3269,1.3694,3.0852
2024-10-11T12:53:04.737Z,0.0145,-0.9757,0.2027,-0.0172,-0.0356,-0.0637,-0.0031,0.0346,-0.0136,-2.3249,1.3695,3.0842
2024-10-11T12:53:04.749Z,0.0108,-0.9755,0.2074,-0.0172,-0.0356,-0.0637,-0.0009,0.0353,-0.0122,-2.3249,1.3695,3.0842
2024-10-11T12:53:04.757Z,0.0158,-0.9781,0.2050,-0.0172,-0.0356,-0.0637,-0.0043,0.0408,-0.0120,-2.3249,1.3695,3.0842
2024-10-11T12:53:04.768Z,0.0145,-0.9756,0.2046,-0.0511,-0.0405,-0.0168,-0.0046,0.0377,-0.0103,-2.3234,1.3695,3.0836
2024-10-11T12:53:04.778Z,0.0093,-0.9720,0.2089,-0.0511,-0.0405,-0.0168,-0.0055,0.0413,-0.0126,-2.3234,1.3695,3.0836
2024-10-11T12:53:04.788Z,0.0128,-0.9724,0.2066,-0.0511,-0.0405,-0.0168,-0.0085,0.0438,-0.0110,-2.3234,1.3695,3.0836
2024-10-11T12:53:04.798Z,0.0128,-0.9724,0.2066,-0.0070,-0.0652,-0.0670,-0.0084,0.0415,-0.0136,-2.3216,1.3696,3.0828
2024-10-11T12:53:04.808Z,0.0122,-0.9801,0.2071,-0.0070,-0.0652,-0.0670,-0.0063,0.0398,-0.0152,-2.3216,1.3696,3.0828
2024-10-11T12:53:04.819Z,0.0148,-0.9905,0.2026,-0.0070,-0.0652,-0.0670,-0.0085,0.0422,-0.0094,-2.3216,1.3696,3.0828
2024-10-11T12:53:04.828Z,0.0229,-0.9909,0.2021,-0.0810,0.1044,-0.0379,-0.0084,0.0449,-0.0104,-2.3198,1.3698,3.0821
2024-10-11T12:53:04.838Z,0.0228,-0.9906,0.1988,-0.0810,0.1044,-0.0379,-0.0107,0.0424,-0.0138,-2.3198,1.3698,3.0821
2024-10-11T12:53:04.848Z,0.0228,-0.9906,0.1988,-0.0810,0.1044,-0.0379,-0.0122,0.0490,-0.0098,-2.3198,1.3698,3.0821
2024-10-11T12:53:04.857Z,0.0194,-0.9856,0.2003,-0.0709,0.0595,0.0141,-0.0135,0.0456,-0.0082,-2.3183,1.3700,3.0818
2024-10-11T12:53:04.868Z,0.0152,-0.9831,0.2019,-0.0709,0.0595,0.0141,-0.0144,0.0438,-0.0077,-2.3183,1.3700,3.0818
2024-10-11T12:53:04.878Z,0.0162,-0.9863,0.2035,-0.0709,0.0595,0.0141,-0.0148,0.0429,-0.0083,-2.3183,1.3700,3.0818
2024-10-11T12:53:04.888Z,0.0127,-0.9866,0.2014,-0.0277,0.0715,-0.0166,-0.0146,0.0444,-0.0063,-2.3174,1.3704,3.0819
2024-10-11T12:53:04.898Z,0.0127,-0.9866,0.2014,-0.0277,0.0715,-0.0166,-0.0145,0.0368,-0.0064,-2.3174,1.3704,3.0819
2024-10-11T12:53:04.908Z,0.0089,-0.9838,0.1944,-0.0277,0.0715,-0.0166,-0.0131,0.0392,-0.0052,-2.3174,1.3704,3.0819
2024-10-11T12:53:04.918Z,0.0147,-0.9863,0.1903,-0.0060,0.0670,0.0836,-0.0141,0.0377,-0.0066,-2.3164,1.3707,3.0818
2024-10-11T12:53:04.928Z,0.0083,-0.9819,0.1891,-0.0060,0.0670,0.0836,-0.0110,0.0398,-0.0066,-2.3164,1.3707,3.0818
2024-10-11T12:53:04.937Z,0.0068,-0.9869,0.1913,-0.0060,0.0670,0.0836,-0.0109,0.0383,-0.0052,-2.3164,1.3707,3.0818
2024-10-11T12:53:04.950Z,0.0116,-0.9811,0.1917,0.0081,0.0466,0.0667,-0.0088,0.0365,-0.0079,-2.3152,1.3710,3.0816
2024-10-11T12:53:04.957Z,0.0116,-0.9811,0.1917,0.0081,0.0466,0.0667,-0.0054,0.0359,-0.0039,-2.3152,1.3710,3.0816
2024-10-11T12:53:04.968Z,0.0091,-0.9776,0.1911,0.0081,0.0466,0.0667,-0.0066,0.0354,-0.0085,-2.3152,1.3710,3.0816
2024-10-11T12:53:04.977Z,0.0022,-0.9777,0.1937,0.0649,-0.0313,0.0086,-0.0061,0.0343,-0.0081,-2.3140,1.3711,3.0812
2024-10-11T12:53:04.988Z,0.0032,-0.9817,0.2006,0.0649,-0.0313,0.0086,-0.0056,0.0325,-0.0095,-2.3140,1.3711,3.0812
2024-10-11T12:53:04.999Z,0.0048,-0.9850,0.2015,0.0649,-0.0313,0.0086,-0.0083,0.0311,-0.0125,-2.3140,1.3711,3.0812
2024-10-11T12:53:05.006Z,0.0048,-0.9850,0.2015,0.0610,0.1181,-0.0596,-0.0063,0.0294,-0.0124,-2.3123,1.3714,3.0802
2024-10-11T12:53:05.018Z,0.0071,-0.9931,0.1984,0.0610,0.1181,-0.0596,-0.0055,0.0278,-0.0121,-2.3123,1.3714,3.0802
2024-10-11T12:53:05.027Z,0.0114,-0.9864,0.2020,0.0610,0.1181,-0.0596,-0.0075,0.0257,-0.0100,-2.3123,1.3714,3.0802
2024-10-11T12:53:05.038Z,0.0159,-0.9832,0.2048,-0.0316,0.0277,-0.0602,-0.0106,0.0277,-0.0117,-2.3106,1.3716,3.0792
2024-10-11T12:53:05.049Z,0.0084,-0.9862,0.2031,-0.0316,0.0277,-0.0602,-0.0102,0.0296,-0.0118,-2.3106,1.3716,3.0792
2024-10-11T12:53:05.057Z,0.0127,-0.9866,0.2024,-0.0316,0.0277,-0.0602,-0.0141,0.0294,-0.0102,-2.3106,1.3716,3.0792
2024-10-11T12:53:05.068Z,0.0155,-0.9814,0.2014,-0.0376,0.0391,-0.0389,-0.0153,0.0303,-0.0110,-2.3092,1.3720,3.0784
2024-10-11T12:53:05.077Z,0.0149,-0.9764,0.2020,-0.0376,0.0391,-0.0389,-0.0163,0.0320,-0.0097,-2.3092,1.3720,3.0784
2024-10-11T12:53:05.087Z,0.0146,-0.9771,0.2013,-0.0376,0.0391,-0.0389,-0.0193,0.0321,-0.0101,-2.3092,1.3720,3.0784
2024-10-11T12:53:05.099Z,0.0121,-0.9762,0.2091,0.0009,-0.0476,-0.0742,-0.0156,0.0279,-0.0065,-2.3079,1.3724,3.0779
2024-10-11T12:53:05.107Z,0.0143,-0.9759,0.2029,0.0009,-0.0476,-0.0742,-0.0184,0.0281,-0.0069,-2.3079,1.3724,3.0779
2024-10-11T12:53:05.118Z,0.0154,-0.9798,0.2085,0.0009,-0.0476,-0.0742,-0.0200,0.0341,-0.0089,-2.3079,1.3724,3.0779
2024-10-11T12:53:05.127Z,0.0182,-0.9811,0.2009,-0.0333,0.0014,-0.0508,-0.0199,0.0331,-0.0080,-2.3067,1.3729,3.0774
2024-10-11T12:53:05.137Z,0.0174,-0.9794,0.1974,-0.0333,0.0014,-0.0508,-0.0182,0.0363,-0.0063,-2.3067,1.3729,3.0774
2024-10-11T12:53:05.148Z,0.0179,-0.9721,0.2012,-0.0333,0.0014,-0.0508,-0.0217,0.0376,-0.0050,-2.3067,1.3729,3.0774
2024-10-11T12:53:05.157Z,0.0177,-0.9678,0.2040,-0.0692,-0.1171,-0.0628,-0.0194,0.0332,-0.0057,-2.3058,1.3735,3.0772
2024-10-11T12:53:05.167Z,0.0184,-0.9727,0.2001,-0.0692,-0.1171,-0.0628,-0.0206,0.0303,-0.0008,-2.3058,1.3735,3.0772
2024-10-11T12:53:05.178Z,0.0271,-0.9754,0.1964,-0.0692,-0.1171,-0.0628,-0.0168,0.0281,0.0012,-2.3058,1.3735,3.0772
2024-10-11T12:53:05.187Z,0.0213,-0.9699,0.1984,-0.1071,-0.0841,-0.0117,-0.0203,0.0339,-0.0008,-2.3053,1.3740,3.0775
2024-10-11T12:53:05.199Z,0.0228,-0.9698,0.2015,-0.1071,-0.0841,-0.0117,-0.0218,0.0371,-0.0003,-2.3053,1.3740,3.0775
2024-10-11T12:53:05.207Z,0.0233,-0.9705,0.2051,-0.1071,-0.0841,-0.0117,-0.0241,0.0419,0.0032,-2.3053,1.3740,3.0775
2024-10-11T12:53:05.217Z,0.0272,-0.9758,0.1982,-0.1423,-0.0551,-0.0572,-0.0239,0.0421,0.0049,-2.3052,1.3746,3.0783
2024-10-11T12:53:05.227Z,0.0268,-0.9807,0.2018,-0.1423,-0.0551,-0.0572,-0.0209,0.0419,0.0062,-2.3052,1.3746,3.0783
2024-10-11T12:53:05.238Z,0.0209,-0.9856,0.1963,-0.1423,-0.0551,-0.0572,-0.0228,0.0359,0.0046,-2.3052,1.3746,3.0783
2024-10-11T12:53:05.248Z,0.0167,-0.9888,0.1960,-0.0545,0.0738,-0.0552,-0.0196,0.0370,0.0078,-2.3059,1.3752,3.0799
2024-10-11T12:53:05.257Z,0.0147,-0.9897,0.1974,-0.0545,0.0738,-0.0552,-0.0195,0.0389,0.0074,-2.3059,1.3752,3.0799
2024-10-11T12:53:05.267Z,0.0099,-0.9847,0.1971,-0.0545,0.0738,-0.0552,-0.0141,0.0334,0.0091,-2.3059,1.3752,3.0799
2024-10-11T12:53:05.277Z,0.0086,-0.9776,0.1956,0.0371,-0.0206,-0.0306,-0.0161,0.0324,0.0059,-2.3067,1.3756,3.0815
2024-10-11T12:53:05.287Z,0.0059,-0.9752,0.1985,0.0371,-0.0206,-0.0306,-0.0164,0.0384,0.0062,-2.3067,1.3756,3.0815
2024-10-11T12:53:05.297Z,0.0110,-0.9782,0.1895,0.0371,-0.0206,-0.0306,-0.0140,0.0313,0.0031,-2.3067,1.3756,3.0815
2024-10-11T12:53:05.307Z,0.0116,-0.9748,0.1949,-0.0028,-0.0435,-0.0094,-0.0144,0.0279,0.0048,-2.3070,1.3760,3.0825
2024-10-11T12:53:05.317Z,0.0158,-0.9735,0.1989,-0.0028,-0.0435,-0.0094,-0.0168,0.0254,0.0054,-2.3070,1.3760,3.0825
2024-10-11T12:53:05.327Z,0.0129,-0.9780,0.1945,-0.0028,-0.0435,-0.0094,-0.0142,0.0231,0.0066,-2.3070,1.3760,3.0825
2024-10-11T12:53:05.336Z,0.0129,-0.9780,0.1945,-0.0027,-0.0095,-0.0189,-0.0155,0.0252,0.0033,-2.3076,1.3765,3.0836
2024-10-11T12:53:05.347Z,0.0105,-0.9837,0.1922,-0.0027,-0.0095,-0.0189,-0.0148,0.0297,0.0040,-2.3076,1.3765,3.0836
2024-10-11T12:53:05.357Z,0.0053,-0.9849,0.1903,-0.0027,-0.0095,-0.0189,-0.0162,0.0275,0.0043,-2.3076,1.3765,3.0836
2024-10-11T12:53:05.368Z,0.0029,-0.9809,0.1984,0.0624,0.0080,-0.0132,-0.0164,0.0251,0.0029,-2.3083,1.3769,3.0849
2024-10-11T12:53:05.377Z,0.0038,-0.9773,0.1938,0.0624,0.0080,-0.0132,-0.0150,0.0204,0.0006,-2.3083,1.3769,3.0849
2024-10-11T12:53:05.388Z,0.0032,-0.9817,0.1972,0.0624,0.0080,-0.0132,-0.0198,0.0206,0.0017,-2.3083,1.3769,3.0849
2024-10-11T12:53:05.397Z,0.0043,-0.9814,0.1938,0.0859,-0.0061,-0.0123,-0.0197,0.0161,-0.0011,-2.3083,1.3774,3.0854
2024-10-11T12:53:05.407Z,0.0057,-0.9884,0.1958,0.0859,-0.0061,-0.0123,-0.0162,0.0189,-0.0027,-2.3083,1.3774,3.0854
2024-10-11T12:53:05.417Z,0.0017,-0.9907,0.1982,0.0859,-0.0061,-0.0123,-0.0205,0.0225,-0.0052,-2.3083,1.3774,3.0854
2024-10-11T12:53:05.427Z,0.0065,-0.9934,0.1901,0.0635,0.1162,0.0018,-0.0228,0.0198,-0.0023,-2.3077,1.3778,3.0850
2024-10-11T12:53:05.437Z,0.0059,-0.9908,0.1945,0.0635,0.1162,0.0018,-0.0192,0.0196,-0.0082,-2.3077,1.3778,3.0850
2024-10-11T12:53:05.447Z,0.0072,-0.9913,0.2008,0.0635,0.1162,0.0018,-0.0161,0.0161,-0.0059,-2.3077,1.3778,3.0850
2024-10-11T12:53:05.457Z,0.0038,-0.9882,0.1985,0.0667,0.0810,-0.0837,-0.0223,0.0191,-0.0060,-2.3069,1.3783,3.0845
2024-10-11T12:53:05.467Z,0.0078,-0.9886,0.2015,0.0667,0.0810,-0.0837,-0.0202,0.0149,-0.0063,-2.3069,1.3783,3.0845
2024-10-11T12:53:05.477Z,0.0087,-0.9856,0.2042,0.0667,0.0810,-0.0837,-0.0197,0.0140,-0.0067,-2.3069,1.3783,3.0845
2024-10-11T12:53:05.487Z,0.0101,-0.9837,0.1988,0.0167,0.0398,-0.0931,-0.0216,0.0175,-0.0050,-2.3058,1.3789,3.0838
2024-10-11T12:53:05.497Z,0.0081,-0.9797,0.2040,0.0167,0.0398,-0.0931,-0.0269,0.0230,-0.0068,-2.3058,1.3789,3.0838
2024-10-11T12:53:05.507Z,0.0157,-0.9845,0.1943,0.0167,0.0398,-0.0931,-0.0239,0.0243,-0.0058,-2.3058,1.3789,3.0838
2024-10-11T12:53:05.517Z,0.0183,-0.9898,0.1949,-0.0723,0.0756,-0.0705,-0.0284,0.0264,-0.0029,-2.3053,1.3796,3.0837
2024-10-11T12:53:05.527Z,0.0199,-0.9898,0.1926,-0.0723,0.0756,-0.0705,-0.0247,0.0275,-0.0034,-2.3053,1.3796,3.0837
2024-10-11T12:53:05.536Z,0.0161,-0.9858,0.1908,-0.0723,0.0756,-0.0705,-0.0260,0.0270,-0.0033,-2.3053,1.3796,3.0837
2024-10-11T12:53:05.547Z,0.0220,-0.9798,0.1882,-0.0737,0.0047,-0.0056,-0.0263,0.0279,0.0001,-2.3050,1.3803,3.0840
2024-10-11T12:53:05.557Z,0.0184,-0.9717,0.1864,-0.0737,0.0047,-0.0056,-0.0274,0.0349,0.0019,-2.3050,1.3803,3.0840
2024-10-11T12:53:05.567Z,0.0152,-0.9688,0.1930,-0.0737,0.0047,-0.0056,-0.0283,0.0365,0.0017,-2.3050,1.3803,3.0840
2024-10-11T12:53:05.577Z,0.0172,-0.9692,0.1940,-0.0663,-0.1375,-0.0621,-0.0301,0.0326,0.0024,-2.3051,1.3810,3.0848
2024-10-11T12:53:05.587Z,0.0129,-0.9746,0.1906,-0.0663,-0.1375,-0.0621,-0.0300,0.0341,0.0014,-2.3051,1.3810,3.0848
2024-10-11T12:53:05.597Z,0.0215,-0.9772,0.1850,-0.0663,-0.1375,-0.0621,-0.0259,0.0330,0.0051,-2.3051,1.3810,3.0848
2024-10-11T12:53:05.607Z,0.0212,-0.9807,0.1852,-0.1196,-0.0219,0.0157,-0.0268,0.0348,0.0019,-2.3054,1.3818,3.0858
2024-10-11T12:53:05.618Z,0.0195,-0.9737,0.1872,-0.1196,-0.0219,0.0157,-0.0251,0.0294,0.0049,-2.3054,1.3818,3.0858
2024-10-11T12:53:05.627Z,0.0226,-0.9788,0.1825,-0.1196,-0.0219,0.0157,-0.0250,0.0323,0.0026,-2.3054,1.3818,3.0858
2024-10-11T12:53:05.637Z,0.0209,-0.9852,0.1796,-0.0959,0.0158,0.0746,-0.0243,0.0386,0.0074,-2.3056,1.3826,3.0868
2024-10-11T12:53:05.648Z,0.0216,-0.9881,0.1815,-0.0959,0.0158,0.0746,-0.0253,0.0394,0.0043,-2.3056,1.3826,3.0868
2024-10-11T12:53:05.657Z,0.0187,-0.9881,0.1776,-0.0959,0.0158,0.0746,-0.0227,0.0355,0.0069,-2.3056,1.3826,3.0868
2024-10-11T12:53:05.667Z,0.0164,-0.9855,0.1791,-0.0721,0.0292,0.0621,-0.0197,0.0328,0.0048,-2.3063,1.3832,3.0883
2024-10-11T12:53:05.677Z,0.0173,-0.9791,0.1826,-0.0721,0.0292,0.0621,-0.0191,0.0274,0.0079,-2.3063,1.3832,3.0883
2024-10-11T12:53:05.687Z,0.0187,-0.9758,0.1873,-0.0721,0.0292,0.0621,-0.0189,0.0219,0.0044,-2.3063,1.3832,3.0883
2024-10-11T12:53:05.697Z,0.0135,-0.9763,0.1923,-0.0638,-0.0583,-0.0662,-0.0196,0.0226,0.0043,-2.3068,1.3837,3.0893
2024-10-11T12:53:05.707Z,0.0145,-0.9780,0.1861,-0.0638,-0.0583,-0.0662,-0.0205,0.0244,0.0045,-2.3068,1.3837,3.0893
2024-10-11T12:53:05.717Z,0.0155,-0.9771,0.1852,-0.0638,-0.0583,-0.0662,-0.0216,0.0274,0.0047,-2.3068,1.3837,3.0893
2024-10-11T12:53:05.726Z,0.0188,-0.9786,0.1862,-0.0775,-0.0537,0.0098,-0.0192,0.0217,0.0054,-2.3073,1.3843,3.0901
2024-10-11T12:53:05.737Z,0.0168,-0.9797,0.1806,-0.0775,-0.0537,0.0098,-0.0195,0.0212,0.0060,-2.3073,1.3843,3.0901
2024-10-11T12:53:05.747Z,0.0185,-0.9789,0.1821,-0.0775,-0.0537,0.0098,-0.0192,0.0156,0.0067,-2.3073,1.3843,3.0901
2024-10-11T12:53:05.757Z,0.0121,-0.9857,0.1773,-0.0710,0.0100,0.0637,-0.0164,0.0153,0.0055,-2.3079,1.3849,3.0910
2024-10-11T12:53:05.767Z,0.0090,-0.9897,0.1773,-0.0710,0.0100,0.0637,-0.0170,0.0141,0.0061,-2.3079,1.3849,3.0910
2024-10-11T12:53:05.777Z,0.0072,-0.9865,0.1749,-0.0710,0.0100,0.0637,-0.0135,0.0126,0.0072,-2.3079,1.3849,3.0910
2024-10-11T12:53:05.788Z,0.0057,-0.9802,0.1781,0.0302,0.0057,0.1049,-0.0165,0.0142,0.0057,-2.3087,1.3853,3.0920
2024-10-11T12:53:05.797Z,0.0057,-0.9752,0.1794,0.0302,0.0057,0.1049,-0.0130,0.0073,0.0055,-2.3087,1.3853,3.0920
2024-10-11T12:53:05.807Z,0.0043,-0.9752,0.1827,0.0302,0.0057,0.1049,-0.0149,0.0040,0.0019,-2.3087,1.3853,3.0920
2024-10-11T12:53:05.819Z,0.0044,-0.9791,0.1783,0.0605,-0.0669,0.0276,-0.0132,0.0022,0.0008,-2.3090,1.3857,3.0921
2024-10-11T12:53:05.827Z,0.0076,-0.9875,0.1788,0.0605,-0.0669,0.0276,-0.0098,-0.0054,0.0018,-2.3090,1.3857,3.0921
2024-10-11T12:53:05.837Z,0.0012,-0.9881,0.1747,0.0605,-0.0669,0.0276,-0.0088,-0.0045,-0.0004,-2.3090,1.3857,3.0921
2024-10-11T12:53:05.847Z,0.0061,-0.9908,0.1814,0.0503,0.0553,0.0186,-0.0066,-0.0030,0.0029,-2.3091,1.3859,3.0919
2024-10-11T12:53:05.857Z,0.0051,-0.9904,0.1819,0.0503,0.0553,0.0186,-0.0068,-0.0042,-0.0010,-2.3091,1.3859,3.0919
2024-10-11T12:53:05.868Z,-0.0001,-0.9892,0.1810,0.0503,0.0553,0.0186,-0.0030,-0.0050,-0.0015,-2.3091,1.3859,3.0919
2024-10-11T12:53:05.876Z,0.0015,-0.9887,0.1896,0.0829,0.0533,-0.0388,-0.0073,-0.0076,-0.0017,-2.3091,1.3862,3.0915
2024-10-11T12:53:05.887Z,0.0022,-0.9863,0.1941,0.0829,0.0533,-0.0388,-0.0096,-0.0049,-0.0023,-2.3091,1.3862,3.0915
2024-10-11T12:53:05.897Z,0.0021,-0.9833,0.1903,0.0829,0.0533,-0.0388,-0.0087,-0.0051,-0.0038,-2.3091,1.3862,3.0915
2024-10-11T12:53:05.907Z,0.0018,-0.9778,0.1906,0.0751,-0.0478,-0.0813,-0.0091,-0.0048,-0.0028,-2.3088,1.3864,3.0908
2024-10-11T12:53:05.917Z,0.0033,-0.9736,0.1900,0.0751,-0.0478,-0.0813,-0.0108,0.0006,-0.0029,-2.3088,1.3864,3.0908
2024-10-11T12:53:05.927Z,0.0050,-0.9807,0.1842,0.0751,-0.0478,-0.0813,-0.0120,-0.0012,-0.0016,-2.3088,1.3864,3.0908
2024-10-11T12:53:05.937Z,0.0079,-0.9819,0.1913,0.0286,-0.0070,-0.0335,-0.0110,-0.0020,-0.0019,-2.3084,1.3868,3.0902
2024-10-11T12:53:05.947Z,0.0071,-0.9806,0.1833,0.0286,-0.0070,-0.0335,-0.0130,0.0019,-0.0011,-2.3084,1.3868,3.0902
2024-10-11T12:53:05.957Z,0.0086,-0.9776,0.1813,0.0286,-0.0070,-0.0335,-0.0119,0.0008,0.0001,-2.3084,1.3868,3.0902
2024-10-11T12:53:05.967Z,0.0060,-0.9682,0.1786,0.0181,-0.1074,0.0627,-0.0093,0.0000,0.0010,-2.3087,1.3871,3.0903
2024-10-11T12:53:05.977Z,0.0053,-0.9662,0.1799,0.0181,-0.1074,0.0627,-0.0107,-0.0015,-0.0003,-2.3087,1.3871,3.0903
2024-10-11T12:53:05.987Z,0.0042,-0.9644,0.1795,0.0181,-0.1074,0.0627,-0.0140,0.0057,0.0038,-2.3087,1.3871,3.0903
2024-10-11T12:53:05.997Z,0.0053,-0.9657,0.1824,0.0359,-0.1789,-0.0010,-0.0120,0.0066,0.0013,-2.3092,1.3874,3.0906
2024-10-11T12:53:06.007Z,0.0031,-0.9690,0.1830,0.0359,-0.1789,-0.0010,-0.0121,0.0078,0.0002,-2.3092,1.3874,3.0906
2024-10-11T12:53:06.018Z,0.0041,-0.9775,0.1783,0.0359,-0.1789,-0.0010,-0.0134,0.0138,-0.0006,-2.3092,1.3874,3.0906
2024-10-11T12:53:06.027Z,0.0050,-0.9832,0.1773,0.0425,-0.0221,0.0663,-0.0078,0.0116,0.0005,-2.3095,1.3877,3.0910
2024-10-11T12:53:06.037Z,0.0111,-0.9851,0.1779,0.0425,-0.0221,0.0663,-0.0075,0.0072,0.0039,-2.3095,1.3877,3.0910
2024-10-11T12:53:06.047Z,0.0136,-0.9872,0.1810,0.0425,-0.0221,0.0663,-0.0054,0.0121,0.0036,-2.3095,1.3877,3.0910
2024-10-11T12:53:06.057Z,0.0137,-0.9897,0.1721,-0.0443,0.0656,0.0897,-0.0028,0.0161,0.0042,-2.3102,1.3879,3.0918
2024-10-11T12:53:06.068Z,0.0136,-0.9835,0.1770,-0.0443,0.0656,0.0897,-0.0033,0.0198,0.0041,-2.3102,1.3879,3.0918
2024-10-11T12:53:06.078Z,0.0097,-0.9819,0.1732,-0.0443,0.0656,0.0897,-0.0021,0.0217,0.0064,-2.3102,1.3879,3.0918
2024-10-11T12:53:06.088Z,0.0123,-0.9789,0.1760,-0.0280,-0.0348,0.0613,-0.0017,0.0240,0.0075,-2.3114,1.3879,3.0934
2024-10-11T12:53:06.097Z,0.0074,-0.9786,0.1789,-0.0280,-0.0348,0.0613,0.0014,0.0220,0.0056,-2.3114,1.3879,3.0934
2024-10-11T12:53:06.107Z,0.0107,-0.9821,0.1797,-0.0280,-0.0348,0.0613,-0.0005,0.0228,0.0073,-2.3114,1.3879,3.0934
2024-10-11T12:53:06.117Z,0.0085,-0.9853,0.1825,-0.0196,0.0111,0.0045,0.0005,0.0221,0.0069,-2.3126,1.3880,3.0951
2024-10-11T12:53:06.127Z,0.0042,-0.9895,0.1802,-0.0196,0.0111,0.0045,-0.0002,0.0288,0.0066,-2.3126,1.3880,3.0951
2024-10-11T12:53:06.137Z,0.0042,-0.9892,0.1772,-0.0196,0.0111,0.0045,0.0011,0.0251,0.0062,-2.3126,1.3880,3.0951
2024-10-11T12:53:06.147Z,-0.0031,-0.9891,0.1727,0.0879,0.0587,0.0641,0.0011,0.0250,0.0052,-2.3137,1.3880,3.0966
2024-10-11T12:53:06.157Z,0.0013,-0.9855,0.1839,0.0879,0.0587,0.0641,0.0022,0.0199,0.0039,-2.3137,1.3880,3.0966
2024-10-11T12:53:06.167Z,0.0002,-0.9869,0.1826,0.0879,0.0587,0.0641,0.0021,0.0198,0.0045,-2.3137,1.3880,3.0966
2024-10-11T12:53:06.177Z,-0.0007,-0.9886,0.1786,0.0737,0.0388,-0.0168,0.0043,0.0146,-0.0002,-2.3141,1.3880,3.0974
2024-10-11T12:53:06.187Z,-0.0001,-0.9846,0.1824,0.0737,0.0388,-0.0168,0.0046,0.0127,0.0010,-2.3141,1.3880,3.0974
2024-10-11T12:53:06.197Z,0.0023,-0.9786,0.1872,0.0737,0.0388,-0.0168,0.0048,0.0124,-0.0012,-2.3141,1.3880,3.0974
2024-10-11T12:53:06.207Z,0.0047,-0.9793,0.1822,0.0331,-0.0431,-0.0234,0.0061,0.0084,-0.0000,-2.3142,1.3878,3.0976
2024-10-11T12:53:06.217Z,-0.0008,-0.9778,0.1813,0.0331,-0.0431,-0.0234,0.0068,0.0060,-0.0037,-2.3142,1.3878,3.0976
2024-10-11T12:53:06.227Z,0.0001,-0.9803,0.1842,0.0331,-0.0431,-0.0234,0.0032,0.0100,-0.0054,-2.3142,1.3878,3.0976
2024-10-11T12:53:06.236Z,0.0009,-0.9880,0.1864,0.0676,0.0121,-0.0246,0.0004,0.0101,-0.0053,-2.3139,1.3878,3.0973
2024-10-11T12:53:06.247Z,0.0035,-0.9913,0.1864,0.0676,0.0121,-0.0246,0.0012,0.0074,-0.0071,-2.3139,1.3878,3.0973
2024-10-11T12:53:06.257Z,0.0018,-0.9924,0.1847,0.0676,0.0121,-0.0246,0.0053,0.0025,-0.0086,-2.3139,1.3878,3.0973
2024-10-11T12:53:06.267Z,-0.0033,-0.9910,0.1870,0.1163,0.0775,-0.0144,0.0038,0.0039,-0.0095,-2.3131,1.3877,3.0965
2024-10-11T12:53:06.277Z,-0.0007,-0.9928,0.1906,0.1163,0.0775,-0.0144,-0.0006,0.0007,-0.0098,-2.3131,1.3877,3.0965
2024-10-11T12:53:06.287Z,-0.0020,-0.9973,0.1978,0.1163,0.0775,-0.0144,-0.0033,0.0009,-0.0111,-2.3131,1.3877,3.0965
2024-10-11T12:53:06.297Z,0.0009,-0.9980,0.1919,0.0849,0.1539,-0.0889,-0.0019,0.0057,-0.0131,-2.3119,1.3876,3.0950
2024-10-11T12:53:06.308Z,0.0022,-0.9967,0.1884,0.0849,0.1539,-0.0889,-0.0058,0.0031,-0.0109,-2.3119,1.3876,3.0950
2024-10-11T12:53:06.317Z,0.0039,-0.9867,0.1914,0.0849,0.1539,-0.0889,-0.0051,0.0035,-0.0118,-2.3119,1.3876,3.0950
2024-10-11T12:53:06.327Z,0.0026,-0.9838,0.1834,0.0526,0.0082,-0.0393,-0.0077,0.0018,-0.0096,-2.3105,1.3878,3.0934
2024-10-11T12:53:06.336Z,0.0052,-0.9868,0.1844,0.0526,0.0082,-0.0393,-0.0049,0.0069,-0.0100,-2.3105,1.3878,3.0934
2024-10-11T12:53:06.347Z,0.0057,-0.9905,0.1837,0.0526,0.0082,-0.0393,-0.0054,0.0044,-0.0085,-2.3105,1.3878,3.0934
2024-10-11T12:53:06.357Z,0.0055,-0.9952,0.1830,0.0309,0.1035,-0.0377,-0.0094,0.0106,-0.0087,-2.3093,1.3880,3.0922
2024-10-11T12:53:06.367Z,0.0115,-0.9913,0.1842,0.0309,0.1035,-0.0377,-0.0064,0.0148,-0.0071,-2.3093,1.3880,3.0922
2024-10-11T12:53:06.377Z,0.0140,-0.9861,0.1812,0.0309,0.1035,-0.0377,-0.0112,0.0195,-0.0054,-2.3093,1.3880,3.0922
2024-10-11T12:53:06.386Z,0.0121,-0.9791,0.1841,-0.0392,-0.0225,-0.0244,-0.0102,0.0248,-0.0056,-2.3087,1.3882,3.0920
2024-10-11T12:53:06.397Z,0.0103,-0.9780,0.1866,-0.0392,-0.0225,-0.0244,-0.0121,0.0307,-0.0019,-2.3087,1.3882,3.0920
2024-10-11T12:53:06.407Z,0.0134,-0.9797,0.1849,-0.0392,-0.0225,-0.0244,-0.0113,0.0318,0.0026,-2.3087,1.3882,3.0920
2024-10-11T12:53:06.417Z,0.0128,-0.9810,0.1776,-0.0341,-0.0309,-0.0075,-0.0111,0.0323,-0.0000,-2.3088,1.3885,3.0928
2024-10-11T12:53:06.427Z,0.0054,-0.9840,0.1730,-0.0341,-0.0309,-0.0075,-0.0111,0.0366,0.0009,-2.3088,1.3885,3.0928
2024-10-11T12:53:06.436Z,0.0068,-0.9849,0.1734,-0.0341,-0.0309,-0.0075,-0.0127,0.0433,0.0004,-2.3088,1.3885,3.0928
2024-10-11T12:53:06.447Z,0.0084,-0.9867,0.1770,0.0098,0.0105,0.0383,-0.0084,0.0451,-0.0010,-2.3090,1.3888,3.0940
2024-10-11T12:53:06.457Z,0.0095,-0.9906,0.1731,0.0098,0.0105,0.0383,-0.0072,0.0472,-0.0006,-2.3090,1.3888,3.0940
2024-10-11T12:53:06.467Z,0.0115,-0.9912,0.1761,0.0098,0.0105,0.0383,-0.0081,0.0487,0.0008,-2.3090,1.3888,3.0940
2024-10-11T12:53:06.477Z,0.0148,-0.9897,0.1731,-0.0442,0.0718,0.0628,-0.0037,0.0478,0.0024,-2.3090,1.3889,3.0951
2024-10-11T12:53:06.487Z,0.0152,-0.9857,0.1722,-0.0442,0.0718,0.0628,-0.0056,0.0492,0.0014,-2.3090,1.3889,3.0951
2024-10-11T12:53:06.497Z,0.0140,-0.9811,0.1777,-0.0442,0.0718,0.0628,-0.0034,0.0501,0.0024,-2.3090,1.3889,3.0951
2024-10-11T12:53:06.507Z,0.0119,-0.9788,0.1739,-0.0526,-0.0389,0.0437,-0.0057,0.0496,0.0016,-2.3094,1.3891,3.0968
2024-10-11T12:53:06.519Z,0.0056,-0.9834,0.1748,-0.0526,-0.0389,0.0437,-0.0058,0.0498,0.0031,-2.3094,1.3891,3.0968
2024-10-11T12:53:06.527Z,0.0067,-0.9843,0.1690,-0.0526,-0.0389,0.0437,-0.0029,0.0512,0.0032,-2.3094,1.3891,3.0968
2024-10-11T12:53:06.537Z,0.0041,-0.9866,0.1709,0.0114,0.0203,0.0849,-0.0021,0.0521,0.0019,-2.3098,1.3892,3.0985
2024-10-11T12:53:06.547Z,-0.0004,-0.9889,0.1701,0.0114,0.0203,0.0849,-0.0004,0.0503,-0.0017,-2.3098,1.3892,3.0985
2024-10-11T12:53:06.557Z,0.0000,-0.9874,0.1757,0.0114,0.0203,0.0849,0.0021,0.0491,-0.0023,-2.3098,1.3892,3.0985
2024-10-11T12:53:06.567Z,0.0040,-0.9873,0.1828,0.0511,0.0408,0.0091,-0.0024,0.0521,-0.0021,-2.3094,1.3892,3.0994
2024-10-11T12:53:06.577Z,0.0054,-0.9852,0.1822,0.0511,0.0408,0.0091,0.0007,0.0509,-0.0031,-2.3094,1.3892,3.0994
2024-10-11T12:53:06.587Z,0.0044,-0.9811,0.1862,0.0511,0.0408,0.0091,-0.0006,0.0495,-0.0041,-2.3094,1.3892,3.0994
2024-10-11T12:53:06.597Z,0.0042,-0.9774,0.1868,0.0343,-0.0479,-0.0542,-0.0042,0.0547,-0.0035,-2.3086,1.3892,3.0999
2024-10-11T12:53:06.607Z,0.0085,-0.9790,0.1862,0.0343,-0.0479,-0.0542,-0.0057,0.0564,-0.0047,-2.3086,1.3892,3.0999
2024-10-11T12:53:06.617Z,0.0091,-0.9781,0.1850,0.0343,-0.0479,-0.0542,-0.0011,0.0508,-0.0028,-2.3086,1.3892,3.0999
2024-10-11T12:53:06.627Z,0.0004,-0.9807,0.1826,0.0129,-0.0276,-0.0370,-0.0037,0.0445,-0.0046,-2.3081,1.3894,3.1008
2024-10-11T12:53:06.637Z,-0.0033,-0.9863,0.1768,0.0129,-0.0276,-0.0370,0.0016,0.0436,-0.0063,-2.3081,1.3894,3.1008
2024-10-11T12:53:06.647Z,0.0016,-0.9922,0.1729,0.0129,-0.0276,-0.0370,-0.0025,0.0454,-0.0055,-2.3081,1.3894,3.1008
2024-10-11T12:53:06.657Z,0.0014,-0.9945,0.1735,0.0446,0.1043,0.0855,-0.0011,0.0439,-0.0078,-2.3076,1.3894,3.1013
2024-10-11T12:53:06.667Z,-0.0014,-0.9979,0.1761,0.0446,0.1043,0.0855,0.0005,0.0458,-0.0062,-2.3076,1.3894,3.1013
2024-10-11T12:53:06.677Z,0.0019,-0.9987,0.1749,0.0446,0.1043,0.0855,0.0032,0.0419,-0.0047,-2.3076,1.3894,3.1013
2024-10-11T12:53:06.687Z,-0.0009,-1.0005,0.1749,0.0706,0.1574,0.0353,0.0015,0.0395,-0.0075,-2.3068,1.3893,3.1015
2024-10-11T12:53:06.697Z,-0.0018,-0.9996,0.1841,0.0706,0.1574,0.0353,0.0001,0.0335,-0.0060,-2.3068,1.3893,3.1015
2024-10-11T12:53:06.707Z,-0.0026,-1.0033,0.1806,0.0706,0.1574,0.0353,0.0005,0.0349,-0.0068,-2.3068,1.3893,3.1015
2024-10-11T12:53:06.719Z,0.0015,-1.0003,0.1859,0.0871,0.1765,-0.0468,-0.0031,0.0359,-0.0076,-2.3057,1.3893,3.1015
2024-10-11T12:53:06.727Z,0.0023,-0.9971,0.1855,0.0871,0.1765,-0.0468,-0.0039,0.0360,-0.0092,-2.3057,1.3893,3.1015
2024-10-11T12:53:06.738Z,0.0012,-0.9875,0.1828,0.0871,0.1765,-0.0468,-0.0044,0.0401,-0.0079,-2.3057,1.3893,3.1015
2024-10-11T12:53:06.748Z,0.0043,-0.9864,0.1787,0.0272,0.0266,0.0239,-0.0119,0.0439,-0.0081,-2.3049,1.3895,3.1015
2024-10-11T12:53:06.757Z,0.0015,-0.9816,0.1849,0.0272,0.0266,0.0239,-0.0106,0.0430,-0.0053,-2.3049,1.3895,3.1015
2024-10-11T12:53:06.767Z,0.0065,-0.9859,0.1859,0.0272,0.0266,0.0239,-0.0129,0.0432,-0.0058,-2.3049,1.3895,3.1015
2024-10-11T12:53:06.777Z,0.0064,-0.9849,0.1845,0.0099,0.0383,-0.0415,-0.0136,0.0451,-0.0031,-2.3044,1.3898,3.1020
2024-10-11T12:53:06.787Z,0.0094,-0.9795,0.1913,0.0099,0.0383,-0.0415,-0.0180,0.0444,-0.0037,-2.3044,1.3898,3.1020
2024-10-11T12:53:06.797Z,0.0045,-0.9757,0.1918,0.0099,0.0383,-0.0415,-0.0184,0.0479,-0.0039,-2.3044,1.3898,3.1020
2024-10-11T12:53:06.807Z,0.0094,-0.9721,0.1944,-0.0033,-0.0944,-0.1270,-0.0210,0.0513,-0.0007,-2.3040,1.3903,3.1029
2024-10-11T12:53:06.817Z,0.0097,-0.9701,0.1915,-0.0033,-0.0944,-0.1270,-0.0270,0.0577,0.0008,-2.3040,1.3903,3.1029
2024-10-11T12:53:06.827Z,0.0086,-0.9665,0.1879,-0.0033,-0.0944,-0.1270,-0.0282,0.0557,-0.0009,-2.3040,1.3903,3.1029
2024-10-11T12:53:06.836Z,0.0020,-0.9666,0.1755,0.0270,-0.1691,0.0099,-0.0255,0.0569,0.0001,-2.3041,1.3910,3.1044
2024-10-11T12:53:06.849Z,0.0019,-0.9652,0.1788,0.0270,-0.1691,0.0099,-0.0239,0.0546,-0.0038,-2.3041,1.3910,3.1044
2024-10-11T12:53:06.857Z,0.0056,-0.9654,0.1764,0.0270,-0.1691,0.0099,-0.0239,0.0546,-0.0038,-2.3041,1.3910,3.1044
2024-10-11T12:53:06.868Z,-0.0027,-0.9741,0.1722,0.0615,-0.1228,0.0246,-0.0203,0.0581,-0.0027,-2.3037,1.3917,3.1055
2024-10-11T12:53:06.877Z,0.0037,-0.9796,0.1718,0.0615,-0.1228,0.0246,-0.0240,0.0622,-0.0039,-2.3037,1.3917,3.1055
2024-10-11T12:53:06.888Z,0.0078,-0.9801,0.1724,0.0615,-0.1228,0.0246,-0.0214,0.0682,-0.0056,-2.3037,1.3917,3.1055
2024-10-11T12:53:06.898Z,0.0177,-0.9779,0.1651,-0.0636,-0.0650,0.0928,-0.0184,0.0714,-0.0012,-2.3030,1.3922,3.1064
2024-10-11T12:53:06.907Z,0.0216,-0.9744,0.1622,-0.0636,-0.0650,0.0928,-0.0184,0.0714,-0.0012,-2.3030,1.3922,3.1064
2024-10-11T12:53:06.920Z,0.0161,-0.9701,0.1658,-0.1075,-0.1087,0.1218,-0.0199,0.0743,-0.0011,-2.3035,1.3929,3.1088
2024-10-11T12:53:06.927Z,0.0150,-0.9744,0.1638,-0.1075,-0.1087,0.1218,-0.0166,0.0673,0.0001,-2.3035,1.3929,3.1088
2024-10-11T12:53:06.938Z,0.0083,-0.9760,0.1679,-0.1075,-0.1087,0.1218,-0.0157,0.0639,0.0011,-2.3035,1.3929,3.1088
2024-10-11T12:53:06.947Z,0.0119,-0.9769,0.1642,-0.1075,-0.1087,0.1218,-0.0157,0.0639,0.0011,-2.3035,1.3929,3.1088
2024-10-11T12:53:06.956Z,0.0077,-0.9752,0.1657,-0.0539,-0.0929,0.1072,-0.0129,0.0569,-0.0018,-2.3042,1.3935,3.1111
2024-10-11T12:53:06.968Z,0.0108,-0.9747,0.1681,-0.0539,-0.0929,0.1072,-0.0125,0.0529,0.0007,-2.3042,1.3935,3.1111
2024-10-11T12:53:06.978Z,0.0146,-0.9721,0.1755,-0.0539,-0.0929,0.1072,-0.0121,0.0457,-0.0010,-2.3042,1.3935,3.1111
2024-10-11T12:53:06.988Z,0.0098,-0.9732,0.1765,-0.0760,-0.1220,-0.0004,-0.0132,0.0390,-0.0021,-2.3043,1.3939,3.1125
2024-10-11T12:53:06.998Z,0.0041,-0.9757,0.1747,-0.0760,-0.1220,-0.0004,-0.0156,0.0369,-0.0028,-2.3043,1.3939,3.1125
2024-10-11T12:53:07.008Z,0.0056,-0.9723,0.1808,-0.0760,-0.1220,-0.0004,-0.0153,0.0374,-0.0038,-2.3043,1.3939,3.1125
2024-10-11T12:53:07.018Z,0.0052,-0.9693,0.1750,0.0014,-0.1440,-0.0247,-0.0153,0.0374,-0.0038,-2.3041,1.3944,3.1133
2024-10-11T12:53:07.028Z,0.0056,-0.9695,0.1754,0.0014,-0.1440,-0.0247,-0.0154,0.0264,-0.0065,-2.3041,1.3944,3.1133
2024-10-11T12:53:07.038Z,0.0001,-0.9716,0.1810,0.0014,-0.1440,-0.0247,-0.0155,0.0258,-0.0095,-2.3041,1.3944,3.1133
2024-10-11T12:53:07.048Z,0.0023,-0.9773,0.1783,0.0304,-0.0937,-0.0492,-0.0158,0.0150,-0.0086,-2.3032,1.3948,3.1130
2024-10-11T12:53:07.057Z,-0.0007,-0.9841,0.1742,0.0304,-0.0937,-0.0492,-0.0158,0.0150,-0.0086,-2.3032,1.3948,3.1130
2024-10-11T12:53:07.070Z,0.0022,-0.9875,0.1741,0.0191,0.0301,0.0406,-0.0117,0.0073,-0.0086,-2.3016,1.3952,3.1115
2024-10-11T12:53:07.077Z,0.0047,-0.9876,0.1701,0.0191,0.0301,0.0406,-0.0117,0.0073,-0.0086,-2.3016,1.3952,3.1115
2024-10-11T12:53:07.088Z,0.0122,-0.9911,0.1741,0.0191,0.0301,0.0406,-0.0088,0.0026,-0.0063,-2.3016,1.3952,3.1115
2024-10-11T12:53:07.097Z,0.0164,-0.9900,0.1731,0.0191,0.0301,0.0406,-0.0091,0.0017,-0.0098,-2.3016,1.3952,3.1115
2024-10-11T12:53:07.107Z,0.0093,-0.9914,0.1781,-0.0723,0.0681,-0.0361,-0.0077,0.0008,-0.0077,-2.3001,1.3954,3.1099
2024-10-11T12:53:07.119Z,0.0102,-0.9907,0.1785,-0.0723,0.0681,-0.0361,-0.0107,0.0051,-0.0065,-2.3001,1.3954,3.1099
2024-10-11T12:53:07.127Z,0.0107,-0.9938,0.1713,-0.0723,0.0681,-0.0361,-0.0082,0.0052,-0.0071,-2.3001,1.3954,3.1099
2024-10-11T12:53:07.138Z,0.0043,-0.9930,0.1795,-0.0024,0.0817,-0.0127,-0.0072,0.0001,-0.0085,-2.2989,1.3957,3.1085
2024-10-11T12:53:07.147Z,0.0043,-0.9857,0.1768,-0.0024,0.0817,-0.0127,-0.0116,0.0019,-0.0074,-2.2989,1.3957,3.1085
2024-10-11T12:53:07.158Z,0.0036,-0.9858,0.1833,-0.0024,0.0817,-0.0127,-0.0126,0.0014,-0.0089,-2.2989,1.3957,3.1085
2024-10-11T12:53:07.169Z,0.0084,-0.9835,0.1866,-0.0052,-0.0063,-0.1099,-0.0126,0.0014,-0.0089,-2.2977,1.3959,3.1071
2024-10-11T12:53:07.177Z,0.0097,-0.9834,0.1826,-0.0052,-0.0063,-0.1099,-0.0113,0.0006,-0.0055,-2.2977,1.3959,3.1071
2024-10-11T12:53:07.188Z,0.0080,-0.9850,0.1793,-0.0052,-0.0063,-0.1099,-0.0157,0.0045,-0.0058,-2.2977,1.3959,3.1071
2024-10-11T12:53:07.198Z,0.0145,-0.9843,0.1756,-0.0536,-0.0088,-0.0465,-0.0160,0.0085,-0.0042,-2.2965,1.3963,3.1058
2024-10-11T12:53:07.208Z,0.0157,-0.9818,0.1793,-0.0536,-0.0088,-0.0465,-0.0135,0.0093,0.0015,-2.2965,1.3963,3.1058
2024-10-11T12:53:07.221Z,0.0185,-0.9818,0.1852,-0.1344,-0.0544,-0.0731,-0.0144,0.0132,0.0009,-2.2962,1.3967,3.1055
2024-10-11T12:53:07.227Z,0.0180,-0.9792,0.1819,-0.1344,-0.0544,-0.0731,-0.0130,0.0135,0.0032,-2.2962,1.3967,3.1055
2024-10-11T12:53:07.238Z,0.0141,-0.9770,0.1746,-0.1344,-0.0544,-0.0731,-0.0139,0.0152,0.0027,-2.2962,1.3967,3.1055
2024-10-11T12:53:07.247Z,0.0167,-0.9766,0.1701,-0.1344,-0.0544,-0.0731,-0.0191,0.0155,0.0025,-2.2962,1.3967,3.1055
2024-10-11T12:53:07.257Z,0.0128,-0.9734,0.1710,-0.0783,-0.0915,0.0329,-0.0178,0.0173,0.0055,-2.2968,1.3971,3.1064
2024-10-11T12:53:07.269Z,0.0183,-0.9695,0.1789,-0.0783,-0.0915,0.0329,-0.0152,0.0146,0.0036,-2.2968,1.3971,3.1064
2024-10-11T12:53:07.277Z,0.0116,-0.9734,0.1756,-0.0783,-0.0915,0.0329,-0.0146,0.0125,0.0045,-2.2968,1.3971,3.1064
2024-10-11T12:53:07.288Z,0.0099,-0.9809,0.1719,-0.0404,-0.0716,-0.0362,-0.0124,0.0111,0.0072,-2.2975,1.3976,3.1073
2024-10-11T12:53:07.297Z,0.0099,-0.9897,0.1630,-0.0404,-0.0716,-0.0362,-0.0114,0.0104,0.0052,-2.2975,1.3976,3.1073
2024-10-11T12:53:07.308Z,0.0061,-0.9940,0.1542,-0.0262,0.0537,0.1918,-0.0074,0.0142,0.0059,-2.2983,1.3979,3.1082
2024-10-11T12:53:07.318Z,0.0122,-0.9898,0.1531,-0.0262,0.0537,0.1918,-0.0074,0.0225,0.0070,-2.2983,1.3979,3.1082
2024-10-11T12:53:07.327Z,0.0161,-0.9915,0.1508,-0.0262,0.0537,0.1918,-0.0051,0.0212,0.0078,-2.2983,1.3979,3.1082
2024-10-11T12:53:07.338Z,0.0155,-0.9875,0.1546,-0.0262,0.0537,0.1918,-0.0025,0.0188,0.0061,-2.2983,1.3979,3.1082
2024-10-11T12:53:07.347Z,0.0078,-0.9831,0.1529,-0.0581,-0.0063,0.1720,-0.0034,0.0141,0.0057,-2.2992,1.3980,3.1094
2024-10-11T12:53:07.357Z,0.0038,-0.9871,0.1600,-0.0581,-0.0063,0.1720,-0.0017,0.0159,0.0071,-2.2992,1.3980,3.1094
2024-10-11T12:53:07.369Z,0.0047,-0.9857,0.1609,0.0093,-0.0078,0.0860,-0.0025,0.0139,0.0027,-2.3002,1.3980,3.1106
2024-10-11T12:53:07.377Z,0.0043,-0.9844,0.1643,0.0093,-0.0078,0.0860,-0.0019,0.0101,0.0045,-2.3002,1.3980,3.1106
2024-10-11T12:53:07.388Z,-0.0015,-0.9797,0.1729,0.0093,-0.0078,0.0860,-0.0022,0.0089,0.0029,-2.3002,1.3980,3.1106
2024-10-11T12:53:07.397Z,-0.0009,-0.9830,0.1717,0.0093,-0.0078,0.0860,-0.0033,0.0067,-0.0004,-2.3002,1.3980,3.1106
2024-10-11T12:53:07.408Z,-0.0029,-0.9827,0.1691,0.0690,-0.0177,0.0185,-0.0030,0.0050,-0.0009,-2.3006,1.3982,3.1110
2024-10-11T12:53:07.420Z,0.0003,-0.9844,0.1664,0.0690,-0.0177,0.0185,-0.0025,0.0048,-0.0014,-2.3006,1.3982,3.1110
2024-10-11T12:53:07.428Z,0.0027,-0.9812,0.1719,0.0493,-0.0630,-0.0352,-0.0021,0.0047,-0.0013,-2.3005,1.3984,3.1108
2024-10-11T12:53:07.437Z,0.0008,-0.9779,0.1763,0.0493,-0.0630,-0.0352,-0.0046,0.0043,-0.0039,-2.3005,1.3984,3.1108
2024-10-11T12:53:07.447Z,0.0027,-0.9766,0.1794,0.0493,-0.0630,-0.0352,-0.0038,-0.0006,-0.0018,-2.3005,1.3984,3.1108
2024-10-11T12:53:07.457Z,0.0034,-0.9807,0.1760,0.0493,-0.0630,-0.0352,-0.0056,0.0017,-0.0016,-2.3005,1.3984,3.1108
2024-10-11T12:53:07.467Z,0.0010,-0.9891,0.1783,0.0089,0.0038,-0.0587,-0.0078,0.0014,-0.0014,-2.3005,1.3985,3.1106
2024-10-11T12:53:07.477Z,-0.0084,-0.9910,0.1715,0.0089,0.0038,-0.0587,-0.0076,0.0012,-0.0039,-2.3005,1.3985,3.1106
2024-10-11T12:53:07.487Z,-0.0042,-0.9966,0.1704,0.0089,0.0038,-0.0587,-0.0066,-0.0037,-0.0038,-2.3005,1.3985,3.1106
2024-10-11T12:53:07.497Z,0.0057,-0.9942,0.1681,0.0355,0.0951,0.0357,-0.0067,-0.0022,-0.0055,-2.3003,1.3987,3.1100
2024-10-11T12:53:07.507Z,-0.0014,-0.9957,0.1680,0.0355,0.0951,0.0357,-0.0060,-0.0027,-0.0051,-2.3003,1.3987,3.1100
2024-10-11T12:53:07.517Z,-0.0040,-0.9938,0.1705,0.0595,0.0987,0.0733,-0.0074,-0.0007,-0.0057,-2.2994,1.3988,3.1087
2024-10-11T12:53:07.527Z,-0.0002,-0.9960,0.1611,0.0595,0.0987,0.0733,-0.0067,0.0044,-0.0065,-2.2994,1.3988,3.1087
2024-10-11T12:53:07.537Z,-0.0032,-0.9935,0.1634,0.0595,0.0987,0.0733,-0.0064,0.0048,-0.0068,-2.2994,1.3988,3.1087
2024-10-11T12:53:07.548Z,-0.0066,-0.9920,0.1656,0.1575,0.0828,-0.0087,-0.0074,0.0031,-0.0084,-2.2983,1.3990,3.1074
2024-10-11T12:53:07.557Z,-0.0102,-0.9927,0.1724,0.1575,0.0828,-0.0087,-0.0090,-0.0009,-0.0139,-2.2983,1.3990,3.1074
2024-10-11T12:53:07.567Z,-0.0000,-0.9916,0.1794,0.1575,0.0828,-0.0087,-0.0098,-0.0005,-0.0099,-2.2983,1.3990,3.1074
2024-10-11T12:53:07.577Z,-0.0014,-0.9935,0.1829,0.1575,0.0828,-0.0087,-0.0133,0.0013,-0.0083,-2.2983,1.3990,3.1074
2024-10-11T12:53:07.586Z,0.0077,-0.9891,0.1836,0.0307,0.0508,-0.1238,-0.0133,0.0013,-0.0083,-2.2967,1.3992,3.1056
2024-10-11T12:53:07.598Z,0.0027,-0.9914,0.1843,0.0307,0.0508,-0.1238,-0.0180,0.0068,-0.0101,-2.2967,1.3992,3.1056
2024-10-11T12:53:07.609Z,0.0043,-0.9849,0.1816,-0.0309,0.0081,-0.0899,-0.0170,0.0086,-0.0072,-2.2953,1.3997,3.1041
2024-10-11T12:53:07.618Z,0.0086,-0.9862,0.1764,-0.0309,0.0081,-0.0899,-0.0205,0.0113,-0.0050,-2.2953,1.3997,3.1041
2024-10-11T12:53:07.628Z,0.0106,-0.9840,0.1837,-0.0309,0.0081,-0.0899,-0.0189,0.0143,-0.0078,-2.2953,1.3997,3.1041
2024-10-11T12:53:07.638Z,0.0076,-0.9799,0.1805,-0.0309,0.0081,-0.0899,-0.0248,0.0156,-0.0065,-2.2953,1.3997,3.1041
2024-10-11T12:53:07.647Z,0.0088,-0.9811,0.1796,0.0003,-0.0523,-0.1211,-0.0207,0.0123,-0.0039,-2.2943,1.4003,3.1033
2024-10-11T12:53:07.657Z,0.0092,-0.9759,0.1768,0.0003,-0.0523,-0.1211,-0.0217,0.0095,-0.0049,-2.2943,1.4003,3.1033
2024-10-11T12:53:07.668Z,0.0057,-0.9748,0.1763,0.0335,-0.1133,-0.1024,-0.0209,0.0131,-0.0049,-2.2934,1.4009,3.1026
2024-10-11T12:53:07.677Z,0.0032,-0.9730,0.1835,0.0335,-0.1133,-0.1024,-0.0223,0.0159,-0.0025,-2.2934,1.4009,3.1026
2024-10-11T12:53:07.687Z,0.0053,-0.9755,0.1764,0.0335,-0.1133,-0.1024,-0.0204,0.0112,0.0003,-2.2934,1.4009,3.1026
2024-10-11T12:53:07.697Z,0.0082,-0.9761,0.1773,0.0158,-0.0588,-0.0313,-0.0178,0.0153,-0.0035,-2.2928,1.4014,3.1021
2024-10-11T12:53:07.707Z,0.0041,-0.9815,0.1684,0.0158,-0.0588,-0.0313,-0.0153,0.0141,-0.0015,-2.2928,1.4014,3.1021
2024-10-11T12:53:07.717Z,0.0034,-0.9845,0.1635,0.0158,-0.0588,-0.0313,-0.0135,0.0146,-0.0030,-2.2928,1.4014,3.1021
2024-10-11T12:53:07.727Z,0.0045,-0.9858,0.1550,-0.0164,-0.0061,0.0920,-0.0082,0.0147,-0.0034,-2.2921,1.4017,3.1017
2024-10-11T12:53:07.737Z,0.0100,-0.9846,0.1583,-0.0164,-0.0061,0.0920,-0.0061,0.0177,-0.0032,-2.2921,1.4017,3.1017
2024-10-11T12:53:07.747Z,0.0087,-0.9843,0.1552,-0.0164,-0.0061,0.0920,-0.0057,0.0201,-0.0026,-2.2921,1.4017,3.1017
2024-10-11T12:53:07.758Z,0.0100,-0.9776,0.1599,-0.0273,-0.1079,0.1131,-0.0059,0.0171,-0.0037,-2.2919,1.4018,3.1018
2024-10-11T12:53:07.766Z,0.0101,-0.9743,0.1548,-0.0273,-0.1079,0.1131,-0.0033,0.0200,-0.0007,-2.2919,1.4018,3.1018
2024-10-11T12:53:07.777Z,0.0053,-0.9731,0.1569,-0.0273,-0.1079,0.1131,-0.0035,0.0181,0.0011,-2.2919,1.4018,3.1018
2024-10-11T12:53:07.788Z,0.0032,-0.9695,0.1663,0.0192,-0.1527,0.0197,-0.0035,0.0181,0.0011,-2.2920,1.4019,3.1022
2024-10-11T12:53:07.797Z,0.0029,-0.9700,0.1646,0.0192,-0.1527,0.0197,-0.0051,0.0165,-0.0010,-2.2920,1.4019,3.1022
2024-10-11T12:53:07.807Z,-0.0035,-0.9703,0.1691,0.0192,-0.1527,0.0197,-0.0066,0.0153,-0.0034,-2.2920,1.4019,3.1022
2024-10-11T12:53:07.817Z,0.0052,-0.9765,0.1586,0.0206,-0.0781,0.0825,-0.0092,0.0182,-0.0042,-2.2916,1.4022,3.1022
2024-10-11T12:53:07.827Z,0.0013,-0.9801,0.1590,0.0206,-0.0781,0.0825,-0.0058,0.0173,-0.0067,-2.2916,1.4022,3.1022
2024-10-11T12:53:07.837Z,-0.0015,-0.9830,0.1526,0.0206,-0.0781,0.0825,-0.0077,0.0196,-0.0042,-2.2916,1.4022,3.1022
2024-10-11T12:53:07.847Z,0.0017,-0.9832,0.1656,0.0278,-0.0448,0.0135,-0.0071,0.0181,-0.0067,-2.2905,1.4024,3.1013
2024-10-11T12:53:07.857Z,0.0085,-0.9793,0.1692,0.0278,-0.0448,0.0135,-0.0067,0.0105,-0.0080,-2.2905,1.4024,3.1013
2024-10-11T12:53:07.866Z,0.0117,-0.9863,0.1677,0.0278,-0.0448,0.0135,-0.0049,0.0084,-0.0072,-2.2905,1.4024,3.1013
2024-10-11T12:53:07.878Z,0.0096,-0.9878,0.1651,0.0019,0.0603,0.0216,-0.0045,0.0024,-0.0060,-2.2894,1.4025,3.1002
2024-10-11T12:53:07.888Z,0.0036,-0.9961,0.1613,0.0019,0.0603,0.0216,0.0008,-0.0019,-0.0079,-2.2894,1.4025,3.1002
2024-10-11T12:53:07.897Z,0.0029,-1.0033,0.1551,0.0019,0.0603,0.0216,0.0058,-0.0015,-0.0080,-2.2894,1.4025,3.1002
2024-10-11T12:53:07.907Z,0.0032,-1.0081,0.1565,0.0092,0.2389,0.0478,0.0037,-0.0008,-0.0080,-2.2881,1.4025,3.0987
2024-10-11T12:53:07.917Z,0.0087,-1.0112,0.1645,0.0092,0.2389,0.0478,0.0064,0.0006,-0.0076,-2.2881,1.4025,3.0987
2024-10-11T12:53:07.927Z,0.0172,-1.0138,0.1633,0.0092,0.2389,0.0478,0.0078,0.0031,-0.0028,-2.2881,1.4025,3.0987
2024-10-11T12:53:07.938Z,0.0190,-1.0195,0.1625,-0.1234,0.3686,0.0068,0.0078,0.0031,-0.0028,-2.2875,1.4022,3.0978
2024-10-11T12:53:07.947Z,0.0175,-1.0230,0.1683,-0.1234,0.3686,0.0068,0.0110,-0.0007,0.0026,-2.2875,1.4022,3.0978
2024-10-11T12:53:07.957Z,0.0086,-1.0188,0.1791,-0.1234,0.3686,0.0068,0.0088,-0.0002,-0.0000,-2.2875,1.4022,3.0978
2024-10-11T12:53:07.967Z,0.0100,-1.0157,0.1825,-0.0260,0.2772,-0.2536,0.0047,0.0014,-0.0013,-2.2877,1.4020,3.0978
2024-10-11T12:53:07.977Z,0.0068,-1.0144,0.1932,-0.0260,0.2772,-0.2536,0.0056,0.0012,0.0009,-2.2877,1.4020,3.0978
2024-10-11T12:53:07.987Z,0.0025,-1.0110,0.1935,-0.0260,0.2772,-0.2536,0.0014,0.0048,0.0027,-2.2877,1.4020,3.0978
2024-10-11T12:53:07.997Z,0.0007,-1.0115,0.1916,0.0293,0.2323,-0.2315,-0.0023,0.0095,0.0021,-2.2880,1.4020,3.0980
2024-10-11T12:53:08.007Z,0.0100,-1.0079,0.1908,0.0293,0.2323,-0.2315,-0.0023,0.0102,0.0035,-2.2880,1.4020,3.0980
2024-10-11T12:53:08.017Z,0.0082,-1.0016,0.1902,0.0293,0.2323,-0.2315,-0.0023,0.0122,0.0046,-2.2880,1.4020,3.0980
2024-10-11T12:53:08.027Z,0.0058,-0.9965,0.1951,-0.0057,0.0787,-0.2821,-0.0056,0.0157,0.0068,-2.2887,1.4022,3.0989
2024-10-11T12:53:08.039Z,0.0063,-0.9934,0.1957,-0.0057,0.0787,-0.2821,-0.0097,0.0241,0.0048,-2.2887,1.4022,3.0989
2024-10-11T12:53:08.047Z,0.0088,-0.9905,0.1933,-0.0057,0.0787,-0.2821,-0.0125,0.0365,0.0083,-2.2887,1.4022,3.0989
2024-10-11T12:53:08.058Z,0.0125,-0.9854,0.1905,-0.0700,0.0157,-0.1831,-0.0150,0.0415,0.0096,-2.2902,1.4025,3.1009
2024-10-11T12:53:08.068Z,0.0147,-0.9892,0.1871,-0.0700,0.0157,-0.1831,-0.0181,0.0437,0.0091,-2.2902,1.4025,3.1009
2024-10-11T12:53:08.077Z,0.0046,-0.9834,0.1916,-0.0700,0.0157,-0.1831,-0.0156,0.0447,0.0114,-2.2902,1.4025,3.1009
2024-10-11T12:53:08.089Z,0.0022,-0.9855,0.1891,0.0692,0.0036,-0.2217,-0.0170,0.0486,0.0093,-2.2924,1.4029,3.1042
2024-10-11T12:53:08.096Z,-0.0037,-0.9823,0.1910,0.0692,0.0036,-0.2217,-0.0167,0.0544,0.0109,-2.2924,1.4029,3.1042
2024-10-11T12:53:08.106Z,0.0016,-0.9866,0.1861,0.0692,0.0036,-0.2217,-0.0198,0.0597,0.0102,-2.2924,1.4029,3.1042
2024-10-11T12:53:08.117Z,-0.0024,-0.9924,0.1762,0.0477,0.0309,-0.0587,-0.0168,0.0616,0.0077,-2.2941,1.4034,3.1074
2024-10-11T12:53:08.127Z,0.0029,-0.9901,0.1705,0.0477,0.0309,-0.0587,-0.0217,0.0696,0.0077,-2.2941,1.4034,3.1074
2024-10-11T12:53:08.137Z,0.0023,-0.9908,0.1681,0.0477,0.0309,-0.0587,-0.0213,0.0677,0.0093,-2.2941,1.4034,3.1074
2024-10-11T12:53:08.147Z,0.0023,-0.9900,0.1719,0.0924,0.0520,-0.0568,-0.0215,0.0720,0.0060,-2.2952,1.4039,3.1102
2024-10-11T12:53:08.157Z,-0.0059,-0.9913,0.1673,0.0924,0.0520,-0.0568,-0.0207,0.0724,0.0065,-2.2952,1.4039,3.1102
2024-10-11T12:53:08.167Z,0.0048,-0.9945,0.1605,0.0924,0.0520,-0.0568,-0.0214,0.0744,0.0039,-2.2952,1.4039,3.1102
2024-10-11T12:53:08.177Z,-0.0016,-0.9920,0.1579,0.0981,0.0573,0.0713,-0.0256,0.0750,0.0051,-2.2964,1.4045,3.1134
2024-10-11T12:53:08.187Z,-0.0033,-0.9933,0.1556,0.0981,0.0573,0.0713,-0.0264,0.0784,0.0063,-2.2964,1.4045,3.1134
2024-10-11T12:53:08.197Z,-0.0043,-0.9970,0.1539,0.0981,0.0573,0.0713,-0.0297,0.0789,0.0078,-2.2964,1.4045,3.1134
2024-10-11T12:53:08.208Z,-0.0074,-0.9995,0.1547,0.0921,0.1195,0.1134,-0.0302,0.0816,0.0057,-2.2979,1.4054,3.1169
2024-10-11T12:53:08.217Z,-0.0066,-0.9992,0.1509,0.0921,0.1195,0.1134,-0.0317,0.0884,0.0019,-2.2979,1.4054,3.1169
2024-10-11T12:53:08.227Z,-0.0147,-1.0007,0.1558,0.0921,0.1195,0.1134,-0.0340,0.0865,0.0025,-2.2979,1.4054,3.1169
2024-10-11T12:53:08.239Z,-0.0123,-1.0003,0.1514,0.1447,0.1485,0.1305,-0.0348,0.0869,-0.0016,-2.2989,1.4064,3.1201
2024-10-11T12:53:08.247Z,-0.0124,-1.0009,0.1520,0.1447,0.1485,0.1305,-0.0361,0.0861,-0.0013,-2.2989,1.4064,3.1201
2024-10-11T12:53:08.257Z,-0.0107,-0.9922,0.1652,0.1447,0.1485,0.1305,-0.0391,0.0895,-0.0010,-2.2989,1.4064,3.1201
2024-10-11T12:53:08.267Z,-0.0117,-0.9861,0.1687,0.1582,-0.0519,-0.0696,-0.0441,0.0878,-0.0050,-2.2987,1.4076,3.1223
2024-10-11T12:53:08.278Z,-0.0121,-0.9806,0.1659,0.1582,-0.0519,-0.0696,-0.0443,0.0886,-0.0047,-2.2987,1.4076,3.1223
2024-10-11T12:53:08.288Z,-0.0096,-0.9805,0.1583,0.1582,-0.0519,-0.0696,-0.0463,0.0903,-0.0058,-2.2987,1.4076,3.1223
2024-10-11T12:53:08.297Z,-0.0083,-0.9809,0.1586,0.0816,-0.0802,-0.0085,-0.0426,0.0880,-0.0063,-2.2978,1.4090,3.1239
2024-10-11T12:53:08.307Z,-0.0075,-0.9795,0.1606,0.0816,-0.0802,-0.0085,-0.0421,0.0888,-0.0112,-2.2978,1.4090,3.1239
2024-10-11T12:53:08.317Z,-0.0116,-0.9827,0.1526,0.0816,-0.0802,-0.0085,-0.0445,0.0963,-0.0125,-2.2978,1.4090,3.1239
2024-10-11T12:53:08.327Z,-0.0055,-0.9805,0.1571,0.0602,-0.0849,0.0157,-0.0450,0.1046,-0.0132,-2.2961,1.4103,3.1248
2024-10-11T12:53:08.337Z,-0.0025,-0.9773,0.1595,0.0602,-0.0849,0.0157,-0.0430,0.1076,-0.0137,-2.2961,1.4103,3.1248
2024-10-11T12:53:08.347Z,-0.0028,-0.9767,0.1597,0.0602,-0.0849,0.0157,-0.0439,0.1096,-0.0192,-2.2961,1.4103,3.1248
2024-10-11T12:53:08.357Z,-0.0046,-0.9737,0.1646,0.0790,-0.1404,-0.0089,-0.0428,0.1104,-0.0186,-2.2933,1.4116,3.1251
2024-10-11T12:53:08.367Z,-0.0043,-0.9724,0.1588,0.0790,-0.1404,-0.0089,-0.0454,0.1090,-0.0225,-2.2933,1.4116,3.1251
2024-10-11T12:53:08.377Z,-0.0021,-0.9691,0.1611,0.0790,-0.1404,-0.0089,-0.0433,0.1026,-0.0214,-2.2933,1.4116,3.1251
2024-10-11T12:53:08.388Z,0.0001,-0.9678,0.1591,0.0142,-0.1899,0.0438,-0.0422,0.1004,-0.0230,-2.2894,1.4130,3.1240
2024-10-11T12:53:08.397Z,0.0008,-0.9692,0.1512,0.0142,-0.1899,0.0438,-0.0429,0.0976,-0.0203,-2.2894,1.4130,3.1240
2024-10-11T12:53:08.406Z,0.0044,-0.9736,0.1444,0.0142,-0.1899,0.0438,-0.0397,0.0969,-0.0253,-2.2894,1.4130,3.1240
2024-10-11T12:53:08.416Z,0.0070,-0.9747,0.1471,-0.0575,-0.1133,0.0760,-0.0356,0.0981,-0.0222,-2.2853,1.4142,3.1226
2024-10-11T12:53:08.427Z,0.0107,-0.9759,0.1495,-0.0575,-0.1133,0.0760,-0.0330,0.0981,-0.0236,-2.2853,1.4142,3.1226
2024-10-11T12:53:08.437Z,0.0141,-0.9706,0.1478,-0.0575,-0.1133,0.0760,-0.0328,0.0990,-0.0213,-2.2853,1.4142,3.1226
2024-10-11T12:53:08.447Z,0.0169,-0.9663,0.1475,-0.2226,-0.2421,0.0233,-0.0295,0.0952,-0.0221,-2.2813,1.4151,3.1213
2024-10-11T12:53:08.456Z,0.0294,-0.9625,0.1538,-0.2226,-0.2421,0.0233,-0.0240,0.0926,-0.0205,-2.2813,1.4151,3.1213
2024-10-11T12:53:08.467Z,0.0231,-0.9630,0.1534,-0.2226,-0.2421,0.0233,-0.0267,0.0880,-0.0191,-2.2813,1.4151,3.1213
2024-10-11T12:53:08.477Z,0.0209,-0.9663,0.1531,-0.2050,-0.1949,-0.0094,-0.0239,0.0888,-0.0188,-2.2778,1.4159,3.1203
2024-10-11T12:53:08.488Z,0.0244,-0.9692,0.1525,-0.2050,-0.1949,-0.0094,-0.0210,0.0866,-0.0168,-2.2778,1.4159,3.1203
2024-10-11T12:53:08.497Z,0.0244,-0.9701,0.1469,-0.2050,-0.1949,-0.0094,-0.0226,0.0836,-0.0168,-2.2778,1.4159,3.1203
2024-10-11T12:53:08.506Z,0.0285,-0.9738,0.1393,-0.2270,-0.0706,0.1519,-0.0169,0.0781,-0.0164,-2.2748,1.4166,3.1196
2024-10-11T12:53:08.517Z,0.0260,-0.9849,0.1353,-0.2270,-0.0706,0.1519,-0.0139,0.0780,-0.0163,-2.2748,1.4166,3.1196
2024-10-11T12:53:08.527Z,0.0229,-0.9896,0.1333,-0.2270,-0.0706,0.1519,-0.0169,0.0778,-0.0150,-2.2748,1.4166,3.1196
2024-10-11T12:53:08.537Z,0.0265,-0.9942,0.1331,-0.2761,0.0747,0.1919,-0.0162,0.0768,-0.0120,-2.2722,1.4171,3.1191
2024-10-11T12:53:08.547Z,0.0326,-0.9958,0.1319,-0.2761,0.0747,0.1919,-0.0156,0.0782,-0.0113,-2.2722,1.4171,3.1191
2024-10-11T12:53:08.556Z,0.0286,-0.9928,0.1343,-0.2761,0.0747,0.1919,-0.0151,0.0735,-0.0084,-2.2722,1.4171,3.1191
2024-10-11T12:53:08.567Z,0.0302,-0.9933,0.1293,-0.2544,0.0751,0.2316,-0.0122,0.0724,-0.0090,-2.2705,1.4175,3.1195
2024-10-11T12:53:08.577Z,0.0256,-0.9973,0.1288,-0.2544,0.0751,0.2316,-0.0103,0.0724,-0.0039,-2.2705,1.4175,3.1195
2024-10-11T12:53:08.587Z,0.0226,-1.0014,0.1292,-0.2544,0.0751,0.2316,-0.0058,0.0639,-0.0035,-2.2705,1.4175,3.1195
2024-10-11T12:53:08.597Z,0.0224,-1.0041,0.1306,-0.2016,0.1040,0.2031,-0.0060,0.0652,0.0025,-2.2701,1.4178,3.1209
2024-10-11T12:53:08.607Z,0.0239,-0.9948,0.1373,-0.2016,0.1040,0.2031,-0.0044,0.0590,0.0068,-2.2701,1.4178,3.1209
2024-10-11T12:53:08.617Z,0.0239,-0.9861,0.1340,-0.2016,0.1040,0.2031,-0.0085,0.0521,0.0094,-2.2701,1.4178,3.1209
2024-10-11T12:53:08.627Z,0.0183,-0.9805,0.1409,-0.0933,-0.1424,0.1493,-0.0108,0.0413,0.0149,-2.2720,1.4181,3.1241
2024-10-11T12:53:08.637Z,0.0115,-0.9694,0.1382,-0.0933,-0.1424,0.1493,-0.0129,0.0274,0.0195,-2.2720,1.4181,3.1241
2024-10-11T12:53:08.647Z,0.0086,-0.9603,0.1492,-0.0933,-0.1424,0.1493,-0.0165,0.0024,0.0269,-2.2720,1.4181,3.1241
2024-10-11T12:53:08.658Z,0.0092,-0.9464,0.1590,-0.1198,-0.4708,-0.1078,-0.0184,-0.0258,0.0341,-2.2771,1.4186,3.1291
2024-10-11T12:53:08.667Z,0.0167,-0.9362,0.1635,-0.1198,-0.4708,-0.1078,-0.0206,-0.0565,0.0470,-2.2771,1.4186,3.1291
2024-10-11T12:53:08.677Z,0.0218,-0.9282,0.1608,-0.1198,-0.4708,-0.1078,-0.0208,-0.0894,0.0576,-2.2771,1.4186,3.1291
2024-10-11T12:53:08.688Z,0.0125,-0.9241,0.1586,-0.0405,-0.6294,-0.0353,-0.0151,-0.1079,0.0656,-2.2876,1.4192,3.1370
2024-10-11T12:53:08.697Z,0.0024,-0.9247,0.1534,-0.0405,-0.6294,-0.0353,-0.0078,-0.1190,0.0704,-2.2876,1.4192,3.1370
2024-10-11T12:53:08.707Z,-0.0035,-0.9260,0.1548,-0.0405,-0.6294,-0.0353,-0.0032,-0.1234,0.0734,-2.2876,1.4192,3.1370
2024-10-11T12:53:08.717Z,-0.0163,-0.9289,0.1517,0.2196,-0.5384,-0.0504,0.0098,-0.1249,0.0749,-2.3019,1.4193,-3.1360
2024-10-11T12:53:08.728Z,-0.0283,-0.9350,0.1541,0.2196,-0.5384,-0.0504,0.0181,-0.1197,0.0694,-2.3019,1.4193,-3.1360
2024-10-11T12:53:08.737Z,-0.0353,-0.9331,0.1613,0.2196,-0.5384,-0.0504,0.0246,-0.1112,0.0659,-2.3019,1.4193,-3.1360
2024-10-11T12:53:08.747Z,-0.0430,-0.9321,0.1594,0.4537,-0.5604,-0.2040,0.0287,-0.0936,0.0582,-2.3147,1.4186,-3.1267
2024-10-11T12:53:08.757Z,-0.0529,-0.9290,0.1745,0.4537,-0.5604,-0.2040,0.0308,-0.0831,0.0468,-2.3147,1.4186,-3.1267
2024-10-11T12:53:08.767Z,-0.0546,-0.9292,0.1799,0.4537,-0.5604,-0.2040,0.0265,-0.0798,0.0431,-2.3147,1.4186,-3.1267
2024-10-11T12:53:08.777Z,-0.0495,-0.9327,0.1846,0.3762,-0.4601,-0.2913,0.0217,-0.0813,0.0334,-2.3235,1.4177,-3.1207
2024-10-11T12:53:08.788Z,-0.0363,-0.9480,0.1817,0.3762,-0.4601,-0.2913,0.0150,-0.0945,0.0341,-2.3235,1.4177,-3.1207
2024-10-11T12:53:08.797Z,-0.0234,-0.9601,0.1742,0.3762,-0.4601,-0.2913,0.0117,-0.1196,0.0354,-2.3235,1.4177,-3.1207
2024-10-11T12:53:08.807Z,-0.0088,-0.9792,0.1693,0.0418,0.0708,-0.0433,0.0100,-0.1466,0.0408,-2.3309,1.4173,-3.1171
2024-10-11T12:53:08.817Z,-0.0068,-1.0041,0.1506,0.0418,0.0708,-0.0433,0.0061,-0.1668,0.0384,-2.3309,1.4173,-3.1171
2024-10-11T12:53:08.827Z,-0.0060,-1.0346,0.1396,0.0418,0.0708,-0.0433,0.0059,-0.1808,0.0397,-2.3309,1.4173,-3.1171
2024-10-11T12:53:08.837Z,-0.0135,-1.0617,0.1342,0.1061,0.8738,0.2461,0.0093,-0.1898,0.0381,-2.3390,1.4170,-3.1146
2024-10-11T12:53:08.847Z,-0.0150,-1.0843,0.1281,0.1061,0.8738,0.2461,0.0108,-0.1880,0.0389,-2.3390,1.4170,-3.1146
2024-10-11T12:53:08.857Z,-0.0193,-1.0975,0.1286,0.1061,0.8738,0.2461,0.0145,-0.1803,0.0348,-2.3390,1.4170,-3.1146
2024-10-11T12:53:08.867Z,-0.0190,-1.1048,0.1296,0.1584,1.1678,0.2555,0.0194,-0.1717,0.0281,-2.3459,1.4165,-3.1135
2024-10-11T12:53:08.877Z,-0.0244,-1.1082,0.1302,0.1584,1.1678,0.2555,0.0183,-0.1625,0.0223,-2.3459,1.4165,-3.1135
2024-10-11T12:53:08.887Z,-0.0351,-1.1053,0.1333,0.1584,1.1678,0.2555,0.0126,-0.1508,0.0190,-2.3459,1.4165,-3.1135
2024-10-11T12:53:08.897Z,-0.0348,-1.0959,0.1420,0.2946,0.9656,0.0164,0.0099,-0.1376,0.0169,-2.3501,1.4161,-3.1141
2024-10-11T12:53:08.907Z,-0.0351,-1.0803,0.1555,0.2946,0.9656,0.0164,0.0023,-0.1224,0.0122,-2.3501,1.4161,-3.1141
2024-10-11T12:53:08.917Z,-0.0369,-1.0633,0.1600,0.2946,0.9656,0.0164,-0.0025,-0.1023,0.0076,-2.3501,1.4161,-3.1141
2024-10-11T12:53:08.927Z,-0.0475,-1.0437,0.1637,0.4745,0.4423,-0.1448,-0.0107,-0.0782,-0.0037,-2.3519,1.4162,-3.1157
2024-10-11T12:53:08.939Z,-0.0535,-1.0291,0.1733,0.4745,0.4423,-0.1448,-0.0161,-0.0519,-0.0122,-2.3519,1.4162,-3.1157
2024-10-11T12:53:08.947Z,-0.0639,-1.0158,0.1695,0.4745,0.4423,-0.1448,-0.0190,-0.0261,-0.0240,-2.3519,1.4162,-3.1157
2024-10-11T12:53:08.957Z,-0.0585,-1.0063,0.1769,0.5258,0.0751,-0.2474,-0.0211,-0.0002,-0.0358,-2.3483,1.4168,-3.1205
2024-10-11T12:53:08.967Z,-0.0536,-0.9902,0.1811,0.5258,0.0751,-0.2474,-0.0216,0.0245,-0.0473,-2.3483,1.4168,-3.1205
2024-10-11T12:53:08.977Z,-0.0465,-0.9833,0.1799,0.5258,0.0751,-0.2474,-0.0179,0.0506,-0.0583,-2.3483,1.4168,-3.1205
2024-10-11T12:53:08.988Z,-0.0394,-0.9789,0.1797,0.2687,-0.0692,-0.1956,-0.0114,0.0629,-0.0661,-2.3380,1.4173,-3.1297
2024-10-11T12:53:08.997Z,-0.0233,-0.9822,0.1692,0.2687,-0.0692,-0.1956,-0.0058,0.0704,-0.0753,-2.3380,1.4173,-3.1297
2024-10-11T12:53:09.007Z,-0.0090,-0.9902,0.1691,0.2687,-0.0692,-0.1956,0.0057,0.0669,-0.0791,-2.3380,1.4173,-3.1297
2024-10-11T12:53:09.017Z,0.0144,-0.9891,0.1633,-0.2706,0.0204,-0.0957,0.0109,0.0633,-0.0818,-2.3232,1.4173,3.1407
2024-10-11T12:53:09.027Z,0.0326,-0.9883,0.1623,-0.2706,0.0204,-0.0957,0.0216,0.0546,-0.0846,-2.3232,1.4173,3.1407
2024-10-11T12:53:09.038Z,0.0488,-0.9808,0.1612,-0.2706,0.0204,-0.0957,0.0274,0.0520,-0.0860,-2.3232,1.4173,3.1407
2024-10-11T12:53:09.047Z,0.0500,-0.9754,0.1677,-0.4563,-0.1829,-0.1667,0.0287,0.0486,-0.0887,-2.3070,1.4165,3.1259
2024-10-11T12:53:09.059Z,0.0623,-0.9588,0.1759,-0.4563,-0.1829,-0.1667,0.0271,0.0428,-0.0874,-2.3070,1.4165,3.1259
2024-10-11T12:53:09.067Z,0.0623,-0.9588,0.1759,-0.4563,-0.1829,-0.1667,0.0194,0.0404,-0.0874,-2.3070,1.4165,3.1259
2024-10-11T12:53:09.077Z,0.0652,-0.9494,0.1821,-0.6531,-0.4298,-0.2792,0.0120,0.0309,-0.0815,-2.2907,1.4157,3.1106
2024-10-11T12:53:09.088Z,0.0726,-0.9425,0.1826,-0.6531,-0.4298,-0.2792,0.0015,0.0292,-0.0803,-2.2907,1.4157,3.1106
2024-10-11T12:53:09.097Z,0.0638,-0.9413,0.1754,-0.6531,-0.4298,-0.2792,-0.0138,0.0343,-0.0784,-2.2907,1.4157,3.1106
2024-10-11T12:53:09.108Z,0.0490,-0.9481,0.1654,-0.4455,-0.4367,-0.1330,-0.0274,0.0444,-0.0798,-2.2757,1.4159,3.0966
2024-10-11T12:53:09.118Z,0.0414,-0.9583,0.1480,-0.4455,-0.4367,-0.1330,-0.0398,0.0595,-0.0792,-2.2757,1.4159,3.0966
2024-10-11T12:53:09.128Z,0.0493,-0.9693,0.1398,-0.4455,-0.4367,-0.1330,-0.0497,0.0753,-0.0821,-2.2757,1.4159,3.0966
2024-10-11T12:53:09.138Z,0.0493,-0.9693,0.1398,-0.4374,-0.1503,0.1925,-0.0528,0.0829,-0.0820,-2.2596,1.4171,3.0825
2024-10-11T12:53:09.147Z,0.0551,-0.9753,0.1348,-0.4374,-0.1503,0.1925,-0.0541,0.0857,-0.0775,-2.2596,1.4171,3.0825
2024-10-11T12:53:09.158Z,0.0549,-0.9879,0.1257,-0.4374,-0.1503,0.1925,-0.0528,0.0880,-0.0728,-2.2596,1.4171,3.0825
2024-10-11T12:53:09.168Z,0.0583,-1.0080,0.1137,-0.4809,0.1935,0.3440,-0.0489,0.0882,-0.0651,-2.2446,1.4185,3.0700
2024-10-11T12:53:09.178Z,0.0602,-1.0081,0.1092,-0.4809,0.1935,0.3440,-0.0448,0.0883,-0.0611,-2.2446,1.4185,3.0700
2024-10-11T12:53:09.188Z,0.0602,-1.0081,0.1092,-0.4809,0.1935,0.3440,-0.0444,0.0918,-0.0557,-2.2446,1.4185,3.0700
2024-10-11T12:53:09.198Z,0.0448,-1.0063,0.1094,-0.3512,0.1780,0.3809,-0.0412,0.1008,-0.0507,-2.2329,1.4197,3.0610
2024-10-11T12:53:09.208Z,0.0386,-1.0007,0.1109,-0.3512,0.1780,0.3809,-0.0400,0.1050,-0.0448,-2.2329,1.4197,3.0610
2024-10-11T12:53:09.218Z,0.0327,-0.9969,0.1118,-0.3512,0.1780,0.3809,-0.0413,0.1108,-0.0407,-2.2329,1.4197,3.0610
2024-10-11T12:53:09.228Z,0.0317,-0.9888,0.1210,-0.2037,0.0251,0.2894,-0.0420,0.1195,-0.0358,-2.2242,1.4208,3.0555
2024-10-11T12:53:09.238Z,0.0317,-0.9888,0.1210,-0.2037,0.0251,0.2894,-0.0441,0.1344,-0.0335,-2.2242,1.4208,3.0555
2024-10-11T12:53:09.247Z,0.0216,-0.9851,0.1151,-0.2037,0.0251,0.2894,-0.0456,0.1469,-0.0306,-2.2242,1.4208,3.0555
2024-10-11T12:53:09.258Z,0.0159,-0.9914,0.1164,-0.0403,-0.0059,0.3403,-0.0464,0.1611,-0.0304,-2.2168,1.4221,3.0523
2024-10-11T12:53:09.268Z,0.0220,-1.0017,0.1212,-0.0403,-0.0059,0.3403,-0.0473,0.1636,-0.0296,-2.2168,1.4221,3.0523
2024-10-11T12:53:09.278Z,0.0230,-1.0167,0.1157,-0.0403,-0.0059,0.3403,-0.0360,0.1637,-0.0282,-2.2168,1.4221,3.0523
2024-10-11T12:53:09.288Z,0.0230,-1.0167,0.1157,-0.0812,0.3258,0.3166,-0.0303,0.1596,-0.0228,-2.2108,1.4232,3.0510
2024-10-11T12:53:09.298Z,0.0271,-1.0244,0.1191,-0.0812,0.3258,0.3166,-0.0214,0.1508,-0.0206,-2.2108,1.4232,3.0510
2024-10-11T12:53:09.306Z,0.0271,-1.0244,0.1191,-0.0812,0.3258,0.3166,-0.0099,0.1411,-0.0183,-2.2108,1.4232,3.0510
2024-10-11T12:53:09.317Z,0.0230,-1.0131,0.1277,-0.0928,0.2672,0.2161,-0.0042,0.1375,-0.0144,-2.2067,1.4237,3.0512
2024-10-11T12:53:09.327Z,0.0399,-1.0030,0.1253,-0.0928,0.2672,0.2161,0.0005,0.1405,-0.0109,-2.2067,1.4237,3.0512
2024-10-11T12:53:09.339Z,0.0427,-0.9977,0.1360,-0.0928,0.2672,0.2161,0.0028,0.1411,-0.0046,-2.2067,1.4237,3.0512
2024-10-11T12:53:09.347Z,0.0484,-0.9943,0.1335,-0.3330,0.0730,0.1240,0.0054,0.1384,0.0047,-2.2058,1.4235,3.0541
2024-10-11T12:53:09.358Z,0.0383,-0.9884,0.1302,-0.3330,0.0730,0.1240,0.0068,0.1305,0.0093,-2.2058,1.4235,3.0541
2024-10-11T12:53:09.367Z,0.0383,-0.9884,0.1302,-0.3330,0.0730,0.1240,0.0096,0.1201,0.0185,-2.2058,1.4235,3.0541
2024-10-11T12:53:09.378Z,0.0291,-0.9747,0.1360,-0.2641,-0.1236,0.1266,0.0074,0.1078,0.0234,-2.2091,1.4234,3.0607
2024-10-11T12:53:09.390Z,0.0160,-0.9724,0.1502,-0.2641,-0.1236,0.1266,0.0051,0.1042,0.0311,-2.2091,1.4234,3.0607
2024-10-11T12:53:09.398Z,0.0201,-0.9676,0.1559,-0.2641,-0.1236,0.1266,0.0048,0.0986,0.0344,-2.2091,1.4234,3.0607
2024-10-11T12:53:09.408Z,0.0056,-0.9669,0.1685,-0.0057,-0.2316,-0.1744,-0.0012,0.1024,0.0351,-2.2155,1.4234,3.0701
2024-10-11T12:53:09.418Z,-0.0037,-0.9607,0.1769,-0.0057,-0.2316,-0.1744,-0.0053,0.0972,0.0376,-2.2155,1.4234,3.0701
2024-10-11T12:53:09.428Z,-0.0080,-0.9572,0.1847,-0.0057,-0.2316,-0.1744,-0.0104,0.0932,0.0360,-2.2155,1.4234,3.0701
2024-10-11T12:53:09.439Z,-0.0067,-0.9511,0.1978,0.1797,-0.3503,-0.4660,-0.0149,0.0917,0.0368,-2.2228,1.4237,3.0798
2024-10-11T12:53:09.447Z,-0.0030,-0.9470,0.1992,0.1797,-0.3503,-0.4660,-0.0148,0.0815,0.0389,-2.2228,1.4237,3.0798
2024-10-11T12:53:09.458Z,-0.0122,-0.9507,0.1913,0.1797,-0.3503,-0.4660,-0.0170,0.0701,0.0389,-2.2228,1.4237,3.0798
2024-10-11T12:53:09.467Z,-0.0150,-0.9534,0.1831,0.2464,-0.3619,-0.4188,-0.0175,0.0696,0.0374,-2.2305,1.4243,3.0896
2024-10-11T12:53:09.477Z,-0.0080,-0.9616,0.1719,0.2464,-0.3619,-0.4188,-0.0107,0.0663,0.0381,-2.2305,1.4243,3.0896
2024-10-11T12:53:09.489Z,-0.0157,-0.9667,0.1700,0.2464,-0.3619,-0.4188,-0.0101,0.0612,0.0382,-2.2305,1.4243,3.0896
2024-10-11T12:53:09.497Z,-0.0099,-0.9770,0.1722,0.1744,-0.1718,-0.2730,-0.0032,0.0543,0.0418,-2.2386,1.4246,3.0993
2024-10-11T12:53:09.508Z,-0.0259,-0.9864,0.1647,0.1744,-0.1718,-0.2730,0.0008,0.0491,0.0381,-2.2386,1.4246,3.0993
2024-10-11T12:53:09.518Z,-0.0365,-0.9947,0.1591,0.1744,-0.1718,-0.2730,0.0028,0.0391,0.0364,-2.2386,1.4246,3.0993
2024-10-11T12:53:09.527Z,-0.0272,-0.9953,0.1582,0.3800,0.0928,-0.0792,0.0058,0.0295,0.0365,-2.2462,1.4245,3.1077
2024-10-11T12:53:09.539Z,-0.0377,-0.9921,0.1702,0.3800,0.0928,-0.0792,0.0064,0.0256,0.0334,-2.2462,1.4245,3.1077
2024-10-11T12:53:09.547Z,-0.0488,-0.9959,0.1739,0.3800,0.0928,-0.0792,0.0061,0.0179,0.0245,-2.2462,1.4245,3.1077
2024-10-11T12:53:09.557Z,-0.0402,-0.9943,0.1788,0.4233,0.0376,-0.3084,0.0012,0.0141,0.0194,-2.2518,1.4244,3.1137
2024-10-11T12:53:09.567Z,-0.0533,-1.0003,0.1774,0.4233,0.0376,-0.3084,-0.0022,0.0106,0.0144,-2.2518,1.4244,3.1137
2024-10-11T12:53:09.578Z,-0.0462,-0.9963,0.1696,0.4233,0.0376,-0.3084,-0.0055,0.0057,0.0091,-2.2518,1.4244,3.1137
2024-10-11T12:53:09.590Z,-0.0430,-0.9992,0.1766,0.4726,0.0866,-0.2614,-0.0050,-0.0022,0.0062,-2.2544,1.4245,3.1161
2024-10-11T12:53:09.597Z,-0.0322,-0.9930,0.1687,0.4726,0.0866,-0.2614,-0.0094,-0.0068,0.0030,-2.2544,1.4245,3.1161
2024-10-11T12:53:09.607Z,-0.0362,-0.9954,0.1691,0.4726,0.0866,-0.2614,-0.0107,-0.0113,0.0027,-2.2544,1.4245,3.1161
2024-10-11T12:53:09.617Z,-0.0398,-0.9889,0.1715,0.4345,0.0329,-0.2250,-0.0109,-0.0201,-0.0017,-2.2556,1.4247,3.1168
2024-10-11T12:53:09.627Z,-0.0276,-0.9907,0.1680,0.4345,0.0329,-0.2250,-0.0123,-0.0188,-0.0017,-2.2556,1.4247,3.1168
2024-10-11T12:53:09.637Z,-0.0210,-0.9853,0.1680,0.4345,0.0329,-0.2250,-0.0177,-0.0157,-0.0043,-2.2556,1.4247,3.1168
2024-10-11T12:53:09.647Z,-0.0257,-0.9837,0.1605,0.2635,-0.0600,-0.1903,-0.0163,-0.0148,-0.0051,-2.2552,1.4251,3.1157
2024-10-11T12:53:09.657Z,-0.0178,-0.9710,0.1656,0.2635,-0.0600,-0.1903,-0.0188,-0.0149,-0.0081,-2.2552,1.4251,3.1157
2024-10-11T12:53:09.667Z,-0.0085,-0.9636,0.1658,0.2635,-0.0600,-0.1903,-0.0172,-0.0138,-0.0045,-2.2552,1.4251,3.1157
2024-10-11T12:53:09.677Z,0.0014,-0.9580,0.1691,0.0337,-0.2890,-0.2320,-0.0194,-0.0107,-0.0012,-2.2546,1.4256,3.1145
2024-10-11T12:53:09.687Z,0.0082,-0.9516,0.1649,0.0337,-0.2890,-0.2320,-0.0250,-0.0044,0.0019,-2.2546,1.4256,3.1145
2024-10-11T12:53:09.697Z,0.0112,-0.9538,0.1612,0.0337,-0.2890,-0.2320,-0.0291,0.0069,0.0018,-2.2546,1.4256,3.1145
2024-10-11T12:53:09.707Z,0.0166,-0.9508,0.1601,-0.1045,-0.3677,-0.1609,-0.0321,0.0111,0.0076,-2.2559,1.4263,3.1156
2024-10-11T12:53:09.717Z,0.0215,-0.9517,0.1585,-0.1045,-0.3677,-0.1609,-0.0303,0.0144,0.0097,-2.2559,1.4263,3.1156
2024-10-11T12:53:09.727Z,0.0164,-0.9585,0.1512,-0.1045,-0.3677,-0.1609,-0.0312,0.0156,0.0130,-2.2559,1.4263,3.1156
2024-10-11T12:53:09.737Z,0.0178,-0.9632,0.1553,-0.1233,-0.2686,-0.1295,-0.0294,0.0194,0.0157,-2.2589,1.4272,3.1188
2024-10-11T12:53:09.747Z,0.0221,-0.9690,0.1491,-0.1233,-0.2686,-0.1295,-0.0277,0.0188,0.0183,-2.2589,1.4272,3.1188
2024-10-11T12:53:09.758Z,0.0156,-0.9768,0.1387,-0.1233,-0.2686,-0.1295,-0.0244,0.0245,0.0205,-2.2589,1.4272,3.1188
2024-10-11T12:53:09.767Z,0.0084,-0.9791,0.1364,-0.0644,-0.1202,0.0574,-0.0242,0.0252,0.0215,-2.2629,1.4279,3.1233
2024-10-11T12:53:09.777Z,0.0063,-0.9797,0.1287,-0.0644,-0.1202,0.0574,-0.0213,0.0276,0.0203,-2.2629,1.4279,3.1233
2024-10-11T12:53:09.787Z,0.0107,-0.9757,0.1362,-0.0644,-0.1202,0.0574,-0.0182,0.0274,0.0224,-2.2629,1.4279,3.1233
2024-10-11T12:53:09.797Z,0.0136,-0.9752,0.1363,-0.0948,-0.1339,0.0787,-0.0177,0.0267,0.0192,-2.2671,1.4285,3.1280
2024-10-11T12:53:09.807Z,0.0166,-0.9762,0.1459,-0.0948,-0.1339,0.0787,-0.0153,0.0278,0.0207,-2.2671,1.4285,3.1280
2024-10-11T12:53:09.817Z,0.0215,-0.9785,0.1494,-0.0948,-0.1339,0.0787,-0.0127,0.0295,0.0232,-2.2671,1.4285,3.1280
2024-10-11T12:53:09.828Z,0.0271,-0.9862,0.1541,-0.2517,-0.0553,-0.1280,-0.0114,0.0263,0.0246,-2.2718,1.4289,3.1332
2024-10-11T12:53:09.837Z,0.0294,-0.9928,0.1588,-0.2517,-0.0553,-0.1280,-0.0153,0.0326,0.0283,-2.2718,1.4289,3.1332
2024-10-11T12:53:09.847Z,0.0322,-1.0041,0.1667,-0.2517,-0.0553,-0.1280,-0.0167,0.0393,0.0299,-2.2718,1.4289,3.1332
2024-10-11T12:53:09.857Z,0.0415,-1.0114,0.1816,-0.3811,0.1694,-0.3415,-0.0208,0.0429,0.0332,-2.2781,1.4294,3.1402
2024-10-11T12:53:09.867Z,0.0487,-1.0184,0.1740,-0.3811,0.1694,-0.3415,-0.0180,0.0435,0.0393,-2.2781,1.4294,3.1402
2024-10-11T12:53:09.877Z,0.0496,-1.0246,0.1618,-0.3811,0.1694,-0.3415,-0.0191,0.0441,0.0424,-2.2781,1.4294,3.1402
2024-10-11T12:53:09.887Z,0.0465,-1.0267,0.1570,-0.4737,0.3588,-0.1706,-0.0192,0.0410,0.0504,-2.2870,1.4300,-3.1331
2024-10-11T12:53:09.897Z,0.0456,-1.0281,0.1470,-0.4737,0.3588,-0.1706,-0.0161,0.0498,0.0552,-2.2870,1.4300,-3.1331
2024-10-11T12:53:09.907Z,0.0489,-1.0279,0.1490,-0.4737,0.3588,-0.1706,-0.0166,0.0513,0.0569,-2.2870,1.4300,-3.1331
2024-10-11T12:53:09.917Z,0.0465,-1.0249,0.1465,-0.5016,0.3534,-0.0892,-0.0161,0.0529,0.0662,-2.2991,1.4304,-3.1198
2024-10-11T12:53:09.927Z,0.0399,-1.0270,0.1466,-0.5016,0.3534,-0.0892,-0.0164,0.0565,0.0698,-2.2991,1.4304,-3.1198
2024-10-11T12:53:09.937Z,0.0408,-1.0233,0.1512,-0.5016,0.3534,-0.0892,-0.0165,0.0518,0.0736,-2.2991,1.4304,-3.1198
2024-10-11T12:53:09.947Z,0.0307,-1.0218,0.1533,-0.4129,0.3037,-0.1226,-0.0143,0.0479,0.0749,-2.3144,1.4308,-3.1033
2024-10-11T12:53:09.958Z,0.0180,-1.0190,0.1602,-0.4129,0.3037,-0.1226,-0.0185,0.0531,0.0727,-2.3144,1.4308,-3.1033
2024-10-11T12:53:09.967Z,0.0222,-1.0149,0.1694,-0.4129,0.3037,-0.1226,-0.0184,0.0500,0.0742,-2.3144,1.4308,-3.1033
2024-10-11T12:53:09.977Z,0.0129,-1.0143,0.1604,-0.2505,0.2506,-0.2473,-0.0187,0.0535,0.0743,-2.3306,1.4313,-3.0858
2024-10-11T12:53:09.987Z,0.0068,-1.0124,0.1562,-0.2505,0.2506,-0.2473,-0.0217,0.0555,0.0758,-2.3306,1.4313,-3.0858
2024-10-11T12:53:09.997Z,0.0096,-1.0088,0.1479,-0.2505,0.2506,-0.2473,-0.0194,0.0529,0.0757,-2.3306,1.4313,-3.0858
2024-10-11T12:53:10.008Z,-0.0004,-1.0038,0.1346,-0.1527,0.1520,-0.0341,-0.0188,0.0488,0.0735,-2.3470,1.4316,-3.0683
2024-10-11T12:53:10.017Z,-0.0084,-0.9906,0.1297,-0.1527,0.1520,-0.0341,-0.0149,0.0444,0.0694,-2.3470,1.4316,-3.0683
2024-10-11T12:53:10.028Z,-0.0058,-0.9794,0.1222,-0.1527,0.1520,-0.0341,-0.0103,0.0341,0.0712,-2.3470,1.4316,-3.0683
2024-10-11T12:53:10.037Z,-0.0065,-0.9665,0.1234,-0.0578,-0.2022,0.1545,-0.0093,0.0234,0.0717,-2.3627,1.4319,-3.0517
2024-10-11T12:53:10.048Z,-0.0246,-0.9644,0.1200,-0.0578,-0.2022,0.1545,-0.0110,0.0305,0.0681,-2.3627,1.4319,-3.0517
2024-10-11T12:53:10.058Z,-0.0444,-0.9605,0.1188,-0.0578,-0.2022,0.1545,-0.0124,0.0365,0.0599,-2.3627,1.4319,-3.0517
2024-10-11T12:53:10.067Z,-0.0463,-0.9592,0.1160,0.3064,-0.2948,0.2031,-0.0078,0.0277,0.0494,-2.3760,1.4320,-3.0379
2024-10-11T12:53:10.077Z,-0.0656,-0.9614,0.1140,0.3064,-0.2948,0.2031,-0.0044,0.0175,0.0401,-2.3760,1.4320,-3.0379
2024-10-11T12:53:10.087Z,-0.0704,-0.9628,0.1088,0.3064,-0.2948,0.2031,0.0004,0.0065,0.0297,-2.3760,1.4320,-3.0379
2024-10-11T12:53:10.097Z,-0.0604,-0.9659,0.1054,0.4744,-0.2664,0.2932,0.0070,-0.0052,0.0226,-2.3835,1.4319,-3.0304
