time,gFx,gFy,gFz,ax,ay,az,wx,wy,wz,yaw,pitch,roll
2024-10-11T12:48:53.736Z,-0.0006,-0.9883,0.1746,-0.0212,0.0383,0.0718,0.0031,-0.0153,-0.0046,-2.3884,1.3876,-3.1240
2024-10-11T12:48:53.744Z,-0.0013,-0.9854,0.1744,-0.0212,0.0383,0.0718,0.0028,-0.0209,-0.0049,-2.3884,1.3876,-3.1240
2024-10-11T12:48:53.754Z,0.0013,-0.9836,0.1742,-0.0212,0.0383,0.0718,0.0048,-0.0253,-0.0037,-2.3884,1.3876,-3.1240
2024-10-11T12:48:53.764Z,-0.0015,-0.9820,0.1751,0.0090,-0.0485,0.0593,0.0047,-0.0259,-0.0052,-2.3877,1.3875,-3.1258
2024-10-11T12:48:53.774Z,-0.0046,-0.9761,0.1761,0.0090,-0.0485,0.0593,0.0058,-0.0213,-0.0055,-2.3877,1.3875,-3.1258
2024-10-11T12:48:53.784Z,-0.0061,-0.9762,0.1761,0.0090,-0.0485,0.0593,0.0074,-0.0182,-0.0049,-2.3877,1.3875,-3.1258
2024-10-11T12:48:53.793Z,-0.0051,-0.9719,0.1798,0.0116,-0.1321,0.0117,0.0081,-0.0169,-0.0055,-2.3867,1.3872,-3.1275
2024-10-11T12:48:53.804Z,-0.0033,-0.9694,0.1828,0.0116,-0.1321,0.0117,0.0111,-0.0155,-0.0060,-2.3867,1.3872,-3.1275
2024-10-11T12:48:53.814Z,-0.0012,-0.9721,0.1851,0.0116,-0.1321,0.0117,0.0128,-0.0168,-0.0073,-2.3867,1.3872,-3.1275
2024-10-11T12:48:53.824Z,0.0002,-0.9766,0.1832,-0.0390,-0.0543,0.0128,0.0119,-0.0178,-0.0062,-2.3856,1.3870,-3.1293
2024-10-11T12:48:53.834Z,0.0026,-0.9813,0.1789,-0.0390,-0.0543,0.0128,0.0121,-0.0194,-0.0029,-2.3856,1.3870,-3.1293
2024-10-11T12:48:53.843Z,0.0009,-0.9875,0.1751,-0.0390,-0.0543,0.0128,0.0116,-0.0198,-0.0054,-2.3856,1.3870,-3.1293
2024-10-11T12:48:53.854Z,-0.0011,-0.9913,0.1743,-0.0015,0.0889,0.0873,0.0121,-0.0205,-0.0013,-2.3852,1.3866,-3.1306
2024-10-11T12:48:53.864Z,-0.0010,-0.9926,0.1738,-0.0015,0.0889,0.0873,0.0120,-0.0171,-0.0033,-2.3852,1.3866,-3.1306
2024-10-11T12:48:53.874Z,-0.0001,-0.9920,0.1764,-0.0015,0.0889,0.0873,0.0126,-0.0146,-0.0017,-2.3852,1.3866,-3.1306
2024-10-11T12:48:53.884Z,-0.0005,-0.9907,0.1801,-0.0084,0.0767,0.0133,0.0142,-0.0164,-0.0023,-2.3849,1.3862,-3.1316
2024-10-11T12:48:53.894Z,-0.0006,-0.9895,0.1833,-0.0084,0.0767,0.0133,0.0136,-0.0134,-0.0022,-2.3849,1.3862,-3.1316
2024-10-11T12:48:53.904Z,-0.0029,-0.9877,0.1851,-0.0084,0.0767,0.0133,0.0135,-0.0132,-0.0034,-2.3849,1.3862,-3.1316
2024-10-11T12:48:53.914Z,-0.0066,-0.9827,0.1905,0.0575,-0.0203,-0.0883,0.0177,-0.0114,-0.0040,-2.3843,1.3858,-3.1328
2024-10-11T12:48:53.924Z,-0.0072,-0.9783,0.1951,0.0575,-0.0203,-0.0883,0.0180,-0.0114,-0.0049,-2.3843,1.3858,-3.1328
2024-10-11T12:48:53.934Z,-0.0065,-0.9757,0.1968,0.0575,-0.0203,-0.0883,0.0130,-0.0131,-0.0043,-2.3843,1.3858,-3.1328
2024-10-11T12:48:53.943Z,-0.0067,-0.9736,0.1954,0.0581,-0.0869,-0.0855,0.0146,-0.0164,-0.0050,-2.3838,1.3854,-3.1341
2024-10-11T12:48:53.954Z,-0.0080,-0.9745,0.1910,0.0581,-0.0869,-0.0855,0.0146,-0.0196,-0.0047,-2.3838,1.3854,-3.1341
2024-10-11T12:48:53.964Z,-0.0094,-0.9759,0.1860,0.0581,-0.0869,-0.0855,0.0147,-0.0214,-0.0015,-2.3838,1.3854,-3.1341
2024-10-11T12:48:53.974Z,-0.0095,-0.9780,0.1842,0.0960,-0.0369,0.0166,0.0133,-0.0197,-0.0041,-2.3833,1.3850,-3.1354
2024-10-11T12:48:53.984Z,-0.0118,-0.9791,0.1839,0.0960,-0.0369,0.0166,0.0100,-0.0187,-0.0036,-2.3833,1.3850,-3.1354
2024-10-11T12:48:53.994Z,-0.0106,-0.9788,0.1855,0.0960,-0.0369,0.0166,0.0097,-0.0181,-0.0049,-2.3833,1.3850,-3.1354
2024-10-11T12:48:54.004Z,-0.0083,-0.9806,0.1868,0.0662,-0.0241,-0.0361,0.0099,-0.0150,-0.0055,-2.3830,1.3846,-3.1365
2024-10-11T12:48:54.014Z,-0.0070,-0.9807,0.1898,0.0662,-0.0241,-0.0361,0.0086,-0.0124,-0.0034,-2.3830,1.3846,-3.1365
2024-10-11T12:48:54.024Z,-0.0068,-0.9824,0.1914,0.0662,-0.0241,-0.0361,0.0084,-0.0109,-0.0021,-2.3830,1.3846,-3.1365
2024-10-11T12:48:54.034Z,-0.0080,-0.9827,0.1936,0.0701,-0.0134,-0.0915,0.0082,-0.0080,-0.0039,-2.3825,1.3843,-3.1375
2024-10-11T12:48:54.044Z,-0.0082,-0.9804,0.1957,0.0701,-0.0134,-0.0915,0.0072,-0.0096,-0.0044,-2.3825,1.3843,-3.1375
2024-10-11T12:48:54.054Z,-0.0060,-0.9801,0.1977,0.0701,-0.0134,-0.0915,0.0047,-0.0105,-0.0027,-2.3825,1.3843,-3.1375
2024-10-11T12:48:54.064Z,-0.0005,-0.9819,0.1991,-0.0194,0.0147,-0.1334,0.0001,-0.0102,-0.0043,-2.3826,1.3841,-3.1379
2024-10-11T12:48:54.074Z,0.0005,-0.9860,0.1959,-0.0194,0.0147,-0.1334,0.0008,-0.0091,-0.0026,-2.3826,1.3841,-3.1379
2024-10-11T12:48:54.084Z,-0.0004,-0.9883,0.1922,-0.0194,0.0147,-0.1334,0.0003,-0.0070,-0.0018,-2.3826,1.3841,-3.1379
2024-10-11T12:48:54.094Z,0.0016,-0.9887,0.1893,-0.0324,0.0691,-0.0259,-0.0016,-0.0041,-0.0026,-2.3828,1.3841,-3.1383
2024-10-11T12:48:54.103Z,0.0029,-0.9900,0.1879,-0.0324,0.0691,-0.0259,-0.0047,-0.0049,0.0013,-2.3828,1.3841,-3.1383
2024-10-11T12:48:54.114Z,0.0031,-0.9896,0.1889,-0.0324,0.0691,-0.0259,-0.0049,-0.0012,0.0020,-2.3828,1.3841,-3.1383
2024-10-11T12:48:54.124Z,0.0006,-0.9866,0.1902,-0.0230,0.0222,-0.0573,-0.0064,0.0015,-0.0000,-2.3833,1.3842,-3.1379
2024-10-11T12:48:54.134Z,0.0023,-0.9834,0.1926,-0.0230,0.0222,-0.0573,-0.0073,0.0043,0.0036,-2.3833,1.3842,-3.1379
2024-10-11T12:48:54.145Z,0.0018,-0.9822,0.1913,-0.0230,0.0222,-0.0573,-0.0077,0.0009,0.0051,-2.3833,1.3842,-3.1379
2024-10-11T12:48:54.154Z,-0.0037,-0.9814,0.1866,0.0342,-0.0149,-0.0067,-0.0075,0.0037,0.0028,-2.3842,1.3843,-3.1373
2024-10-11T12:48:54.164Z,-0.0037,-0.9822,0.1857,0.0342,-0.0149,-0.0067,-0.0074,0.0008,0.0029,-2.3842,1.3843,-3.1373
2024-10-11T12:48:54.174Z,-0.0049,-0.9851,0.1810,0.0342,-0.0149,-0.0067,-0.0064,0.0007,0.0034,-2.3842,1.3843,-3.1373
2024-10-11T12:48:54.184Z,-0.0020,-0.9869,0.1788,0.0047,0.0714,0.0695,-0.0077,-0.0003,0.0057,-2.3849,1.3845,-3.1368
2024-10-11T12:48:54.194Z,-0.0010,-0.9918,0.1774,0.0047,0.0714,0.0695,-0.0091,0.0035,0.0050,-2.3849,1.3845,-3.1368
2024-10-11T12:48:54.204Z,-0.0007,-0.9921,0.1750,0.0047,0.0714,0.0695,-0.0077,-0.0001,0.0088,-2.3849,1.3845,-3.1368
2024-10-11T12:48:54.214Z,0.0003,-0.9937,0.1756,-0.0214,0.0917,0.1031,-0.0058,0.0034,0.0062,-2.3860,1.3847,-3.1359
2024-10-11T12:48:54.225Z,-0.0004,-0.9910,0.1743,-0.0214,0.0917,0.1031,-0.0069,0.0053,0.0048,-2.3860,1.3847,-3.1359
2024-10-11T12:48:54.234Z,-0.0040,-0.9909,0.1756,-0.0214,0.0917,0.1031,-0.0049,0.0051,0.0080,-2.3860,1.3847,-3.1359
2024-10-11T12:48:54.243Z,-0.0052,-0.9893,0.1781,0.0313,0.0639,0.0662,-0.0068,0.0089,0.0051,-2.3872,1.3848,-3.1348
2024-10-11T12:48:54.254Z,-0.0046,-0.9904,0.1783,0.0313,0.0639,0.0662,-0.0038,0.0112,0.0072,-2.3872,1.3848,-3.1348
2024-10-11T12:48:54.264Z,-0.0054,-0.9912,0.1807,0.0313,0.0639,0.0662,-0.0062,0.0115,0.0079,-2.3872,1.3848,-3.1348
2024-10-11T12:48:54.274Z,-0.0069,-0.9898,0.1821,0.0550,0.0785,0.0204,-0.0066,0.0113,0.0077,-2.3885,1.3850,-3.1334
2024-10-11T12:48:54.284Z,-0.0079,-0.9917,0.1847,0.0550,0.0785,0.0204,-0.0084,0.0103,0.0079,-2.3885,1.3850,-3.1334
2024-10-11T12:48:54.294Z,-0.0099,-0.9940,0.1864,0.0550,0.0785,0.0204,-0.0094,0.0099,0.0067,-2.3885,1.3850,-3.1334
2024-10-11T12:48:54.304Z,-0.0135,-0.9928,0.1868,0.1076,0.1079,-0.0169,-0.0122,0.0100,0.0038,-2.3895,1.3854,-3.1324
2024-10-11T12:48:54.314Z,-0.0127,-0.9937,0.1865,0.1076,0.1079,-0.0169,-0.0153,0.0081,0.0075,-2.3895,1.3854,-3.1324
2024-10-11T12:48:54.324Z,-0.0107,-0.9923,0.1892,0.1076,0.1079,-0.0169,-0.0149,0.0083,0.0024,-2.3895,1.3854,-3.1324
2024-10-11T12:48:54.334Z,-0.0139,-0.9920,0.1880,0.1379,0.0806,-0.0214,-0.0159,0.0102,0.0026,-2.3903,1.3859,-3.1316
2024-10-11T12:48:54.344Z,-0.0158,-0.9893,0.1857,0.1379,0.0806,-0.0214,-0.0146,0.0100,-0.0014,-2.3903,1.3859,-3.1316
2024-10-11T12:48:54.354Z,-0.0120,-0.9879,0.1841,0.1379,0.0806,-0.0214,-0.0167,0.0113,-0.0015,-2.3903,1.3859,-3.1316
2024-10-11T12:48:54.364Z,-0.0109,-0.9877,0.1849,0.0929,0.0433,-0.0022,-0.0146,0.0131,-0.0023,-2.3904,1.3863,-3.1313
2024-10-11T12:48:54.375Z,-0.0107,-0.9878,0.1825,0.0929,0.0433,-0.0022,-0.0161,0.0123,-0.0007,-2.3904,1.3863,-3.1313
2024-10-11T12:48:54.384Z,-0.0098,-0.9875,0.1814,0.0929,0.0433,-0.0022,-0.0170,0.0125,-0.0028,-2.3904,1.3863,-3.1313
2024-10-11T12:48:54.394Z,-0.0111,-0.9851,0.1800,0.0800,0.0249,0.0388,-0.0202,0.0112,-0.0008,-2.3911,1.3868,-3.1305
2024-10-11T12:48:54.404Z,-0.0091,-0.9853,0.1780,0.0800,0.0249,0.0388,-0.0190,0.0114,-0.0005,-2.3911,1.3868,-3.1305
2024-10-11T12:48:54.414Z,-0.0101,-0.9871,0.1757,0.0800,0.0249,0.0388,-0.0176,0.0140,-0.0019,-2.3911,1.3868,-3.1305
2024-10-11T12:48:54.424Z,-0.0098,-0.9890,0.1774,0.0583,0.0567,0.0429,-0.0182,0.0101,-0.0000,-2.3916,1.3873,-3.1298
2024-10-11T12:48:54.434Z,-0.0076,-0.9877,0.1786,0.0583,0.0567,0.0429,-0.0184,0.0138,-0.0011,-2.3916,1.3873,-3.1298
2024-10-11T12:48:54.444Z,-0.0092,-0.9874,0.1788,0.0583,0.0567,0.0429,-0.0209,0.0181,-0.0051,-2.3916,1.3873,-3.1298
2024-10-11T12:48:54.454Z,-0.0077,-0.9868,0.1808,0.0473,0.0124,0.0138,-0.0185,0.0224,-0.0047,-2.3916,1.3878,-3.1295
2024-10-11T12:48:54.464Z,-0.0085,-0.9833,0.1802,0.0473,0.0124,0.0138,-0.0162,0.0317,-0.0081,-2.3916,1.3878,-3.1295
2024-10-11T12:48:54.474Z,-0.0105,-0.9817,0.1810,0.0473,0.0124,0.0138,-0.0162,0.0317,-0.0081,-2.3916,1.3878,-3.1295
2024-10-11T12:48:54.485Z,-0.0101,-0.9810,0.1815,0.0875,-0.0299,0.0131,-0.0148,0.0374,-0.0093,-2.3912,1.3884,-3.1291
2024-10-11T12:48:54.495Z,-0.0124,-0.9809,0.1782,0.0875,-0.0299,0.0131,-0.0125,0.0378,-0.0097,-2.3912,1.3884,-3.1291
2024-10-11T12:48:54.505Z,-0.0146,-0.9829,0.1806,0.0875,-0.0299,0.0131,-0.0160,0.0359,-0.0139,-2.3912,1.3884,-3.1291
2024-10-11T12:48:54.515Z,-0.0108,-0.9827,0.1827,0.0701,-0.0030,-0.0285,-0.0146,0.0352,-0.0134,-2.3906,1.3890,-3.1289
2024-10-11T12:48:54.525Z,-0.0097,-0.9846,0.1834,0.0701,-0.0030,-0.0285,-0.0146,0.0352,-0.0134,-2.3906,1.3890,-3.1289
2024-10-11T12:48:54.535Z,-0.0078,-0.9849,0.1836,0.0701,-0.0030,-0.0285,-0.0212,0.0374,-0.0162,-2.3906,1.3890,-3.1289
2024-10-11T12:48:54.543Z,-0.0103,-0.9837,0.1825,0.0663,0.0027,-0.0186,-0.0212,0.0374,-0.0162,-2.3896,1.3895,-3.1290
2024-10-11T12:48:54.554Z,-0.0069,-0.9828,0.1810,0.0663,0.0027,-0.0186,-0.0196,0.0404,-0.0158,-2.3896,1.3895,-3.1290
2024-10-11T12:48:54.564Z,-0.0068,-0.9795,0.1772,0.0663,0.0027,-0.0186,-0.0196,0.0404,-0.0158,-2.3896,1.3895,-3.1290
2024-10-11T12:48:54.575Z,-0.0048,-0.9781,0.1749,0.0083,-0.0670,0.0497,-0.0179,0.0420,-0.0159,-2.3884,1.3901,-3.1291
2024-10-11T12:48:54.584Z,-0.0027,-0.9762,0.1740,0.0083,-0.0670,0.0497,-0.0190,0.0477,-0.0151,-2.3884,1.3901,-3.1291
2024-10-11T12:48:54.594Z,0.0012,-0.9771,0.1712,0.0083,-0.0670,0.0497,-0.0156,0.0458,-0.0172,-2.3884,1.3901,-3.1291
2024-10-11T12:48:54.605Z,0.0030,-0.9775,0.1671,-0.0547,-0.0558,0.1348,-0.0176,0.0427,-0.0155,-2.3867,1.3906,-3.1296
2024-10-11T12:48:54.613Z,0.0039,-0.9799,0.1653,-0.0547,-0.0558,0.1348,-0.0176,0.0427,-0.0155,-2.3867,1.3906,-3.1296
2024-10-11T12:48:54.626Z,0.0051,-0.9778,0.1645,-0.0547,-0.0558,0.1348,-0.0174,0.0394,-0.0133,-2.3867,1.3906,-3.1296
2024-10-11T12:48:54.634Z,0.0053,-0.9785,0.1655,-0.0524,-0.0472,0.1427,-0.0161,0.0376,-0.0117,-2.3847,1.3911,-3.1306
2024-10-11T12:48:54.645Z,0.0037,-0.9777,0.1633,-0.0524,-0.0472,0.1427,-0.0142,0.0349,-0.0124,-2.3847,1.3911,-3.1306
2024-10-11T12:48:54.654Z,0.0047,-0.9766,0.1636,-0.0524,-0.0472,0.1427,-0.0129,0.0350,-0.0127,-2.3847,1.3911,-3.1306
2024-10-11T12:48:54.664Z,0.0072,-0.9750,0.1653,-0.0915,-0.0770,0.1170,-0.0124,0.0349,-0.0114,-2.3826,1.3915,-3.1318
2024-10-11T12:48:54.676Z,0.0074,-0.9769,0.1653,-0.0915,-0.0770,0.1170,-0.0128,0.0354,-0.0129,-2.3826,1.3915,-3.1318
2024-10-11T12:48:54.685Z,0.0094,-0.9782,0.1664,-0.0915,-0.0770,0.1170,-0.0107,0.0333,-0.0100,-2.3826,1.3915,-3.1318
2024-10-11T12:48:54.694Z,0.0088,-0.9774,0.1682,-0.1011,-0.0665,0.0745,-0.0067,0.0344,-0.0074,-2.3808,1.3919,-3.1328
2024-10-11T12:48:54.704Z,0.0109,-0.9797,0.1727,-0.1011,-0.0665,0.0745,-0.0084,0.0338,-0.0066,-2.3808,1.3919,-3.1328
2024-10-11T12:48:54.714Z,0.0109,-0.9797,0.1727,-0.1011,-0.0665,0.0745,-0.0076,0.0351,-0.0051,-2.3808,1.3919,-3.1328
2024-10-11T12:48:54.725Z,0.0122,-0.9833,0.1723,-0.1374,-0.0105,0.0619,-0.0028,0.0345,-0.0017,-2.3797,1.3922,-3.1332
2024-10-11T12:48:54.734Z,0.0124,-0.9833,0.1723,-0.1374,-0.0105,0.0619,-0.0042,0.0373,-0.0031,-2.3797,1.3922,-3.1332
2024-10-11T12:48:54.744Z,0.0090,-0.9849,0.1733,-0.1374,-0.0105,0.0619,-0.0008,0.0418,-0.0005,-2.3797,1.3922,-3.1332
2024-10-11T12:48:54.754Z,0.0036,-0.9841,0.1782,-0.0599,-0.0058,0.0087,-0.0035,0.0378,-0.0003,-2.3789,1.3924,-3.1330
2024-10-11T12:48:54.764Z,0.0036,-0.9841,0.1782,-0.0599,-0.0058,0.0087,-0.0024,0.0424,0.0011,-2.3789,1.3924,-3.1330
2024-10-11T12:48:54.775Z,-0.0031,-0.9854,0.1790,-0.0599,-0.0058,0.0087,-0.0009,0.0445,0.0019,-2.3789,1.3924,-3.1330
2024-10-11T12:48:54.785Z,-0.0031,-0.9854,0.1790,0.0191,0.0169,-0.0106,-0.0031,0.0496,0.0037,-2.3788,1.3924,-3.1321
2024-10-11T12:48:54.794Z,-0.0032,-0.9879,0.1771,0.0191,0.0169,-0.0106,-0.0026,0.0509,0.0038,-2.3788,1.3924,-3.1321
2024-10-11T12:48:54.804Z,-0.0051,-0.9891,0.1773,0.0191,0.0169,-0.0106,-0.0012,0.0532,0.0035,-2.3788,1.3924,-3.1321
2024-10-11T12:48:54.814Z,-0.0089,-0.9879,0.1783,0.0690,0.0258,-0.0097,-0.0036,0.0531,0.0048,-2.3791,1.3925,-3.1306
2024-10-11T12:48:54.825Z,-0.0107,-0.9832,0.1814,0.0690,0.0258,-0.0097,-0.0031,0.0524,0.0029,-2.3791,1.3925,-3.1306
2024-10-11T12:48:54.834Z,-0.0107,-0.9832,0.1814,0.0690,0.0258,-0.0097,-0.0066,0.0546,0.0035,-2.3791,1.3925,-3.1306
2024-10-11T12:48:54.845Z,-0.0099,-0.9786,0.1825,0.0891,-0.0688,-0.0648,-0.0079,0.0584,0.0029,-2.3797,1.3926,-3.1285
2024-10-11T12:48:54.854Z,-0.0122,-0.9769,0.1852,0.0891,-0.0688,-0.0648,-0.0063,0.0595,0.0044,-2.3797,1.3926,-3.1285
2024-10-11T12:48:54.864Z,-0.0108,-0.9766,0.1862,0.0891,-0.0688,-0.0648,-0.0072,0.0612,0.0020,-2.3797,1.3926,-3.1285
2024-10-11T12:48:54.874Z,-0.0098,-0.9746,0.1868,0.0629,-0.0958,-0.1005,-0.0082,0.0597,0.0012,-2.3803,1.3928,-3.1265
2024-10-11T12:48:54.885Z,-0.0081,-0.9749,0.1871,0.0629,-0.0958,-0.1005,-0.0109,0.0618,0.0032,-2.3803,1.3928,-3.1265
2024-10-11T12:48:54.894Z,-0.0064,-0.9749,0.1854,0.0629,-0.0958,-0.1005,-0.0109,0.0618,0.0032,-2.3803,1.3928,-3.1265
2024-10-11T12:48:54.904Z,-0.0064,-0.9749,0.1854,0.0395,-0.0928,-0.0839,-0.0063,0.0606,-0.0015,-2.3808,1.3931,-3.1244
2024-10-11T12:48:54.914Z,-0.0031,-0.9788,0.1869,0.0395,-0.0928,-0.0839,-0.0063,0.0606,-0.0015,-2.3808,1.3931,-3.1244
2024-10-11T12:48:54.924Z,-0.0020,-0.9807,0.1854,0.0395,-0.0928,-0.0839,-0.0067,0.0559,-0.0017,-2.3808,1.3931,-3.1244
2024-10-11T12:48:54.935Z,0.0022,-0.9835,0.1852,-0.0331,-0.0238,-0.0789,-0.0078,0.0530,-0.0017,-2.3811,1.3932,-3.1226
2024-10-11T12:48:54.944Z,0.0018,-0.9851,0.1815,-0.0331,-0.0238,-0.0789,-0.0078,0.0530,-0.0017,-2.3811,1.3932,-3.1226
2024-10-11T12:48:54.955Z,0.0019,-0.9849,0.1817,-0.0331,-0.0238,-0.0789,-0.0087,0.0453,-0.0045,-2.3811,1.3932,-3.1226
2024-10-11T12:48:54.964Z,0.0057,-0.9860,0.1815,-0.0678,0.0080,-0.0475,-0.0061,0.0422,-0.0030,-2.3810,1.3933,-3.1214
2024-10-11T12:48:54.973Z,0.0057,-0.9860,0.1815,-0.0678,0.0080,-0.0475,-0.0069,0.0395,-0.0034,-2.3810,1.3933,-3.1214
2024-10-11T12:48:54.984Z,0.0079,-0.9854,0.1817,-0.0678,0.0080,-0.0475,-0.0049,0.0344,-0.0018,-2.3810,1.3933,-3.1214
2024-10-11T12:48:54.993Z,0.0125,-0.9828,0.1836,-0.1796,-0.0139,-0.0870,-0.0049,0.0344,-0.0018,-2.3807,1.3934,-3.1209
2024-10-11T12:48:55.004Z,0.0104,-0.9849,0.1879,-0.1796,-0.0139,-0.0870,-0.0024,0.0280,-0.0037,-2.3807,1.3934,-3.1209
2024-10-11T12:48:55.014Z,0.0104,-0.9849,0.1879,-0.1796,-0.0139,-0.0870,-0.0015,0.0278,-0.0035,-2.3807,1.3934,-3.1209
2024-10-11T12:48:55.024Z,0.0111,-0.9883,0.1848,-0.1323,0.0491,-0.0789,0.0025,0.0238,-0.0043,-2.3800,1.3935,-3.1210
2024-10-11T12:48:55.034Z,0.0110,-0.9892,0.1816,-0.1323,0.0491,-0.0789,0.0056,0.0211,-0.0057,-2.3800,1.3935,-3.1210
2024-10-11T12:48:55.044Z,0.0110,-0.9892,0.1816,-0.1323,0.0491,-0.0789,0.0050,0.0229,-0.0074,-2.3800,1.3935,-3.1210
2024-10-11T12:48:55.054Z,0.0111,-0.9877,0.1798,-0.1524,0.0384,-0.0454,0.0065,0.0198,-0.0043,-2.3790,1.3933,-3.1216
2024-10-11T12:48:55.064Z,0.0111,-0.9877,0.1798,-0.1524,0.0384,-0.0454,0.0075,0.0186,-0.0071,-2.3790,1.3933,-3.1216
2024-10-11T12:48:55.075Z,0.0061,-0.9839,0.1778,-0.1524,0.0384,-0.0454,0.0077,0.0176,-0.0089,-2.3790,1.3933,-3.1216
2024-10-11T12:48:55.084Z,0.0064,-0.9801,0.1801,-0.0962,-0.0228,-0.0209,0.0073,0.0176,-0.0081,-2.3771,1.3930,-3.1231
2024-10-11T12:48:55.093Z,0.0064,-0.9801,0.1801,-0.0962,-0.0228,-0.0209,0.0054,0.0184,-0.0073,-2.3771,1.3930,-3.1231
2024-10-11T12:48:55.104Z,0.0084,-0.9764,0.1786,-0.0962,-0.0228,-0.0209,0.0068,0.0206,-0.0098,-2.3771,1.3930,-3.1231
2024-10-11T12:48:55.114Z,0.0110,-0.9778,0.1783,-0.1357,-0.0655,-0.0245,0.0071,0.0197,-0.0064,-2.3747,1.3927,-3.1252
2024-10-11T12:48:55.124Z,0.0110,-0.9778,0.1783,-0.1357,-0.0655,-0.0245,0.0041,0.0234,-0.0103,-2.3747,1.3927,-3.1252
2024-10-11T12:48:55.134Z,0.0059,-0.9786,0.1765,-0.1357,-0.0655,-0.0245,0.0051,0.0226,-0.0081,-2.3747,1.3927,-3.1252
2024-10-11T12:48:55.143Z,0.0059,-0.9786,0.1765,-0.0662,-0.0591,0.0156,0.0063,0.0233,-0.0081,-2.3728,1.3925,-3.1266
2024-10-11T12:48:55.154Z,0.0036,-0.9763,0.1767,-0.0662,-0.0591,0.0156,0.0057,0.0227,-0.0100,-2.3728,1.3925,-3.1266
2024-10-11T12:48:55.164Z,0.0000,-0.9743,0.1767,-0.0662,-0.0591,0.0156,0.0046,0.0221,-0.0117,-2.3728,1.3925,-3.1266
2024-10-11T12:48:55.174Z,0.0017,-0.9732,0.1767,-0.0183,-0.1087,0.0138,0.0060,0.0226,-0.0112,-2.3708,1.3923,-3.1282
2024-10-11T12:48:55.184Z,0.0041,-0.9728,0.1790,-0.0183,-0.1087,0.0138,0.0059,0.0167,-0.0128,-2.3708,1.3923,-3.1282
2024-10-11T12:48:55.193Z,0.0041,-0.9728,0.1790,-0.0183,-0.1087,0.0138,0.0059,0.0167,-0.0128,-2.3708,1.3923,-3.1282
2024-10-11T12:48:55.204Z,0.0043,-0.9715,0.1808,-0.0529,-0.1214,-0.0229,0.0044,0.0114,-0.0171,-2.3682,1.3921,-3.1305
2024-10-11T12:48:55.214Z,0.0043,-0.9715,0.1808,-0.0529,-0.1214,-0.0229,0.0079,0.0052,-0.0166,-2.3682,1.3921,-3.1305
2024-10-11T12:48:55.224Z,0.0052,-0.9712,0.1819,-0.0529,-0.1214,-0.0229,0.0070,0.0003,-0.0145,-2.3682,1.3921,-3.1305
2024-10-11T12:48:55.234Z,0.0075,-0.9756,0.1810,-0.0582,-0.1000,-0.0324,0.0034,-0.0032,-0.0173,-2.3650,1.3920,-3.1338
2024-10-11T12:48:55.244Z,0.0075,-0.9756,0.1810,-0.0582,-0.1000,-0.0324,0.0047,-0.0038,-0.0159,-2.3650,1.3920,-3.1338
2024-10-11T12:48:55.254Z,0.0133,-0.9810,0.1774,-0.0582,-0.1000,-0.0324,0.0046,-0.0093,-0.0184,-2.3650,1.3920,-3.1338
2024-10-11T12:48:55.264Z,0.0108,-0.9819,0.1744,-0.1264,-0.0234,0.0300,0.0044,-0.0140,-0.0175,-2.3619,1.3918,-3.1372
2024-10-11T12:48:55.274Z,0.0123,-0.9856,0.1730,-0.1264,-0.0234,0.0300,0.0045,-0.0163,-0.0179,-2.3619,1.3918,-3.1372
2024-10-11T12:48:55.284Z,0.0202,-0.9864,0.1722,-0.1264,-0.0234,0.0300,0.0037,-0.0209,-0.0143,-2.3619,1.3918,-3.1372
2024-10-11T12:48:55.294Z,0.0202,-0.9864,0.1722,-0.2097,0.0282,0.0514,0.0052,-0.0269,-0.0116,-2.3593,1.3917,-3.1406
2024-10-11T12:48:55.304Z,0.0262,-0.9868,0.1769,-0.2097,0.0282,0.0514,0.0062,-0.0289,-0.0092,-2.3593,1.3917,-3.1406
2024-10-11T12:48:55.314Z,0.0241,-0.9883,0.1764,-0.2097,0.0282,0.0514,0.0102,-0.0297,-0.0077,-2.3593,1.3917,-3.1406
2024-10-11T12:48:55.324Z,0.0248,-0.9864,0.1742,-0.2377,0.0372,0.0228,0.0102,-0.0374,-0.0052,-2.3576,1.3914,3.1399
2024-10-11T12:48:55.334Z,0.0233,-0.9855,0.1716,-0.2377,0.0372,0.0228,0.0095,-0.0393,-0.0055,-2.3576,1.3914,3.1399
2024-10-11T12:48:55.343Z,0.0233,-0.9855,0.1716,-0.2377,0.0372,0.0228,0.0133,-0.0429,-0.0029,-2.3576,1.3914,3.1399
2024-10-11T12:48:55.353Z,0.0219,-0.9849,0.1717,-0.2064,0.0174,0.0647,0.0130,-0.0462,-0.0026,-2.3566,1.3911,3.1374
2024-10-11T12:48:55.364Z,0.0212,-0.9870,0.1726,-0.2064,0.0174,0.0647,0.0116,-0.0497,-0.0002,-2.3566,1.3911,3.1374
2024-10-11T12:48:55.374Z,0.0228,-0.9866,0.1754,-0.2064,0.0174,0.0647,0.0154,-0.0552,0.0013,-2.3566,1.3911,3.1374
2024-10-11T12:48:55.383Z,0.0206,-0.9893,0.1782,-0.2110,0.0479,0.0177,0.0092,-0.0590,0.0007,-2.3560,1.3907,3.1349
2024-10-11T12:48:55.394Z,0.0191,-0.9888,0.1804,-0.2110,0.0479,0.0177,0.0108,-0.0628,0.0027,-2.3560,1.3907,3.1349
2024-10-11T12:48:55.404Z,0.0198,-0.9887,0.1839,-0.2110,0.0479,0.0177,0.0084,-0.0685,0.0035,-2.3560,1.3907,3.1349
2024-10-11T12:48:55.414Z,0.0188,-0.9880,0.1855,-0.1740,0.0519,-0.0642,0.0086,-0.0719,0.0049,-2.3554,1.3905,3.1322
2024-10-11T12:48:55.424Z,0.0163,-0.9864,0.1875,-0.1740,0.0519,-0.0642,0.0050,-0.0770,0.0071,-2.3554,1.3905,3.1322
2024-10-11T12:48:55.434Z,0.0135,-0.9830,0.1877,-0.1740,0.0519,-0.0642,0.0062,-0.0787,0.0080,-2.3554,1.3905,3.1322
2024-10-11T12:48:55.445Z,0.0135,-0.9830,0.1877,-0.1054,-0.0048,-0.0858,0.0047,-0.0811,0.0100,-2.3565,1.3903,3.1306
2024-10-11T12:48:55.454Z,0.0068,-0.9790,0.1863,-0.1054,-0.0048,-0.0858,0.0045,-0.0788,0.0111,-2.3565,1.3903,3.1306
2024-10-11T12:48:55.464Z,0.0005,-0.9758,0.1848,-0.1054,-0.0048,-0.0858,0.0035,-0.0821,0.0073,-2.3565,1.3903,3.1306
2024-10-11T12:48:55.474Z,-0.0006,-0.9746,0.1803,0.0238,-0.0895,-0.0312,0.0047,-0.0789,0.0093,-2.3577,1.3902,3.1292
2024-10-11T12:48:55.484Z,-0.0011,-0.9756,0.1768,0.0238,-0.0895,-0.0312,0.0024,-0.0767,0.0082,-2.3577,1.3902,3.1292
2024-10-11T12:48:55.494Z,-0.0011,-0.9756,0.1768,0.0238,-0.0895,-0.0312,0.0043,-0.0720,0.0090,-2.3577,1.3902,3.1292
2024-10-11T12:48:55.504Z,0.0011,-0.9797,0.1735,0.0065,-0.0608,0.0460,0.0051,-0.0668,0.0114,-2.3592,1.3900,3.1281
2024-10-11T12:48:55.514Z,-0.0009,-0.9840,0.1739,0.0065,-0.0608,0.0460,0.0061,-0.0629,0.0120,-2.3592,1.3900,3.1281
2024-10-11T12:48:55.524Z,-0.0008,-0.9840,0.1702,0.0065,-0.0608,0.0460,0.0071,-0.0576,0.0097,-2.3592,1.3900,3.1281
2024-10-11T12:48:55.534Z,-0.0010,-0.9863,0.1686,0.0317,0.0131,0.0979,0.0089,-0.0549,0.0106,-2.3608,1.3898,3.1276
2024-10-11T12:48:55.544Z,-0.0010,-0.9863,0.1686,0.0317,0.0131,0.0979,0.0133,-0.0521,0.0113,-2.3608,1.3898,3.1276
2024-10-11T12:48:55.554Z,0.0034,-0.9871,0.1683,0.0317,0.0131,0.0979,0.0120,-0.0476,0.0129,-2.3608,1.3898,3.1276
2024-10-11T12:48:55.563Z,0.0070,-0.9873,0.1684,-0.0230,0.0309,0.1160,0.0143,-0.0443,0.0131,-2.3628,1.3895,3.1279
2024-10-11T12:48:55.574Z,0.0087,-0.9829,0.1694,-0.0230,0.0309,0.1160,0.0150,-0.0422,0.0166,-2.3628,1.3895,3.1279
2024-10-11T12:48:55.584Z,0.0086,-0.9773,0.1698,-0.0230,0.0309,0.1160,0.0141,-0.0416,0.0181,-2.3628,1.3895,3.1279
2024-10-11T12:48:55.594Z,0.0086,-0.9773,0.1698,-0.0648,-0.0770,0.0975,0.0186,-0.0404,0.0185,-2.3656,1.3890,3.1291
2024-10-11T12:48:55.604Z,0.0089,-0.9731,0.1760,-0.0648,-0.0770,0.0975,0.0175,-0.0367,0.0207,-2.3656,1.3890,3.1291
2024-10-11T12:48:55.614Z,0.0114,-0.9717,0.1784,-0.0648,-0.0770,0.0975,0.0193,-0.0365,0.0194,-2.3656,1.3890,3.1291
2024-10-11T12:48:55.624Z,0.0104,-0.9733,0.1807,-0.0881,-0.1173,0.0166,0.0212,-0.0344,0.0216,-2.3690,1.3885,3.1311
2024-10-11T12:48:55.634Z,0.0110,-0.9765,0.1836,-0.0881,-0.1173,0.0166,0.0212,-0.0333,0.0237,-2.3690,1.3885,3.1311
2024-10-11T12:48:55.645Z,0.0099,-0.9793,0.1843,-0.0881,-0.1173,0.0166,0.0205,-0.0331,0.0229,-2.3690,1.3885,3.1311
2024-10-11T12:48:55.654Z,0.0088,-0.9837,0.1841,-0.0863,-0.0207,-0.0259,0.0188,-0.0321,0.0219,-2.3728,1.3878,3.1335
2024-10-11T12:48:55.664Z,0.0056,-0.9848,0.1833,-0.0863,-0.0207,-0.0259,0.0213,-0.0363,0.0203,-2.3728,1.3878,3.1335
2024-10-11T12:48:55.674Z,0.0016,-0.9888,0.1837,-0.0863,-0.0207,-0.0259,0.0196,-0.0386,0.0215,-2.3728,1.3878,3.1335
2024-10-11T12:48:55.684Z,0.0029,-0.9911,0.1873,-0.0167,0.0712,-0.0361,0.0208,-0.0415,0.0212,-2.3763,1.3872,3.1357
2024-10-11T12:48:55.695Z,0.0012,-0.9904,0.1881,-0.0167,0.0712,-0.0361,0.0183,-0.0414,0.0212,-2.3763,1.3872,3.1357
2024-10-11T12:48:55.704Z,0.0003,-0.9926,0.1905,-0.0167,0.0712,-0.0361,0.0199,-0.0433,0.0216,-2.3763,1.3872,3.1357
2024-10-11T12:48:55.713Z,-0.0031,-0.9943,0.1922,0.0207,0.1018,-0.0829,0.0188,-0.0411,0.0205,-2.3799,1.3866,3.1377
2024-10-11T12:48:55.724Z,-0.0042,-0.9917,0.1946,0.0207,0.1018,-0.0829,0.0203,-0.0414,0.0200,-2.3799,1.3866,3.1377
2024-10-11T12:48:55.734Z,-0.0059,-0.9924,0.1971,0.0207,0.1018,-0.0829,0.0186,-0.0385,0.0180,-2.3799,1.3866,3.1377
2024-10-11T12:48:55.744Z,-0.0079,-0.9896,0.2000,0.0655,0.0788,-0.1552,0.0158,-0.0371,0.0169,-2.3832,1.3860,3.1395
2024-10-11T12:48:55.754Z,-0.0105,-0.9881,0.1983,0.0655,0.0788,-0.1552,0.0134,-0.0354,0.0159,-2.3832,1.3860,3.1395
2024-10-11T12:48:55.764Z,-0.0105,-0.9857,0.2011,0.0655,0.0788,-0.1552,0.0107,-0.0324,0.0140,-2.3832,1.3860,3.1395
2024-10-11T12:48:55.774Z,-0.0112,-0.9830,0.2027,0.1073,0.0125,-0.1730,0.0072,-0.0333,0.0132,-2.3858,1.3856,3.1408
2024-10-11T12:48:55.784Z,-0.0100,-0.9805,0.2047,0.1073,0.0125,-0.1730,0.0059,-0.0331,0.0125,-2.3858,1.3856,3.1408
2024-10-11T12:48:55.794Z,-0.0091,-0.9770,0.2049,0.1073,0.0125,-0.1730,0.0029,-0.0364,0.0110,-2.3858,1.3856,3.1408
2024-10-11T12:48:55.804Z,-0.0080,-0.9779,0.2025,0.0818,-0.0505,-0.1956,0.0004,-0.0337,0.0113,-2.3878,1.3854,3.1415
2024-10-11T12:48:55.813Z,-0.0080,-0.9779,0.2025,0.0818,-0.0505,-0.1956,-0.0028,-0.0359,0.0084,-2.3878,1.3854,3.1415
2024-10-11T12:48:55.824Z,-0.0130,-0.9770,0.1963,0.0818,-0.0505,-0.1956,-0.0089,-0.0357,0.0070,-2.3878,1.3854,3.1415
2024-10-11T12:48:55.833Z,-0.0141,-0.9786,0.1926,0.1359,-0.0484,-0.1027,-0.0094,-0.0339,0.0066,-2.3895,1.3855,-3.1414
2024-10-11T12:48:55.845Z,-0.0155,-0.9803,0.1915,0.1359,-0.0484,-0.1027,-0.0116,-0.0355,0.0061,-2.3895,1.3855,-3.1414
2024-10-11T12:48:55.854Z,-0.0164,-0.9821,0.1911,0.1359,-0.0484,-0.1027,-0.0160,-0.0324,0.0033,-2.3895,1.3855,-3.1414
2024-10-11T12:48:55.863Z,-0.0142,-0.9851,0.1907,0.1559,0.0076,-0.0704,-0.0166,-0.0347,0.0014,-2.3904,1.3859,3.1414
2024-10-11T12:48:55.874Z,-0.0133,-0.9893,0.1896,0.1559,0.0076,-0.0704,-0.0136,-0.0313,0.0028,-2.3904,1.3859,3.1414
2024-10-11T12:48:55.884Z,-0.0088,-0.9912,0.1915,0.1559,0.0076,-0.0704,-0.0151,-0.0293,0.0016,-2.3904,1.3859,3.1414
2024-10-11T12:48:55.895Z,-0.0058,-0.9913,0.1926,0.0583,0.0749,-0.0897,-0.0116,-0.0300,0.0015,-2.3910,1.3862,3.1408
2024-10-11T12:48:55.904Z,-0.0045,-0.9927,0.1898,0.0583,0.0749,-0.0897,-0.0109,-0.0312,0.0016,-2.3910,1.3862,3.1408
2024-10-11T12:48:55.913Z,-0.0012,-0.9943,0.1886,0.0583,0.0749,-0.0897,-0.0075,-0.0340,0.0049,-2.3910,1.3862,3.1408
2024-10-11T12:48:55.924Z,-0.0024,-0.9930,0.1888,0.0193,0.0991,-0.0572,-0.0117,-0.0332,0.0037,-2.3919,1.3865,3.1405
2024-10-11T12:48:55.934Z,-0.0022,-0.9931,0.1851,0.0193,0.0991,-0.0572,-0.0087,-0.0321,0.0054,-2.3919,1.3865,3.1405
2024-10-11T12:48:55.944Z,-0.0005,-0.9939,0.1854,0.0193,0.0991,-0.0572,-0.0062,-0.0328,0.0058,-2.3919,1.3865,3.1405
2024-10-11T12:48:55.954Z,0.0017,-0.9913,0.1847,-0.0151,0.0999,-0.0255,-0.0111,-0.0294,0.0053,-2.3930,1.3867,3.1404
2024-10-11T12:48:55.963Z,0.0011,-0.9919,0.1840,-0.0151,0.0999,-0.0255,-0.0124,-0.0269,0.0078,-2.3930,1.3867,3.1404
2024-10-11T12:48:55.974Z,0.0012,-0.9896,0.1835,-0.0151,0.0999,-0.0255,-0.0137,-0.0263,0.0113,-2.3930,1.3867,3.1404
2024-10-11T12:48:55.984Z,-0.0006,-0.9870,0.1829,0.0020,0.0605,-0.0033,-0.0163,-0.0249,0.0103,-2.3946,1.3870,3.1410
2024-10-11T12:48:55.994Z,-0.0025,-0.9848,0.1845,0.0020,0.0605,-0.0033,-0.0163,-0.0214,0.0080,-2.3946,1.3870,3.1410
2024-10-11T12:48:56.004Z,-0.0019,-0.9829,0.1852,0.0020,0.0605,-0.0033,-0.0155,-0.0176,0.0118,-2.3946,1.3870,3.1410
2024-10-11T12:48:56.013Z,-0.0034,-0.9837,0.1872,0.0293,0.0050,-0.0412,-0.0154,-0.0176,0.0127,-2.3966,1.3875,-3.1412
2024-10-11T12:48:56.024Z,-0.0042,-0.9801,0.1872,0.0293,0.0050,-0.0412,-0.0141,-0.0126,0.0106,-2.3966,1.3875,-3.1412
2024-10-11T12:48:56.034Z,-0.0055,-0.9780,0.1884,0.0293,0.0050,-0.0412,-0.0147,-0.0106,0.0106,-2.3966,1.3875,-3.1412
2024-10-11T12:48:56.045Z,-0.0051,-0.9757,0.1876,0.0503,-0.0601,-0.0652,-0.0157,-0.0092,0.0104,-2.3985,1.3879,-3.1399
2024-10-11T12:48:56.054Z,-0.0066,-0.9775,0.1840,0.0503,-0.0601,-0.0652,-0.0148,-0.0084,0.0115,-2.3985,1.3879,-3.1399
2024-10-11T12:48:56.064Z,-0.0094,-0.9803,0.1810,0.0503,-0.0601,-0.0652,-0.0184,-0.0034,0.0089,-2.3985,1.3879,-3.1399
2024-10-11T12:48:56.074Z,-0.0055,-0.9827,0.1797,0.0728,-0.0235,0.0096,-0.0168,-0.0076,0.0118,-2.4002,1.3884,-3.1387
2024-10-11T12:48:56.084Z,-0.0053,-0.9836,0.1783,0.0728,-0.0235,0.0096,-0.0142,-0.0040,0.0105,-2.4002,1.3884,-3.1387
2024-10-11T12:48:56.095Z,-0.0089,-0.9863,0.1742,0.0728,-0.0235,0.0096,-0.0184,-0.0039,0.0136,-2.4002,1.3884,-3.1387
2024-10-11T12:48:56.104Z,-0.0083,-0.9867,0.1722,0.0834,0.0381,0.0763,-0.0184,-0.0032,0.0111,-2.4021,1.3889,-3.1372
2024-10-11T12:48:56.114Z,-0.0108,-0.9861,0.1734,0.0834,0.0381,0.0763,-0.0149,-0.0027,0.0102,-2.4021,1.3889,-3.1372
2024-10-11T12:48:56.124Z,-0.0133,-0.9874,0.1726,0.0834,0.0381,0.0763,-0.0160,-0.0002,0.0097,-2.4021,1.3889,-3.1372
2024-10-11T12:48:56.133Z,-0.0151,-0.9863,0.1744,0.1295,0.0363,0.0658,-0.0190,0.0017,0.0086,-2.4039,1.3893,-3.1357
2024-10-11T12:48:56.144Z,-0.0108,-0.9843,0.1796,0.1295,0.0363,0.0658,-0.0153,0.0042,0.0098,-2.4039,1.3893,-3.1357
2024-10-11T12:48:56.154Z,-0.0085,-0.9848,0.1807,0.1295,0.0363,0.0658,-0.0092,0.0084,0.0074,-2.4039,1.3893,-3.1357
2024-10-11T12:48:56.163Z,-0.0065,-0.9839,0.1828,0.0569,0.0066,-0.0131,-0.0109,0.0121,0.0075,-2.4056,1.3897,-3.1341
2024-10-11T12:48:56.174Z,-0.0046,-0.9822,0.1805,0.0569,0.0066,-0.0131,-0.0085,0.0142,0.0101,-2.4056,1.3897,-3.1341
2024-10-11T12:48:56.184Z,-0.0036,-0.9847,0.1770,0.0569,0.0066,-0.0131,-0.0097,0.0192,0.0089,-2.4056,1.3897,-3.1341
2024-10-11T12:48:56.194Z,-0.0020,-0.9851,0.1741,0.0123,0.0139,0.0437,-0.0100,0.0184,0.0086,-2.4074,1.3899,-3.1321
2024-10-11T12:48:56.204Z,-0.0019,-0.9859,0.1708,0.0123,0.0139,0.0437,-0.0074,0.0181,0.0103,-2.4074,1.3899,-3.1321
2024-10-11T12:48:56.214Z,-0.0020,-0.9860,0.1686,0.0123,0.0139,0.0437,-0.0061,0.0167,0.0132,-2.4074,1.3899,-3.1321
2024-10-11T12:48:56.223Z,-0.0003,-0.9842,0.1695,-0.0166,0.0122,0.1110,-0.0052,0.0185,0.0129,-2.4099,1.3902,-3.1293
2024-10-11T12:48:56.234Z,-0.0036,-0.9813,0.1723,-0.0166,0.0122,0.1110,-0.0024,0.0197,0.0130,-2.4099,1.3902,-3.1293
2024-10-11T12:48:56.244Z,-0.0052,-0.9773,0.1726,-0.0166,0.0122,0.1110,-0.0034,0.0241,0.0105,-2.4099,1.3902,-3.1293
2024-10-11T12:48:56.254Z,-0.0088,-0.9744,0.1734,0.0391,-0.0757,0.0717,-0.0025,0.0277,0.0138,-2.4123,1.3903,-3.1266
2024-10-11T12:48:56.264Z,-0.0069,-0.9727,0.1769,0.0391,-0.0757,0.0717,-0.0025,0.0284,0.0125,-2.4123,1.3903,-3.1266
2024-10-11T12:48:56.274Z,-0.0035,-0.9712,0.1823,0.0391,-0.0757,0.0717,-0.0042,0.0329,0.0114,-2.4123,1.3903,-3.1266
2024-10-11T12:48:56.284Z,-0.0003,-0.9702,0.1849,-0.0138,-0.1224,-0.0416,-0.0045,0.0391,0.0131,-2.4143,1.3903,-3.1239
2024-10-11T12:48:56.294Z,0.0002,-0.9691,0.1839,-0.0138,-0.1224,-0.0416,-0.0030,0.0406,0.0129,-2.4143,1.3903,-3.1239
2024-10-11T12:48:56.304Z,-0.0017,-0.9708,0.1814,-0.0138,-0.1224,-0.0416,-0.0019,0.0419,0.0125,-2.4143,1.3903,-3.1239
2024-10-11T12:48:56.314Z,-0.0056,-0.9713,0.1791,-0.0052,-0.1243,-0.0069,-0.0065,0.0383,0.0104,-2.4164,1.3905,-3.1209
2024-10-11T12:48:56.324Z,-0.0092,-0.9748,0.1761,-0.0052,-0.1243,-0.0069,-0.0069,0.0380,0.0123,-2.4164,1.3905,-3.1209
2024-10-11T12:48:56.334Z,-0.0101,-0.9795,0.1773,-0.0052,-0.1243,-0.0069,-0.0096,0.0387,0.0123,-2.4164,1.3905,-3.1209
2024-10-11T12:48:56.346Z,-0.0093,-0.9818,0.1786,0.0537,-0.0248,0.0069,-0.0109,0.0374,0.0102,-2.4188,1.3907,-3.1176
2024-10-11T12:48:56.353Z,-0.0105,-0.9845,0.1788,0.0537,-0.0248,0.0069,-0.0114,0.0309,0.0094,-2.4188,1.3907,-3.1176
2024-10-11T12:48:56.364Z,-0.0107,-0.9874,0.1768,0.0537,-0.0248,0.0069,-0.0101,0.0331,0.0084,-2.4188,1.3907,-3.1176
2024-10-11T12:48:56.374Z,-0.0121,-0.9875,0.1792,0.0752,0.0371,0.0110,-0.0060,0.0302,0.0053,-2.4205,1.3910,-3.1152
2024-10-11T12:48:56.383Z,-0.0127,-0.9853,0.1822,0.0752,0.0371,0.0110,-0.0065,0.0286,0.0062,-2.4205,1.3910,-3.1152
2024-10-11T12:48:56.394Z,-0.0103,-0.9843,0.1834,0.0752,0.0371,0.0110,-0.0060,0.0236,0.0044,-2.4205,1.3910,-3.1152
2024-10-11T12:48:56.404Z,-0.0082,-0.9847,0.1846,0.0451,0.0072,-0.0611,-0.0047,0.0193,0.0032,-2.4215,1.3911,-3.1137
2024-10-11T12:48:56.414Z,-0.0064,-0.9844,0.1863,0.0451,0.0072,-0.0611,-0.0039,0.0158,0.0057,-2.4215,1.3911,-3.1137
2024-10-11T12:48:56.423Z,-0.0089,-0.9845,0.1833,0.0451,0.0072,-0.0611,-0.0051,0.0139,0.0021,-2.4215,1.3911,-3.1137
2024-10-11T12:48:56.434Z,-0.0095,-0.9840,0.1816,0.0388,-0.0049,-0.0360,-0.0038,0.0103,0.0017,-2.4224,1.3913,-3.1127
2024-10-11T12:48:56.444Z,-0.0085,-0.9849,0.1765,0.0388,-0.0049,-0.0360,-0.0033,0.0093,-0.0014,-2.4224,1.3913,-3.1127
2024-10-11T12:48:56.454Z,-0.0075,-0.9862,0.1733,0.0388,-0.0049,-0.0360,-0.0053,0.0057,0.0011,-2.4224,1.3913,-3.1127
2024-10-11T12:48:56.464Z,-0.0064,-0.9889,0.1739,0.0250,0.0351,0.0500,-0.0051,0.0076,-0.0037,-2.4228,1.3914,-3.1123
2024-10-11T12:48:56.474Z,-0.0036,-0.9908,0.1740,0.0250,0.0351,0.0500,-0.0040,0.0090,0.0012,-2.4228,1.3914,-3.1123
2024-10-11T12:48:56.484Z,-0.0008,-0.9901,0.1741,0.0250,0.0351,0.0500,-0.0046,0.0120,-0.0006,-2.4228,1.3914,-3.1123
2024-10-11T12:48:56.495Z,-0.0017,-0.9888,0.1757,-0.0351,0.0542,0.0398,-0.0001,0.0090,0.0011,-2.4233,1.3914,-3.1118
2024-10-11T12:48:56.504Z,-0.0021,-0.9870,0.1772,-0.0351,0.0542,0.0398,-0.0006,0.0143,-0.0009,-2.4233,1.3914,-3.1118
2024-10-11T12:48:56.514Z,-0.0071,-0.9843,0.1784,-0.0351,0.0542,0.0398,0.0034,0.0097,0.0007,-2.4233,1.3914,-3.1118
2024-10-11T12:48:56.524Z,-0.0046,-0.9799,0.1803,0.0139,-0.0198,-0.0049,0.0054,0.0094,-0.0005,-2.4235,1.3914,-3.1115
2024-10-11T12:48:56.534Z,-0.0022,-0.9790,0.1832,0.0139,-0.0198,-0.0049,0.0036,0.0088,-0.0018,-2.4235,1.3914,-3.1115
2024-10-11T12:48:56.546Z,-0.0027,-0.9776,0.1844,-0.0177,-0.0727,-0.0614,0.0046,0.0029,-0.0015,-2.4235,1.3913,-3.1115
2024-10-11T12:48:56.553Z,-0.0056,-0.9760,0.1862,-0.0177,-0.0727,-0.0614,0.0065,0.0014,-0.0020,-2.4235,1.3913,-3.1115
2024-10-11T12:48:56.564Z,-0.0099,-0.9752,0.1862,-0.0177,-0.0727,-0.0614,0.0056,0.0016,-0.0022,-2.4235,1.3913,-3.1115
2024-10-11T12:48:56.574Z,-0.0132,-0.9741,0.1869,-0.0177,-0.0727,-0.0614,0.0048,-0.0018,-0.0048,-2.4235,1.3913,-3.1115
2024-10-11T12:48:56.584Z,-0.0127,-0.9731,0.1892,0.0794,-0.0947,-0.0982,0.0063,-0.0010,-0.0068,-2.4228,1.3911,-3.1125
2024-10-11T12:48:56.594Z,-0.0120,-0.9722,0.1913,0.0794,-0.0947,-0.0982,0.0070,-0.0044,-0.0085,-2.4228,1.3911,-3.1125
2024-10-11T12:48:56.604Z,-0.0095,-0.9727,0.1938,0.0794,-0.0947,-0.0982,0.0013,-0.0035,-0.0070,-2.4228,1.3911,-3.1125
2024-10-11T12:48:56.613Z,-0.0088,-0.9727,0.1931,0.0323,-0.1136,-0.1508,0.0023,-0.0050,-0.0076,-2.4217,1.3909,-3.1139
2024-10-11T12:48:56.624Z,-0.0109,-0.9748,0.1915,0.0323,-0.1136,-0.1508,-0.0003,-0.0041,-0.0072,-2.4217,1.3909,-3.1139
2024-10-11T12:48:56.634Z,-0.0139,-0.9768,0.1922,0.0323,-0.1136,-0.1508,-0.0005,-0.0045,-0.0094,-2.4217,1.3909,-3.1139
2024-10-11T12:48:56.645Z,-0.0142,-0.9813,0.1935,0.0968,-0.0467,-0.1420,-0.0019,-0.0050,-0.0113,-2.4203,1.3909,-3.1157
2024-10-11T12:48:56.654Z,-0.0139,-0.9843,0.1926,0.0968,-0.0467,-0.1420,-0.0046,-0.0040,-0.0112,-2.4203,1.3909,-3.1157
2024-10-11T12:48:56.664Z,-0.0114,-0.9870,0.1932,0.0968,-0.0467,-0.1420,-0.0023,-0.0059,-0.0123,-2.4203,1.3909,-3.1157
2024-10-11T12:48:56.673Z,-0.0114,-0.9915,0.1926,0.0640,0.0525,-0.1395,-0.0052,-0.0036,-0.0136,-2.4186,1.3909,-3.1177
2024-10-11T12:48:56.684Z,-0.0109,-0.9945,0.1903,0.0640,0.0525,-0.1395,-0.0025,-0.0026,-0.0137,-2.4186,1.3909,-3.1177
2024-10-11T12:48:56.697Z,-0.0123,-0.9919,0.1876,0.0881,0.0860,-0.0873,-0.0036,-0.0019,-0.0153,-2.4165,1.3909,-3.1200
2024-10-11T12:48:56.704Z,-0.0142,-0.9931,0.1862,0.0881,0.0860,-0.0873,-0.0026,0.0003,-0.0146,-2.4165,1.3909,-3.1200
2024-10-11T12:48:56.713Z,-0.0170,-0.9901,0.1836,0.0881,0.0860,-0.0873,-0.0024,-0.0025,-0.0161,-2.4165,1.3909,-3.1200
2024-10-11T12:48:56.724Z,-0.0141,-0.9875,0.1859,0.0881,0.0860,-0.0873,-0.0055,0.0031,-0.0174,-2.4165,1.3909,-3.1200
2024-10-11T12:48:56.734Z,-0.0160,-0.9837,0.1890,0.1056,0.0151,-0.0904,-0.0047,0.0022,-0.0195,-2.4142,1.3909,-3.1226
2024-10-11T12:48:56.745Z,-0.0165,-0.9790,0.1905,0.1056,0.0151,-0.0904,-0.0076,0.0057,-0.0183,-2.4142,1.3909,-3.1226
2024-10-11T12:48:56.755Z,-0.0181,-0.9762,0.1898,0.1567,-0.0920,-0.1132,-0.0069,0.0040,-0.0199,-2.4110,1.3911,-3.1259
2024-10-11T12:48:56.764Z,-0.0179,-0.9738,0.1895,0.1567,-0.0920,-0.1132,-0.0069,0.0032,-0.0213,-2.4110,1.3911,-3.1259
2024-10-11T12:48:56.774Z,-0.0137,-0.9729,0.1893,0.1567,-0.0920,-0.1132,-0.0063,0.0046,-0.0210,-2.4110,1.3911,-3.1259
2024-10-11T12:48:56.784Z,-0.0112,-0.9749,0.1866,0.1567,-0.0920,-0.1132,-0.0084,0.0029,-0.0225,-2.4110,1.3911,-3.1259
2024-10-11T12:48:56.796Z,-0.0051,-0.9784,0.1821,0.0682,-0.0703,-0.0586,-0.0059,0.0058,-0.0212,-2.4075,1.3912,-3.1294
2024-10-11T12:48:56.803Z,-0.0019,-0.9851,0.1769,0.0682,-0.0703,-0.0586,-0.0054,0.0091,-0.0179,-2.4075,1.3912,-3.1294
2024-10-11T12:48:56.816Z,-0.0036,-0.9887,0.1733,0.0272,0.0599,0.0741,-0.0071,0.0115,-0.0187,-2.4047,1.3914,-3.1322
2024-10-11T12:48:56.824Z,-0.0036,-0.9918,0.1707,0.0272,0.0599,0.0741,-0.0059,0.0146,-0.0196,-2.4047,1.3914,-3.1322
2024-10-11T12:48:56.834Z,-0.0028,-0.9900,0.1670,0.0272,0.0599,0.0741,-0.0046,0.0202,-0.0169,-2.4047,1.3914,-3.1322
2024-10-11T12:48:56.846Z,-0.0012,-0.9887,0.1675,0.0004,0.0214,0.1041,-0.0089,0.0237,-0.0173,-2.4022,1.3915,-3.1341
2024-10-11T12:48:56.853Z,0.0001,-0.9830,0.1696,0.0004,0.0214,0.1041,-0.0063,0.0311,-0.0155,-2.4022,1.3915,-3.1341
2024-10-11T12:48:56.864Z,0.0007,-0.9795,0.1716,0.0004,0.0214,0.1041,-0.0041,0.0324,-0.0137,-2.4022,1.3915,-3.1341
2024-10-11T12:48:56.873Z,-0.0020,-0.9774,0.1745,0.0004,0.0214,0.1041,-0.0044,0.0334,-0.0130,-2.4022,1.3915,-3.1341
2024-10-11T12:48:56.884Z,-0.0042,-0.9764,0.1729,0.0147,-0.0675,0.0468,-0.0019,0.0333,-0.0133,-2.4003,1.3915,-3.1354
2024-10-11T12:48:56.895Z,-0.0049,-0.9760,0.1722,0.0147,-0.0675,0.0468,0.0000,0.0347,-0.0096,-2.4003,1.3915,-3.1354
2024-10-11T12:48:56.904Z,-0.0062,-0.9767,0.1723,0.0632,-0.0496,0.0624,0.0004,0.0368,-0.0131,-2.3987,1.3915,-3.1361
2024-10-11T12:48:56.914Z,-0.0072,-0.9805,0.1703,0.0632,-0.0496,0.0624,0.0020,0.0401,-0.0104,-2.3987,1.3915,-3.1361
2024-10-11T12:48:56.924Z,-0.0045,-0.9843,0.1693,0.0632,-0.0496,0.0624,0.0016,0.0400,-0.0106,-2.3987,1.3915,-3.1361
2024-10-11T12:48:56.935Z,-0.0045,-0.9843,0.1679,0.0241,0.0090,0.1105,0.0007,0.0414,-0.0093,-2.3970,1.3915,-3.1368
2024-10-11T12:48:56.943Z,-0.0040,-0.9862,0.1664,0.0241,0.0090,0.1105,0.0022,0.0450,-0.0091,-2.3970,1.3915,-3.1368
2024-10-11T12:48:56.954Z,-0.0054,-0.9876,0.1670,0.0241,0.0090,0.1105,0.0040,0.0454,-0.0077,-2.3970,1.3915,-3.1368
2024-10-11T12:48:56.965Z,-0.0051,-0.9860,0.1682,0.0501,0.0208,0.0811,0.0043,0.0424,-0.0093,-2.3956,1.3914,-3.1370
2024-10-11T12:48:56.974Z,-0.0058,-0.9873,0.1698,0.0501,0.0208,0.0811,0.0059,0.0416,-0.0065,-2.3956,1.3914,-3.1370
2024-10-11T12:48:56.984Z,-0.0040,-0.9883,0.1726,0.0501,0.0208,0.0811,0.0057,0.0431,-0.0074,-2.3956,1.3914,-3.1370
2024-10-11T12:48:56.995Z,-0.0054,-0.9879,0.1720,0.0600,0.0326,0.0601,0.0050,0.0443,-0.0060,-2.3948,1.3912,-3.1368
2024-10-11T12:48:57.003Z,-0.0077,-0.9869,0.1734,0.0600,0.0326,0.0601,0.0086,0.0421,-0.0052,-2.3948,1.3912,-3.1368
2024-10-11T12:48:57.014Z,-0.0072,-0.9881,0.1721,0.0600,0.0326,0.0601,0.0071,0.0479,-0.0053,-2.3948,1.3912,-3.1368
2024-10-11T12:48:57.025Z,-0.0081,-0.9888,0.1704,0.0727,0.0462,0.0828,0.0099,0.0481,-0.0083,-2.3939,1.3911,-3.1366
2024-10-11T12:48:57.034Z,-0.0076,-0.9883,0.1694,0.0727,0.0462,0.0828,0.0077,0.0509,-0.0081,-2.3939,1.3911,-3.1366
2024-10-11T12:48:57.044Z,-0.0064,-0.9869,0.1697,0.0727,0.0462,0.0828,0.0092,0.0541,-0.0080,-2.3939,1.3911,-3.1366
2024-10-11T12:48:57.053Z,-0.0032,-0.9867,0.1705,0.0727,0.0462,0.0828,0.0084,0.0531,-0.0083,-2.3939,1.3911,-3.1366
2024-10-11T12:48:57.064Z,-0.0007,-0.9845,0.1738,0.0057,0.0239,0.0693,0.0060,0.0548,-0.0096,-2.3930,1.3910,-3.1361
2024-10-11T12:48:57.074Z,-0.0021,-0.9842,0.1760,0.0057,0.0239,0.0693,0.0075,0.0556,-0.0070,-2.3930,1.3910,-3.1361
2024-10-11T12:48:57.084Z,-0.0013,-0.9831,0.1760,0.0047,-0.0187,0.0233,0.0044,0.0554,-0.0074,-2.3925,1.3910,-3.1352
2024-10-11T12:48:57.093Z,-0.0027,-0.9820,0.1767,0.0047,-0.0187,0.0233,0.0057,0.0557,-0.0085,-2.3925,1.3910,-3.1352
2024-10-11T12:48:57.104Z,-0.0046,-0.9829,0.1797,0.0047,-0.0187,0.0233,0.0007,0.0568,-0.0081,-2.3925,1.3910,-3.1352
2024-10-11T12:48:57.113Z,-0.0024,-0.9820,0.1805,0.0047,-0.0187,0.0233,-0.0015,0.0543,-0.0094,-2.3925,1.3910,-3.1352
2024-10-11T12:48:57.124Z,-0.0037,-0.9819,0.1842,0.0170,-0.0150,-0.0274,0.0008,0.0557,-0.0082,-2.3917,1.3910,-3.1345
2024-10-11T12:48:57.134Z,-0.0038,-0.9818,0.1848,0.0170,-0.0150,-0.0274,0.0007,0.0567,-0.0100,-2.3917,1.3910,-3.1345
2024-10-11T12:48:57.144Z,-0.0032,-0.9823,0.1852,0.0143,-0.0060,-0.0664,-0.0013,0.0619,-0.0130,-2.3900,1.3910,-3.1346
2024-10-11T12:48:57.153Z,-0.0007,-0.9830,0.1853,0.0143,-0.0060,-0.0664,-0.0002,0.0644,-0.0130,-2.3900,1.3910,-3.1346
2024-10-11T12:48:57.163Z,0.0011,-0.9820,0.1851,0.0143,-0.0060,-0.0664,0.0006,0.0636,-0.0139,-2.3900,1.3910,-3.1346
2024-10-11T12:48:57.174Z,0.0000,-0.9841,0.1829,-0.0299,0.0124,-0.0267,-0.0001,0.0628,-0.0111,-2.3881,1.3910,-3.1349
2024-10-11T12:48:57.184Z,0.0040,-0.9872,0.1792,-0.0299,0.0124,-0.0267,-0.0006,0.0645,-0.0105,-2.3881,1.3910,-3.1349
2024-10-11T12:48:57.194Z,0.0028,-0.9878,0.1781,-0.0299,0.0124,-0.0267,0.0002,0.0651,-0.0112,-2.3881,1.3910,-3.1349
2024-10-11T12:48:57.205Z,-0.0002,-0.9878,0.1750,-0.0092,0.0212,0.0416,0.0011,0.0648,-0.0099,-2.3865,1.3910,-3.1348
2024-10-11T12:48:57.213Z,0.0005,-0.9851,0.1742,-0.0092,0.0212,0.0416,0.0011,0.0662,-0.0086,-2.3865,1.3910,-3.1348
2024-10-11T12:48:57.225Z,-0.0023,-0.9830,0.1741,-0.0092,0.0212,0.0416,0.0017,0.0663,-0.0111,-2.3865,1.3910,-3.1348
2024-10-11T12:48:57.234Z,-0.0031,-0.9791,0.1753,0.0160,-0.0567,0.0323,-0.0024,0.0658,-0.0110,-2.3846,1.3910,-3.1349
2024-10-11T12:48:57.244Z,-0.0016,-0.9760,0.1756,0.0160,-0.0567,0.0323,-0.0029,0.0688,-0.0129,-2.3846,1.3910,-3.1349
2024-10-11T12:48:57.254Z,-0.0011,-0.9750,0.1751,0.0160,-0.0567,0.0323,-0.0037,0.0693,-0.0122,-2.3846,1.3910,-3.1349
2024-10-11T12:48:57.265Z,-0.0018,-0.9733,0.1759,0.0150,-0.1064,0.0143,-0.0028,0.0667,-0.0119,-2.3825,1.3910,-3.1352
2024-10-11T12:48:57.273Z,-0.0016,-0.9743,0.1780,0.0150,-0.1064,0.0143,-0.0019,0.0664,-0.0121,-2.3825,1.3910,-3.1352
2024-10-11T12:48:57.284Z,-0.0003,-0.9763,0.1793,0.0150,-0.1064,0.0143,-0.0007,0.0669,-0.0132,-2.3825,1.3910,-3.1352
2024-10-11T12:48:57.294Z,-0.0040,-0.9795,0.1802,0.0358,-0.0222,0.0018,-0.0024,0.0639,-0.0159,-2.3799,1.3911,-3.1362
2024-10-11T12:48:57.304Z,-0.0038,-0.9836,0.1768,0.0358,-0.0222,0.0018,-0.0006,0.0602,-0.0171,-2.3799,1.3911,-3.1362
2024-10-11T12:48:57.313Z,0.0004,-0.9884,0.1789,0.0358,-0.0222,0.0018,-0.0002,0.0608,-0.0176,-2.3799,1.3911,-3.1362
2024-10-11T12:48:57.324Z,0.0053,-0.9925,0.1784,-0.0478,0.1000,0.0082,0.0031,0.0560,-0.0171,-2.3768,1.3910,-3.1377
2024-10-11T12:48:57.334Z,0.0053,-0.9949,0.1767,-0.0478,0.1000,0.0082,0.0017,0.0521,-0.0166,-2.3768,1.3910,-3.1377
2024-10-11T12:48:57.344Z,0.0093,-0.9955,0.1768,-0.0478,0.1000,0.0082,0.0009,0.0524,-0.0185,-2.3768,1.3910,-3.1377
2024-10-11T12:48:57.354Z,0.0095,-0.9943,0.1785,-0.0968,0.1036,-0.0014,-0.0002,0.0484,-0.0188,-2.3738,1.3909,-3.1394
2024-10-11T12:48:57.363Z,0.0095,-0.9939,0.1799,-0.0968,0.1036,-0.0014,-0.0001,0.0476,-0.0167,-2.3738,1.3909,-3.1394
2024-10-11T12:48:57.374Z,0.0088,-0.9911,0.1830,-0.0968,0.1036,-0.0014,0.0003,0.0435,-0.0184,-2.3738,1.3909,-3.1394
2024-10-11T12:48:57.384Z,0.0099,-0.9869,0.1847,-0.1202,0.0187,-0.0702,-0.0021,0.0442,-0.0171,-2.3709,1.3909,-3.1412
2024-10-11T12:48:57.394Z,0.0122,-0.9856,0.1868,-0.1202,0.0187,-0.0702,-0.0010,0.0432,-0.0155,-2.3709,1.3909,-3.1412
2024-10-11T12:48:57.404Z,0.0125,-0.9841,0.1829,-0.1202,0.0187,-0.0702,0.0024,0.0436,-0.0128,-2.3709,1.3909,-3.1412
2024-10-11T12:48:57.415Z,0.0119,-0.9838,0.1817,-0.1139,0.0023,-0.0336,-0.0003,0.0405,-0.0148,-2.3685,1.3908,3.1406
2024-10-11T12:48:57.424Z,0.0110,-0.9845,0.1797,-0.1139,0.0023,-0.0336,-0.0004,0.0411,-0.0159,-2.3685,1.3908,3.1406
2024-10-11T12:48:57.434Z,0.0125,-0.9842,0.1756,-0.1139,0.0023,-0.0336,0.0031,0.0397,-0.0132,-2.3685,1.3908,3.1406
2024-10-11T12:48:57.444Z,0.0139,-0.9845,0.1753,-0.1446,0.0248,0.0366,0.0019,0.0385,-0.0115,-2.3664,1.3907,3.1394
2024-10-11T12:48:57.454Z,0.0167,-0.9873,0.1761,-0.1446,0.0248,0.0366,0.0000,0.0386,-0.0121,-2.3664,1.3907,3.1394
2024-10-11T12:48:57.463Z,0.0175,-0.9876,0.1786,-0.1446,0.0248,0.0366,-0.0002,0.0361,-0.0099,-2.3664,1.3907,3.1394
2024-10-11T12:48:57.474Z,0.0183,-0.9884,0.1806,-0.1662,0.0393,-0.0122,-0.0026,0.0324,-0.0077,-2.3644,1.3907,3.1383
2024-10-11T12:48:57.484Z,0.0156,-0.9869,0.1821,-0.1662,0.0393,-0.0122,-0.0053,0.0332,-0.0066,-2.3644,1.3907,3.1383
2024-10-11T12:48:57.494Z,0.0161,-0.9849,0.1855,-0.1662,0.0393,-0.0122,-0.0054,0.0282,-0.0067,-2.3644,1.3907,3.1383
2024-10-11T12:48:57.504Z,0.0189,-0.9840,0.1877,-0.1643,0.0027,-0.1041,-0.0075,0.0312,-0.0043,-2.3629,1.3909,3.1375
2024-10-11T12:48:57.513Z,0.0161,-0.9820,0.1896,-0.1643,0.0027,-0.1041,-0.0062,0.0283,-0.0027,-2.3629,1.3909,3.1375
2024-10-11T12:48:57.524Z,0.0186,-0.9828,0.1923,-0.1643,0.0027,-0.1041,-0.0053,0.0302,0.0003,-2.3629,1.3909,3.1375
2024-10-11T12:48:57.534Z,0.0176,-0.9803,0.1946,-0.1590,-0.0333,-0.1492,-0.0078,0.0273,-0.0008,-2.3625,1.3911,3.1376
2024-10-11T12:48:57.544Z,0.0163,-0.9811,0.1920,-0.1590,-0.0333,-0.1492,-0.0085,0.0226,0.0003,-2.3625,1.3911,3.1376
2024-10-11T12:48:57.554Z,0.0130,-0.9826,0.1873,-0.1590,-0.0333,-0.1492,-0.0129,0.0202,0.0015,-2.3625,1.3911,3.1376
2024-10-11T12:48:57.564Z,0.0122,-0.9841,0.1861,-0.1129,0.0019,-0.0639,-0.0117,0.0199,0.0034,-2.3625,1.3914,3.1380
2024-10-11T12:48:57.574Z,0.0117,-0.9831,0.1842,-0.1129,0.0019,-0.0639,-0.0128,0.0183,0.0020,-2.3625,1.3914,3.1380
2024-10-11T12:48:57.584Z,0.0108,-0.9837,0.1840,-0.1129,0.0019,-0.0639,-0.0164,0.0167,0.0033,-2.3625,1.3914,3.1380
2024-10-11T12:48:57.594Z,0.0093,-0.9827,0.1839,-0.0577,-0.0120,-0.0561,-0.0135,0.0163,0.0022,-2.3625,1.3918,3.1382
2024-10-11T12:48:57.604Z,0.0041,-0.9818,0.1850,-0.0577,-0.0120,-0.0561,-0.0141,0.0174,0.0011,-2.3625,1.3918,3.1382
2024-10-11T12:48:57.614Z,0.0037,-0.9782,0.1837,-0.0577,-0.0120,-0.0561,-0.0139,0.0152,0.0022,-2.3625,1.3918,3.1382
2024-10-11T12:48:57.624Z,0.0041,-0.9757,0.1824,-0.0473,-0.1127,-0.0435,-0.0114,0.0136,-0.0006,-2.3621,1.3921,3.1381
2024-10-11T12:48:57.634Z,0.0054,-0.9716,0.1819,-0.0473,-0.1127,-0.0435,-0.0139,0.0152,-0.0034,-2.3621,1.3921,3.1381
2024-10-11T12:48:57.644Z,0.0060,-0.9714,0.1799,-0.0473,-0.1127,-0.0435,-0.0120,0.0141,-0.0021,-2.3621,1.3921,3.1381
2024-10-11T12:48:57.654Z,0.0089,-0.9713,0.1753,-0.0792,-0.1052,0.0352,-0.0136,0.0162,0.0003,-2.3618,1.3925,3.1380
2024-10-11T12:48:57.664Z,0.0099,-0.9762,0.1726,-0.0792,-0.1052,0.0352,-0.0135,0.0134,0.0001,-2.3618,1.3925,3.1380
2024-10-11T12:48:57.674Z,0.0101,-0.9899,0.1736,-0.0792,-0.1052,0.0352,-0.0136,0.0152,-0.0003,-2.3618,1.3925,3.1380
2024-10-11T12:48:57.684Z,0.0076,-1.0173,0.1666,-0.0943,0.4365,0.1065,-0.0124,0.0154,-0.0020,-2.3617,1.3928,3.1381
2024-10-11T12:48:57.694Z,0.0114,-1.0366,0.1669,-0.0943,0.4365,0.1065,-0.0093,0.0191,0.0024,-2.3617,1.3928,3.1381
2024-10-11T12:48:57.704Z,0.0159,-1.0308,0.1684,-0.0943,0.4365,0.1065,-0.0104,0.0235,0.0057,-2.3617,1.3928,3.1381
2024-10-11T12:48:57.714Z,0.0183,-1.0274,0.1783,-0.1568,0.4086,-0.0264,-0.0081,0.0240,0.0053,-2.3624,1.3931,3.1391
2024-10-11T12:48:57.724Z,0.0160,-1.0245,0.1812,-0.1568,0.4086,-0.0264,-0.0071,0.0255,0.0086,-2.3624,1.3931,3.1391
2024-10-11T12:48:57.734Z,0.0116,-1.0148,0.1756,-0.1568,0.4086,-0.0264,-0.0081,0.0285,0.0040,-2.3624,1.3931,3.1391
2024-10-11T12:48:57.744Z,0.0116,-1.0034,0.1803,-0.1410,0.1377,-0.0737,-0.0113,0.0285,0.0082,-2.3635,1.3934,3.1408
2024-10-11T12:48:57.754Z,0.0111,-0.9953,0.1903,-0.1410,0.1377,-0.0737,-0.0117,0.0267,0.0074,-2.3635,1.3934,3.1408
2024-10-11T12:48:57.764Z,-0.0004,-0.9877,0.1941,-0.1410,0.1377,-0.0737,-0.0155,0.0239,0.0088,-2.3635,1.3934,3.1408
2024-10-11T12:48:57.774Z,-0.0015,-0.9846,0.1910,0.0400,-0.0311,-0.0585,-0.0154,0.0212,0.0074,-2.3646,1.3938,-3.1409
2024-10-11T12:48:57.784Z,-0.0049,-0.9774,0.1780,0.0400,-0.0311,-0.0585,-0.0156,0.0207,0.0028,-2.3646,1.3938,-3.1409
2024-10-11T12:48:57.794Z,0.0068,-0.9750,0.1730,0.0400,-0.0311,-0.0585,-0.0178,0.0203,0.0060,-2.3646,1.3938,-3.1409
2024-10-11T12:48:57.804Z,0.0080,-0.9851,0.1785,-0.0803,0.0861,0.0650,-0.0167,0.0245,0.0051,-2.3654,1.3944,-3.1396
2024-10-11T12:48:57.813Z,0.0058,-0.9924,0.1655,-0.0803,0.0861,0.0650,-0.0164,0.0247,0.0057,-2.3654,1.3944,-3.1396
2024-10-11T12:48:57.824Z,-0.0033,-0.9783,0.1742,-0.0803,0.0861,0.0650,-0.0185,0.0281,0.0028,-2.3654,1.3944,-3.1396
2024-10-11T12:48:57.834Z,0.0028,-0.9544,0.1853,-0.0486,-0.3015,-0.1280,-0.0183,0.0279,0.0018,-2.3660,1.3949,-3.1385
2024-10-11T12:48:57.844Z,0.0011,-0.9569,0.1767,-0.0486,-0.3015,-0.1280,-0.0199,0.0269,0.0035,-2.3660,1.3949,-3.1385
2024-10-11T12:48:57.854Z,0.0080,-0.9584,0.1680,-0.0486,-0.3015,-0.1280,-0.0190,0.0231,0.0052,-2.3660,1.3949,-3.1385
2024-10-11T12:48:57.866Z,0.0059,-0.9543,0.1671,0.0031,-0.2885,0.0797,-0.0218,0.0234,0.0014,-2.3667,1.3954,-3.1374
2024-10-11T12:48:57.874Z,-0.0022,-0.9597,0.1606,0.0031,-0.2885,0.0797,-0.0212,0.0220,-0.0022,-2.3667,1.3954,-3.1374
2024-10-11T12:48:57.884Z,-0.0025,-0.9621,0.1601,0.0031,-0.2885,0.0797,-0.0210,0.0148,-0.0004,-2.3667,1.3954,-3.1374
2024-10-11T12:48:57.894Z,-0.0038,-0.9636,0.1586,-0.0002,-0.1985,0.1430,-0.0217,0.0137,-0.0022,-2.3666,1.3960,-3.1372
2024-10-11T12:48:57.904Z,0.0025,-0.9673,0.1584,-0.0002,-0.1985,0.1430,-0.0170,0.0135,-0.0020,-2.3666,1.3960,-3.1372
2024-10-11T12:48:57.913Z,0.0098,-0.9715,0.1711,-0.0002,-0.1985,0.1430,-0.0170,0.0127,-0.0009,-2.3666,1.3960,-3.1372
2024-10-11T12:48:57.924Z,0.0061,-0.9736,0.1843,-0.0473,-0.0617,-0.1434,-0.0174,0.0145,0.0017,-2.3667,1.3965,-3.1369
2024-10-11T12:48:57.934Z,0.0048,-0.9856,0.1845,-0.0473,-0.0617,-0.1434,-0.0196,0.0183,-0.0003,-2.3667,1.3965,-3.1369
2024-10-11T12:48:57.944Z,0.0141,-0.9828,0.1769,-0.0473,-0.0617,-0.1434,-0.0151,0.0179,0.0020,-2.3667,1.3965,-3.1369
2024-10-11T12:48:57.954Z,0.0090,-0.9728,0.1823,-0.0533,-0.1759,-0.0613,-0.0133,0.0193,0.0020,-2.3669,1.3970,-3.1365
2024-10-11T12:48:57.964Z,-0.0004,-0.9671,0.1816,-0.0533,-0.1759,-0.0613,-0.0127,0.0140,0.0012,-2.3669,1.3970,-3.1365
2024-10-11T12:48:57.974Z,-0.0084,-0.9759,0.1613,-0.0533,-0.1759,-0.0613,-0.0082,0.0069,-0.0026,-2.3669,1.3970,-3.1365
2024-10-11T12:48:57.983Z,-0.0034,-0.9750,0.1711,0.0604,-0.1188,0.0113,-0.0071,0.0038,-0.0016,-2.3668,1.3973,-3.1366
2024-10-11T12:48:57.994Z,-0.0077,-0.9743,0.1704,0.0604,-0.1188,0.0113,-0.0075,0.0015,-0.0020,-2.3668,1.3973,-3.1366
2024-10-11T12:48:58.004Z,0.0059,-0.9827,0.1620,0.0604,-0.1188,0.0113,-0.0080,0.0012,-0.0019,-2.3668,1.3973,-3.1366
2024-10-11T12:48:58.014Z,0.0038,-0.9862,0.1573,-0.0500,0.0359,0.1547,-0.0075,0.0013,-0.0021,-2.3665,1.3975,-3.1372
2024-10-11T12:48:58.024Z,0.0094,-0.9916,0.1527,-0.0500,0.0359,0.1547,-0.0068,-0.0001,0.0009,-2.3665,1.3975,-3.1372
2024-10-11T12:48:58.033Z,0.0039,-0.9953,0.1514,-0.0500,0.0359,0.1547,-0.0020,0.0007,0.0010,-2.3665,1.3975,-3.1372
2024-10-11T12:48:58.044Z,-0.0002,-0.9966,0.1592,-0.0359,0.0967,0.1048,-0.0014,-0.0014,0.0011,-2.3667,1.3975,-3.1372
2024-10-11T12:48:58.053Z,0.0038,-0.9941,0.1622,-0.0359,0.0967,0.1048,-0.0006,-0.0001,0.0002,-2.3667,1.3975,-3.1372
2024-10-11T12:48:58.064Z,-0.0048,-0.9976,0.1619,-0.0359,0.0967,0.1048,0.0036,-0.0014,0.0004,-2.3667,1.3975,-3.1372
2024-10-11T12:48:58.074Z,-0.0034,-0.9930,0.1749,0.0161,0.0555,-0.1167,0.0037,-0.0045,-0.0010,-2.3668,1.3975,-3.1374
2024-10-11T12:48:58.084Z,0.0016,-0.9887,0.1877,0.0161,0.0555,-0.1167,0.0012,-0.0057,-0.0032,-2.3668,1.3975,-3.1374
2024-10-11T12:48:58.094Z,0.0057,-0.9927,0.1893,0.0161,0.0555,-0.1167,0.0033,-0.0065,0.0010,-2.3668,1.3975,-3.1374
2024-10-11T12:48:58.104Z,-0.0003,-1.0090,0.1800,-0.0665,0.2578,-0.1137,0.0037,-0.0042,0.0011,-2.3669,1.3974,-3.1377
2024-10-11T12:48:58.114Z,0.0123,-1.0102,0.1878,-0.0665,0.2578,-0.1137,0.0032,-0.0016,0.0028,-2.3669,1.3974,-3.1377
2024-10-11T12:48:58.124Z,0.0043,-1.0130,0.1703,-0.0665,0.2578,-0.1137,0.0019,-0.0050,0.0065,-2.3669,1.3974,-3.1377
2024-10-11T12:48:58.133Z,0.0106,-1.0112,0.1746,-0.1286,0.2190,-0.0232,0.0014,-0.0076,0.0066,-2.3678,1.3974,-3.1372
2024-10-11T12:48:58.144Z,0.0068,-1.0037,0.1779,-0.1286,0.2190,-0.0232,-0.0007,-0.0099,0.0066,-2.3678,1.3974,-3.1372
2024-10-11T12:48:58.154Z,-0.0071,-1.0022,0.1677,-0.1286,0.2190,-0.0232,0.0000,-0.0102,0.0049,-2.3678,1.3974,-3.1372
2024-10-11T12:48:58.164Z,-0.0102,-0.9939,0.1768,0.0675,0.0880,-0.0440,-0.0032,-0.0108,0.0033,-2.3686,1.3974,-3.1369
2024-10-11T12:48:58.174Z,-0.0068,-0.9948,0.1729,0.0675,0.0880,-0.0440,-0.0045,-0.0181,0.0000,-2.3686,1.3974,-3.1369
2024-10-11T12:48:58.184Z,-0.0163,-0.9953,0.1696,0.0675,0.0880,-0.0440,-0.0029,-0.0207,-0.0001,-2.3686,1.3974,-3.1369
2024-10-11T12:48:58.194Z,-0.0132,-1.0014,0.1727,0.1042,0.1752,-0.0314,-0.0056,-0.0237,0.0003,-2.3685,1.3975,-3.1379
2024-10-11T12:48:58.204Z,-0.0110,-1.0018,0.1742,0.1042,0.1752,-0.0314,-0.0022,-0.0259,-0.0012,-2.3685,1.3975,-3.1379
2024-10-11T12:48:58.213Z,-0.0038,-0.9981,0.1756,0.1042,0.1752,-0.0314,-0.0037,-0.0250,-0.0030,-2.3685,1.3975,-3.1379
2024-10-11T12:48:58.224Z,0.0082,-0.9984,0.1667,-0.0817,0.1484,0.0504,-0.0070,-0.0258,-0.0008,-2.3683,1.3975,-3.1392
2024-10-11T12:48:58.233Z,0.0083,-0.9974,0.1641,-0.0817,0.1484,0.0504,-0.0037,-0.0290,0.0012,-2.3683,1.3975,-3.1392
2024-10-11T12:48:58.244Z,0.0126,-0.9795,0.1659,-0.0817,0.1484,0.0504,-0.0053,-0.0280,0.0045,-2.3683,1.3975,-3.1392
2024-10-11T12:48:58.254Z,0.0052,-0.9669,0.1621,-0.0073,-0.1980,0.0488,-0.0105,-0.0271,0.0055,-2.3692,1.3977,-3.1393
2024-10-11T12:48:58.264Z,-0.0025,-0.9649,0.1665,-0.0073,-0.1980,0.0488,-0.0110,-0.0305,0.0044,-2.3692,1.3977,-3.1393
2024-10-11T12:48:58.274Z,-0.0061,-0.9656,0.1605,-0.0073,-0.1980,0.0488,-0.0113,-0.0355,0.0057,-2.3692,1.3977,-3.1393
2024-10-11T12:48:58.283Z,0.0055,-0.9677,0.1585,-0.0499,-0.1562,0.0718,-0.0093,-0.0326,0.0074,-2.3706,1.3980,-3.1392
2024-10-11T12:48:58.294Z,-0.0008,-0.9719,0.1720,-0.0499,-0.1562,0.0718,-0.0151,-0.0308,0.0087,-2.3706,1.3980,-3.1392
2024-10-11T12:48:58.304Z,0.0007,-0.9766,0.1634,-0.0499,-0.1562,0.0718,-0.0123,-0.0333,0.0073,-2.3706,1.3980,-3.1392
2024-10-11T12:48:58.315Z,-0.0003,-0.9805,0.1671,0.0392,-0.0055,0.0510,-0.0146,-0.0260,0.0050,-2.3716,1.3984,-3.1394
2024-10-11T12:48:58.324Z,-0.0051,-0.9901,0.1726,0.0392,-0.0055,0.0510,-0.0133,-0.0231,0.0030,-2.3716,1.3984,-3.1394
2024-10-11T12:48:58.334Z,-0.0052,-0.9914,0.1747,0.0392,-0.0055,0.0510,-0.0132,-0.0195,0.0054,-2.3716,1.3984,-3.1394
2024-10-11T12:48:58.344Z,-0.0033,-0.9876,0.1818,-0.0036,-0.0040,-0.0269,-0.0141,-0.0149,0.0016,-2.3723,1.3989,-3.1395
2024-10-11T12:48:58.354Z,0.0031,-0.9798,0.1761,-0.0036,-0.0040,-0.0269,-0.0157,-0.0160,0.0026,-2.3723,1.3989,-3.1395
2024-10-11T12:48:58.364Z,0.0002,-0.9691,0.1833,-0.0036,-0.0040,-0.0269,-0.0198,-0.0141,0.0062,-2.3723,1.3989,-3.1395
2024-10-11T12:48:58.374Z,0.0103,-0.9614,0.1890,-0.0946,-0.2434,-0.1695,-0.0203,-0.0119,0.0072,-2.3735,1.3994,-3.1389
2024-10-11T12:48:58.384Z,0.0048,-0.9609,0.1880,-0.0946,-0.2434,-0.1695,-0.0225,-0.0062,0.0096,-2.3735,1.3994,-3.1389
2024-10-11T12:48:58.394Z,0.0102,-0.9613,0.1886,-0.0946,-0.2434,-0.1695,-0.0263,-0.0032,0.0116,-2.3735,1.3994,-3.1389
2024-10-11T12:48:58.404Z,0.0041,-0.9615,0.1904,0.0073,-0.2325,-0.2274,-0.0315,-0.0036,0.0120,-2.3757,1.4002,-3.1372
2024-10-11T12:48:58.414Z,0.0012,-0.9625,0.1955,0.0073,-0.2325,-0.2274,-0.0301,0.0009,0.0124,-2.3757,1.4002,-3.1372
2024-10-11T12:48:58.424Z,0.0023,-0.9652,0.1847,0.0073,-0.2325,-0.2274,-0.0304,0.0065,0.0127,-2.3757,1.4002,-3.1372
2024-10-11T12:48:58.434Z,-0.0072,-0.9761,0.1776,0.0010,-0.0436,-0.0583,-0.0308,0.0103,0.0125,-2.3781,1.4011,-3.1348
2024-10-11T12:48:58.444Z,0.0034,-0.9875,0.1710,0.0010,-0.0436,-0.0583,-0.0279,0.0179,0.0117,-2.3781,1.4011,-3.1348
2024-10-11T12:48:58.454Z,-0.0038,-1.0020,0.1681,0.0010,-0.0436,-0.0583,-0.0254,0.0255,0.0091,-2.3781,1.4011,-3.1348
2024-10-11T12:48:58.464Z,-0.0060,-1.0017,0.1600,0.0218,0.1438,0.1124,-0.0246,0.0280,0.0102,-2.3800,1.4017,-3.1325
2024-10-11T12:48:58.474Z,-0.0051,-0.9984,0.1492,0.0218,0.1438,0.1124,-0.0180,0.0302,0.0072,-2.3800,1.4017,-3.1325
2024-10-11T12:48:58.484Z,-0.0101,-0.9911,0.1599,0.0218,0.1438,0.1124,-0.0146,0.0281,0.0073,-2.3800,1.4017,-3.1325
2024-10-11T12:48:58.494Z,-0.0134,-0.9887,0.1592,0.1374,0.0546,0.1242,-0.0102,0.0264,0.0030,-2.3812,1.4020,-3.1307
2024-10-11T12:48:58.504Z,-0.0159,-0.9941,0.1527,0.1374,0.0546,0.1242,-0.0077,0.0209,0.0024,-2.3812,1.4020,-3.1307
2024-10-11T12:48:58.514Z,-0.0094,-0.9940,0.1575,0.1374,0.0546,0.1242,-0.0055,0.0140,0.0038,-2.3812,1.4020,-3.1307
2024-10-11T12:48:58.524Z,-0.0057,-0.9960,0.1600,0.0714,0.1281,0.0203,-0.0007,0.0092,0.0068,-2.3821,1.4020,-3.1296
2024-10-11T12:48:58.535Z,-0.0110,-1.0008,0.1636,0.0714,0.1281,0.0203,0.0024,0.0060,0.0032,-2.3821,1.4020,-3.1296
2024-10-11T12:48:58.544Z,-0.0058,-1.0032,0.1695,0.0714,0.1281,0.0203,0.0026,0.0029,0.0015,-2.3821,1.4020,-3.1296
2024-10-11T12:48:58.554Z,-0.0138,-0.9999,0.1642,0.0833,0.1349,-0.0470,0.0036,0.0037,0.0023,-2.3829,1.4019,-3.1290
2024-10-11T12:48:58.565Z,-0.0044,-1.0011,0.1738,0.0833,0.1349,-0.0470,0.0040,0.0012,0.0011,-2.3829,1.4019,-3.1290
2024-10-11T12:48:58.574Z,-0.0064,-1.0031,0.1719,0.0833,0.1349,-0.0470,0.0049,0.0005,0.0017,-2.3829,1.4019,-3.1290
2024-10-11T12:48:58.583Z,0.0002,-1.0022,0.1763,-0.0546,0.1320,-0.0442,0.0074,-0.0007,0.0031,-2.3836,1.4018,-3.1286
2024-10-11T12:48:58.594Z,0.0023,-1.0000,0.1735,-0.0546,0.1320,-0.0442,0.0060,0.0022,0.0028,-2.3836,1.4018,-3.1286
2024-10-11T12:48:58.604Z,0.0032,-0.9998,0.1691,-0.0546,0.1320,-0.0442,0.0039,0.0023,0.0037,-2.3836,1.4018,-3.1286
2024-10-11T12:48:58.614Z,0.0080,-0.9983,0.1836,-0.0419,0.1429,-0.1128,0.0027,0.0036,0.0043,-2.3845,1.4017,-3.1278
2024-10-11T12:48:58.624Z,-0.0028,-1.0021,0.1803,-0.0419,0.1429,-0.1128,-0.0014,0.0058,0.0055,-2.3845,1.4017,-3.1278
2024-10-11T12:48:58.634Z,-0.0032,-1.0029,0.1808,-0.0419,0.1429,-0.1128,-0.0016,0.0007,0.0037,-2.3845,1.4017,-3.1278
2024-10-11T12:48:58.644Z,-0.0132,-0.9993,0.1950,0.0936,0.0944,-0.2249,-0.0058,-0.0032,0.0028,-2.3853,1.4018,-3.1273
2024-10-11T12:48:58.654Z,-0.0103,-0.9892,0.1936,0.0936,0.0944,-0.2249,-0.0111,-0.0107,0.0002,-2.3853,1.4018,-3.1273
2024-10-11T12:48:58.664Z,-0.0122,-0.9785,0.1870,0.0936,0.0944,-0.2249,-0.0124,-0.0089,0.0014,-2.3853,1.4018,-3.1273
2024-10-11T12:48:58.674Z,-0.0054,-0.9669,0.1933,0.0268,-0.2404,-0.1938,-0.0230,-0.0096,-0.0011,-2.3854,1.4022,-3.1277
2024-10-11T12:48:58.683Z,-0.0092,-0.9578,0.1862,0.0268,-0.2404,-0.1938,-0.0223,-0.0083,-0.0021,-2.3854,1.4022,-3.1277
2024-10-11T12:48:58.694Z,-0.0141,-0.9636,0.1784,0.0268,-0.2404,-0.1938,-0.0232,-0.0110,-0.0021,-2.3854,1.4022,-3.1277
2024-10-11T12:48:58.704Z,-0.0144,-0.9633,0.1830,0.0996,-0.1864,-0.2082,-0.0288,-0.0084,-0.0040,-2.3850,1.4029,-3.1287
2024-10-11T12:48:58.714Z,-0.0073,-0.9703,0.1809,0.0996,-0.1864,-0.2082,-0.0267,-0.0102,-0.0039,-2.3850,1.4029,-3.1287
2024-10-11T12:48:58.724Z,-0.0025,-0.9809,0.1735,0.0996,-0.1864,-0.2082,-0.0309,-0.0030,-0.0070,-2.3850,1.4029,-3.1287
2024-10-11T12:48:58.734Z,-0.0063,-0.9840,0.1665,0.0251,-0.0109,-0.0331,-0.0281,-0.0083,-0.0051,-2.3843,1.4037,-3.1298
2024-10-11T12:48:58.743Z,-0.0030,-0.9886,0.1621,0.0251,-0.0109,-0.0331,-0.0257,-0.0072,-0.0058,-2.3843,1.4037,-3.1298
2024-10-11T12:48:58.754Z,-0.0082,-0.9935,0.1564,0.0251,-0.0109,-0.0331,-0.0278,-0.0058,-0.0082,-2.3843,1.4037,-3.1298
2024-10-11T12:48:58.764Z,-0.0020,-0.9936,0.1527,-0.0052,0.0719,0.0852,-0.0292,-0.0098,-0.0063,-2.3835,1.4044,-3.1311
2024-10-11T12:48:58.774Z,-0.0051,-0.9916,0.1528,-0.0052,0.0719,0.0852,-0.0339,-0.0079,-0.0063,-2.3835,1.4044,-3.1311
2024-10-11T12:48:58.785Z,-0.0076,-0.9905,0.1597,-0.0052,0.0719,0.0852,-0.0324,-0.0099,-0.0044,-2.3835,1.4044,-3.1311
2024-10-11T12:48:58.794Z,0.0020,-0.9911,0.1577,-0.0735,0.0744,0.0438,-0.0324,-0.0099,-0.0044,-2.3828,1.4052,-3.1323
2024-10-11T12:48:58.804Z,0.0068,-0.9965,0.1572,-0.0735,0.0744,0.0438,-0.0312,-0.0105,-0.0046,-2.3828,1.4052,-3.1323
2024-10-11T12:48:58.814Z,0.0066,-0.9981,0.1560,-0.0735,0.0744,0.0438,-0.0296,-0.0100,-0.0032,-2.3828,1.4052,-3.1323
2024-10-11T12:48:58.825Z,0.0026,-0.9994,0.1505,0.0233,0.0946,0.0922,-0.0281,-0.0130,-0.0051,-2.3823,1.4061,-3.1334
2024-10-11T12:48:58.835Z,-0.0092,-0.9914,0.1583,0.0233,0.0946,0.0922,-0.0208,-0.0134,-0.0071,-2.3823,1.4061,-3.1334
2024-10-11T12:48:58.844Z,-0.0099,-0.9865,0.1485,0.0233,0.0946,0.0922,-0.0208,-0.0134,-0.0071,-2.3823,1.4061,-3.1334
2024-10-11T12:48:58.855Z,-0.0085,-0.9870,0.1465,0.0743,-0.0485,0.1405,-0.0119,-0.0120,-0.0053,-2.3812,1.4068,-3.1350
2024-10-11T12:48:58.865Z,-0.0038,-0.9752,0.1531,0.0743,-0.0485,0.1405,-0.0119,-0.0120,-0.0053,-2.3812,1.4068,-3.1350
2024-10-11T12:48:58.874Z,0.0033,-0.9678,0.1550,0.0743,-0.0485,0.1405,-0.0094,-0.0076,-0.0066,-2.3812,1.4068,-3.1350
2024-10-11T12:48:58.885Z,0.0061,-0.9642,0.1538,-0.0931,-0.2244,0.1521,-0.0107,-0.0047,-0.0024,-2.3802,1.4071,-3.1365
2024-10-11T12:48:58.895Z,0.0085,-0.9629,0.1469,-0.0931,-0.2244,0.1521,-0.0065,-0.0044,0.0023,-2.3802,1.4071,-3.1365
2024-10-11T12:48:58.905Z,0.0060,-0.9583,0.1454,-0.0931,-0.2244,0.1521,-0.0085,-0.0027,-0.0003,-2.3802,1.4071,-3.1365
2024-10-11T12:48:58.916Z,0.0068,-0.9704,0.1417,-0.0260,-0.1078,0.2634,-0.0070,-0.0026,0.0017,-2.3803,1.4074,-3.1367
2024-10-11T12:48:58.925Z,-0.0012,-0.9813,0.1361,-0.0260,-0.1078,0.2634,-0.0044,-0.0035,0.0022,-2.3803,1.4074,-3.1367
2024-10-11T12:48:58.933Z,-0.0012,-0.9887,0.1338,-0.0260,-0.1078,0.2634,-0.0044,-0.0035,0.0022,-2.3803,1.4074,-3.1367
2024-10-11T12:48:58.943Z,-0.0085,-0.9928,0.1417,0.0751,0.0738,0.2202,-0.0057,-0.0055,0.0008,-2.3808,1.4076,-3.1366
2024-10-11T12:48:58.954Z,-0.0048,-0.9931,0.1481,0.0751,0.0738,0.2202,-0.0074,-0.0001,-0.0023,-2.3808,1.4076,-3.1366
2024-10-11T12:48:58.965Z,0.0011,-0.9910,0.1594,0.0751,0.0738,0.2202,-0.0049,0.0019,0.0004,-2.3808,1.4076,-3.1366
2024-10-11T12:48:58.974Z,0.0041,-0.9949,0.1656,-0.0353,0.0742,-0.0413,-0.0039,0.0079,0.0002,-2.3807,1.4078,-3.1368
2024-10-11T12:48:58.985Z,-0.0004,-0.9902,0.1692,-0.0353,0.0742,-0.0413,-0.0083,0.0121,0.0014,-2.3807,1.4078,-3.1368
2024-10-11T12:48:58.994Z,0.0045,-0.9761,0.1809,-0.0353,0.0742,-0.0413,-0.0101,0.0125,0.0016,-2.3807,1.4078,-3.1368
2024-10-11T12:48:59.004Z,0.0042,-0.9644,0.1902,0.0114,-0.2361,-0.2577,-0.0141,0.0079,0.0003,-2.3810,1.4081,-3.1364
2024-10-11T12:48:59.015Z,-0.0053,-0.9637,0.1796,0.0114,-0.2361,-0.2577,-0.0150,0.0071,0.0003,-2.3810,1.4081,-3.1364
2024-10-11T12:48:59.024Z,-0.0043,-0.9633,0.1827,0.0114,-0.2361,-0.2577,-0.0180,0.0021,-0.0017,-2.3810,1.4081,-3.1364
2024-10-11T12:48:59.035Z,-0.0107,-0.9684,0.1752,0.1268,-0.1012,-0.0693,-0.0167,-0.0020,-0.0040,-2.3811,1.4086,-3.1364
2024-10-11T12:48:59.044Z,-0.0168,-0.9809,0.1603,0.1268,-0.1012,-0.0693,-0.0225,-0.0038,-0.0077,-2.3811,1.4086,-3.1364
2024-10-11T12:48:59.054Z,-0.0182,-0.9885,0.1627,0.1268,-0.1012,-0.0693,-0.0234,-0.0035,-0.0096,-2.3811,1.4086,-3.1364
2024-10-11T12:48:59.065Z,-0.0159,-0.9957,0.1568,0.1351,0.1178,0.0418,-0.0253,-0.0064,-0.0113,-2.3799,1.4092,-3.1380
2024-10-11T12:48:59.074Z,-0.0109,-1.0017,0.1524,0.1351,0.1178,0.0418,-0.0246,-0.0042,-0.0092,-2.3799,1.4092,-3.1380
2024-10-11T12:48:59.084Z,-0.0000,-1.0017,0.1613,0.1351,0.1178,0.0418,-0.0246,-0.0042,-0.0092,-2.3799,1.4092,-3.1380
2024-10-11T12:48:59.095Z,-0.0000,-1.0017,0.1613,-0.0315,0.1427,-0.0382,-0.0219,-0.0028,-0.0076,-2.3783,1.4097,-3.1399
2024-10-11T12:48:59.104Z,0.0041,-1.0023,0.1682,-0.0315,0.1427,-0.0382,-0.0224,-0.0038,-0.0084,-2.3783,1.4097,-3.1399
2024-10-11T12:48:59.114Z,-0.0052,-1.0003,0.1668,-0.0315,0.1427,-0.0382,-0.0240,0.0004,-0.0100,-2.3783,1.4097,-3.1399
2024-10-11T12:48:59.124Z,-0.0005,-0.9918,0.1775,-0.0016,0.0189,-0.1596,-0.0215,0.0011,-0.0066,-2.3775,1.4103,-3.1410
2024-10-11T12:48:59.134Z,0.0008,-0.9913,0.1711,-0.0016,0.0189,-0.1596,-0.0172,-0.0041,-0.0051,-2.3775,1.4103,-3.1410
2024-10-11T12:48:59.144Z,0.0016,-0.9973,0.1547,-0.0016,0.0189,-0.1596,-0.0141,0.0006,-0.0064,-2.3775,1.4103,-3.1410
2024-10-11T12:48:59.154Z,0.0054,-0.9895,0.1587,-0.0853,0.0316,0.0080,-0.0176,0.0030,-0.0041,-2.3769,1.4108,3.1413
2024-10-11T12:48:59.164Z,0.0072,-0.9943,0.1550,-0.0853,0.0316,0.0080,-0.0127,-0.0019,-0.0039,-2.3769,1.4108,3.1413
2024-10-11T12:48:59.174Z,0.0061,-0.9859,0.1548,-0.0853,0.0316,0.0080,-0.0148,0.0012,-0.0018,-2.3769,1.4108,3.1413
2024-10-11T12:48:59.184Z,0.0107,-0.9861,0.1575,-0.0625,-0.0341,0.0401,-0.0177,0.0032,-0.0016,-2.3765,1.4112,3.1406
2024-10-11T12:48:59.194Z,0.0019,-0.9800,0.1646,-0.0625,-0.0341,0.0401,-0.0167,0.0048,-0.0025,-2.3765,1.4112,3.1406
2024-10-11T12:48:59.204Z,0.0019,-0.9800,0.1646,-0.0625,-0.0341,0.0401,-0.0193,0.0039,-0.0038,-2.3765,1.4112,3.1406
2024-10-11T12:48:59.214Z,-0.0124,-0.9842,0.1749,0.0996,-0.0087,-0.1319,-0.0220,0.0106,-0.0017,-2.3762,1.4118,3.1402
2024-10-11T12:48:59.225Z,-0.0021,-0.9975,0.1650,0.0996,-0.0087,-0.1319,-0.0233,0.0126,-0.0029,-2.3762,1.4118,3.1402
2024-10-11T12:48:59.233Z,-0.0021,-0.9975,0.1650,0.0996,-0.0087,-0.1319,-0.0233,0.0126,-0.0029,-2.3762,1.4118,3.1402
2024-10-11T12:48:59.244Z,-0.0021,-0.9918,0.1630,0.0502,-0.0144,-0.0555,-0.0180,0.0175,-0.0010,-2.3757,1.4124,3.1399
2024-10-11T12:48:59.254Z,-0.0084,-0.9801,0.1629,0.0502,-0.0144,-0.0555,-0.0206,0.0224,-0.0025,-2.3757,1.4124,3.1399
2024-10-11T12:48:59.264Z,-0.0039,-0.9829,0.1542,0.0502,-0.0144,-0.0555,-0.0152,0.0253,-0.0022,-2.3757,1.4124,3.1399
2024-10-11T12:48:59.274Z,-0.0052,-0.9828,0.1573,0.0152,-0.0937,0.0170,-0.0155,0.0327,0.0010,-2.3755,1.4129,3.1402
2024-10-11T12:48:59.284Z,0.0063,-0.9802,0.1441,0.0152,-0.0937,0.0170,-0.0155,0.0327,0.0010,-2.3755,1.4129,3.1402
2024-10-11T12:48:59.294Z,0.0063,-0.9802,0.1441,0.0152,-0.0937,0.0170,-0.0136,0.0393,0.0060,-2.3755,1.4129,3.1402
2024-10-11T12:48:59.305Z,-0.0069,-0.9807,0.1372,-0.0314,-0.0693,0.1573,-0.0104,0.0436,0.0041,-2.3766,1.4132,-3.1410
2024-10-11T12:48:59.314Z,-0.0069,-0.9807,0.1372,-0.0314,-0.0693,0.1573,-0.0098,0.0437,0.0055,-2.3766,1.4132,-3.1410
2024-10-11T12:48:59.324Z,-0.0077,-0.9810,0.1425,-0.0314,-0.0693,0.1573,-0.0109,0.0444,0.0045,-2.3766,1.4132,-3.1410
2024-10-11T12:48:59.334Z,-0.0088,-0.9823,0.1475,0.1410,-0.0253,0.0854,-0.0079,0.0446,-0.0008,-2.3776,1.4135,-3.1389
2024-10-11T12:48:59.344Z,-0.0192,-0.9883,0.1452,0.1410,-0.0253,0.0854,-0.0060,0.0478,-0.0018,-2.3776,1.4135,-3.1389
2024-10-11T12:48:59.355Z,-0.0148,-0.9878,0.1510,0.1410,-0.0253,0.0854,-0.0031,0.0509,-0.0004,-2.3776,1.4135,-3.1389
2024-10-11T12:48:59.364Z,-0.0148,-0.9878,0.1510,0.1392,-0.0202,0.0423,-0.0002,0.0435,-0.0040,-2.3775,1.4136,-3.1379
2024-10-11T12:48:59.374Z,-0.0071,-0.9812,0.1540,0.1392,-0.0202,0.0423,-0.0001,0.0438,-0.0055,-2.3775,1.4136,-3.1379
2024-10-11T12:48:59.383Z,-0.0071,-0.9812,0.1540,0.1392,-0.0202,0.0423,-0.0001,0.0438,-0.0055,-2.3775,1.4136,-3.1379
2024-10-11T12:48:59.394Z,-0.0082,-0.9860,0.1490,0.0956,0.0009,0.0611,0.0055,0.0410,-0.0041,-2.3769,1.4136,-3.1374
2024-10-11T12:48:59.404Z,-0.0082,-0.9860,0.1490,0.0956,0.0009,0.0611,0.0063,0.0367,-0.0067,-2.3769,1.4136,-3.1374
2024-10-11T12:48:59.414Z,-0.0118,-0.9875,0.1530,0.0956,0.0009,0.0611,0.0072,0.0366,-0.0087,-2.3769,1.4136,-3.1374
2024-10-11T12:48:59.424Z,-0.0085,-0.9859,0.1659,0.0982,-0.0154,-0.0509,0.0042,0.0388,-0.0089,-2.3759,1.4135,-3.1374
2024-10-11T12:48:59.434Z,-0.0085,-0.9859,0.1659,0.0982,-0.0154,-0.0509,0.0063,0.0383,-0.0101,-2.3759,1.4135,-3.1374
2024-10-11T12:48:59.444Z,-0.0035,-0.9931,0.1645,0.0982,-0.0154,-0.0509,0.0037,0.0413,-0.0122,-2.3759,1.4135,-3.1374
2024-10-11T12:48:59.454Z,-0.0028,-0.9944,0.1682,0.0330,0.0568,-0.0872,0.0004,0.0424,-0.0126,-2.3744,1.4134,-3.1379
2024-10-11T12:48:59.464Z,-0.0071,-0.9920,0.1687,0.0330,0.0568,-0.0872,0.0019,0.0375,-0.0157,-2.3744,1.4134,-3.1379
2024-10-11T12:48:59.474Z,-0.0086,-0.9889,0.1759,0.0330,0.0568,-0.0872,0.0015,0.0359,-0.0149,-2.3744,1.4134,-3.1379
2024-10-11T12:48:59.484Z,-0.0086,-0.9889,0.1759,0.0587,-0.0067,-0.2013,-0.0018,0.0407,-0.0112,-2.3723,1.4134,-3.1391
2024-10-11T12:48:59.494Z,-0.0015,-0.9827,0.1826,0.0587,-0.0067,-0.2013,-0.0086,0.0379,-0.0107,-2.3723,1.4134,-3.1391
2024-10-11T12:48:59.504Z,0.0003,-0.9820,0.1817,0.0587,-0.0067,-0.2013,-0.0129,0.0353,-0.0142,-2.3723,1.4134,-3.1391
2024-10-11T12:48:59.514Z,-0.0069,-0.9785,0.1868,0.0330,-0.0659,-0.2170,-0.0185,0.0347,-0.0143,-2.3704,1.4136,-3.1402
2024-10-11T12:48:59.524Z,-0.0055,-0.9800,0.1859,0.0330,-0.0659,-0.2170,-0.0226,0.0325,-0.0130,-2.3704,1.4136,-3.1402
2024-10-11T12:48:59.534Z,-0.0055,-0.9800,0.1859,0.0330,-0.0659,-0.2170,-0.0210,0.0294,-0.0163,-2.3704,1.4136,-3.1402
2024-10-11T12:48:59.544Z,-0.0058,-0.9914,0.1728,0.0608,0.0074,-0.2148,-0.0252,0.0339,-0.0178,-2.3678,1.4142,3.1412
2024-10-11T12:48:59.554Z,-0.0014,-1.0023,0.1731,0.0608,0.0074,-0.2148,-0.0299,0.0377,-0.0150,-2.3678,1.4142,3.1412
2024-10-11T12:48:59.564Z,0.0042,-1.0049,0.1726,0.0608,0.0074,-0.2148,-0.0261,0.0333,-0.0162,-2.3678,1.4142,3.1412
2024-10-11T12:48:59.574Z,0.0041,-1.0045,0.1633,-0.0403,0.1745,-0.1410,-0.0271,0.0351,-0.0136,-2.3651,1.4149,3.1393
2024-10-11T12:48:59.585Z,0.0041,-1.0045,0.1633,-0.0403,0.1745,-0.1410,-0.0282,0.0392,-0.0134,-2.3651,1.4149,3.1393
2024-10-11T12:48:59.594Z,0.0105,-0.9888,0.1565,-0.0403,0.1745,-0.1410,-0.0261,0.0387,-0.0092,-2.3651,1.4149,3.1393
2024-10-11T12:48:59.604Z,0.0079,-0.9887,0.1496,-0.0697,-0.0028,0.0007,-0.0209,0.0344,-0.0088,-2.3631,1.4155,3.1381
2024-10-11T12:48:59.614Z,0.0082,-0.9854,0.1500,-0.0697,-0.0028,0.0007,-0.0212,0.0358,-0.0065,-2.3631,1.4155,3.1381
2024-10-11T12:48:59.624Z,0.0041,-0.9881,0.1441,-0.0697,-0.0028,0.0007,-0.0241,0.0361,-0.0040,-2.3631,1.4155,3.1381
2024-10-11T12:48:59.634Z,0.0041,-0.9881,0.1441,-0.0533,-0.0156,0.0791,-0.0220,0.0351,-0.0007,-2.3622,1.4161,3.1381
2024-10-11T12:48:59.644Z,0.0081,-0.9811,0.1562,-0.0533,-0.0156,0.0791,-0.0204,0.0353,-0.0011,-2.3622,1.4161,3.1381
2024-10-11T12:48:59.654Z,0.0088,-0.9803,0.1473,-0.0533,-0.0156,0.0791,-0.0220,0.0418,0.0008,-2.3622,1.4161,3.1381
2024-10-11T12:48:59.664Z,0.0043,-0.9767,0.1474,-0.0610,-0.0871,0.0638,-0.0232,0.0406,-0.0006,-2.3620,1.4167,3.1388
2024-10-11T12:48:59.674Z,-0.0055,-0.9756,0.1478,-0.0610,-0.0871,0.0638,-0.0239,0.0348,-0.0022,-2.3620,1.4167,3.1388
2024-10-11T12:48:59.684Z,-0.0055,-0.9756,0.1478,-0.0610,-0.0871,0.0638,-0.0211,0.0346,-0.0010,-2.3620,1.4167,3.1388
2024-10-11T12:48:59.694Z,0.0055,-0.9746,0.1442,-0.0095,-0.1771,0.0383,-0.0185,0.0347,-0.0025,-2.3614,1.4174,3.1390
2024-10-11T12:48:59.704Z,0.0099,-0.9760,0.1326,-0.0095,-0.1771,0.0383,-0.0150,0.0307,-0.0012,-2.3614,1.4174,3.1390
2024-10-11T12:48:59.714Z,0.0119,-0.9753,0.1330,-0.0095,-0.1771,0.0383,-0.0154,0.0326,-0.0014,-2.3614,1.4174,3.1390
2024-10-11T12:48:59.724Z,0.0122,-0.9828,0.1281,-0.1101,-0.0892,0.1894,-0.0108,0.0351,0.0019,-2.3610,1.4178,3.1394
2024-10-11T12:48:59.734Z,0.0122,-0.9828,0.1281,-0.1101,-0.0892,0.1894,-0.0028,0.0320,0.0035,-2.3610,1.4178,3.1394
2024-10-11T12:48:59.743Z,0.0169,-0.9920,0.1238,-0.1101,-0.0892,0.1894,-0.0008,0.0328,0.0022,-2.3610,1.4178,3.1394
2024-10-11T12:48:59.754Z,0.0137,-0.9966,0.1239,-0.1528,0.0621,0.2729,-0.0024,0.0382,0.0032,-2.3615,1.4180,3.1407
2024-10-11T12:48:59.764Z,0.0101,-0.9912,0.1285,-0.1528,0.0621,0.2729,0.0001,0.0342,0.0051,-2.3615,1.4180,3.1407
2024-10-11T12:48:59.774Z,0.0085,-0.9794,0.1384,-0.1528,0.0621,0.2729,0.0056,0.0314,0.0057,-2.3615,1.4180,3.1407
2024-10-11T12:48:59.784Z,0.0071,-0.9791,0.1381,-0.0859,-0.1016,0.1407,0.0053,0.0317,0.0059,-2.3626,1.4179,-3.1407
2024-10-11T12:48:59.794Z,0.0103,-0.9824,0.1476,-0.0859,-0.1016,0.1407,0.0080,0.0355,0.0083,-2.3626,1.4179,-3.1407
2024-10-11T12:48:59.805Z,0.0115,-0.9828,0.1551,-0.0859,-0.1016,0.1407,0.0102,0.0319,0.0072,-2.3626,1.4179,-3.1407
2024-10-11T12:48:59.814Z,0.0084,-0.9811,0.1632,-0.0984,-0.0603,-0.0707,0.0097,0.0319,0.0054,-2.3638,1.4178,-3.1388
2024-10-11T12:48:59.824Z,0.0120,-0.9816,0.1609,-0.0984,-0.0603,-0.0707,0.0090,0.0330,0.0074,-2.3638,1.4178,-3.1388
2024-10-11T12:48:59.834Z,0.0120,-0.9816,0.1609,-0.0984,-0.0603,-0.0707,0.0129,0.0240,0.0082,-2.3638,1.4178,-3.1388
2024-10-11T12:48:59.844Z,0.0068,-0.9757,0.1764,-0.0721,-0.1245,-0.2010,0.0138,0.0202,0.0077,-2.3648,1.4176,-3.1373
2024-10-11T12:48:59.854Z,0.0069,-0.9832,0.1652,-0.0721,-0.1245,-0.2010,0.0126,0.0224,0.0101,-2.3648,1.4176,-3.1373
2024-10-11T12:48:59.864Z,0.0003,-0.9920,0.1722,-0.0721,-0.1245,-0.2010,0.0085,0.0171,0.0104,-2.3648,1.4176,-3.1373
2024-10-11T12:48:59.874Z,-0.0077,-1.0034,0.1588,0.0335,0.0861,-0.1237,0.0100,0.0133,0.0047,-2.3664,1.4173,-3.1354
2024-10-11T12:48:59.884Z,-0.0077,-1.0034,0.1588,0.0335,0.0861,-0.1237,0.0063,0.0141,0.0053,-2.3664,1.4173,-3.1354
2024-10-11T12:48:59.894Z,-0.0170,-0.9960,0.1602,0.0335,0.0861,-0.1237,0.0057,0.0132,0.0018,-2.3664,1.4173,-3.1354
2024-10-11T12:48:59.904Z,-0.0171,-0.9949,0.1635,0.1429,0.0678,-0.1184,0.0079,0.0108,-0.0011,-2.3664,1.4171,-3.1352
2024-10-11T12:48:59.914Z,-0.0150,-0.9977,0.1586,0.1429,0.0678,-0.1184,0.0028,0.0143,-0.0065,-2.3664,1.4171,-3.1352
2024-10-11T12:48:59.924Z,-0.0132,-0.9897,0.1585,0.1429,0.0678,-0.1184,-0.0007,0.0191,-0.0068,-2.3664,1.4171,-3.1352
2024-10-11T12:48:59.935Z,-0.0088,-0.9823,0.1637,0.0984,-0.0284,-0.1005,-0.0009,0.0194,-0.0070,-2.3654,1.4169,-3.1361
2024-10-11T12:48:59.943Z,-0.0064,-0.9766,0.1677,0.0984,-0.0284,-0.1005,-0.0018,0.0200,-0.0079,-2.3654,1.4169,-3.1361
2024-10-11T12:48:59.954Z,-0.0093,-0.9807,0.1618,0.0984,-0.0284,-0.1005,-0.0020,0.0258,-0.0087,-2.3654,1.4169,-3.1361
2024-10-11T12:48:59.963Z,-0.0132,-0.9865,0.1612,0.1049,-0.0467,-0.1244,-0.0059,0.0270,-0.0073,-2.3642,1.4169,-3.1369
2024-10-11T12:48:59.974Z,-0.0127,-0.9962,0.1578,0.1049,-0.0467,-0.1244,-0.0032,0.0267,-0.0100,-2.3642,1.4169,-3.1369
2024-10-11T12:48:59.985Z,-0.0101,-1.0002,0.1525,0.1049,-0.0467,-0.1244,-0.0063,0.0291,-0.0098,-2.3642,1.4169,-3.1369
2024-10-11T12:48:59.994Z,-0.0017,-0.9976,0.1560,0.0446,0.0968,-0.0617,-0.0116,0.0352,-0.0082,-2.3629,1.4171,-3.1376
2024-10-11T12:49:00.004Z,0.0013,-0.9944,0.1444,0.0446,0.0968,-0.0617,-0.0101,0.0343,-0.0074,-2.3629,1.4171,-3.1376
2024-10-11T12:49:00.014Z,0.0065,-0.9853,0.1522,0.0446,0.0968,-0.0617,-0.0111,0.0409,-0.0070,-2.3629,1.4171,-3.1376
2024-10-11T12:49:00.024Z,0.0047,-0.9838,0.1637,-0.0627,-0.0535,-0.0447,-0.0160,0.0491,-0.0045,-2.3618,1.4174,-3.1377
2024-10-11T12:49:00.035Z,0.0025,-0.9832,0.1547,-0.0627,-0.0535,-0.0447,-0.0155,0.0493,-0.0018,-2.3618,1.4174,-3.1377
2024-10-11T12:49:00.044Z,0.0006,-0.9866,0.1574,-0.0627,-0.0535,-0.0447,-0.0146,0.0483,-0.0040,-2.3618,1.4174,-3.1377
2024-10-11T12:49:00.054Z,0.0018,-0.9834,0.1674,-0.0237,-0.0221,-0.0817,-0.0175,0.0531,-0.0029,-2.3615,1.4178,-3.1368
2024-10-11T12:49:00.064Z,0.0017,-0.9853,0.1679,-0.0237,-0.0221,-0.0817,-0.0184,0.0540,-0.0028,-2.3615,1.4178,-3.1368
2024-10-11T12:49:00.073Z,-0.0021,-0.9918,0.1630,-0.0237,-0.0221,-0.0817,-0.0186,0.0495,-0.0061,-2.3615,1.4178,-3.1368
2024-10-11T12:49:00.085Z,0.0002,-0.9985,0.1611,0.0005,0.0735,-0.0729,-0.0155,0.0498,-0.0068,-2.3611,1.4183,-3.1359
2024-10-11T12:49:00.094Z,0.0027,-1.0010,0.1617,0.0005,0.0735,-0.0729,-0.0160,0.0482,-0.0070,-2.3611,1.4183,-3.1359
2024-10-11T12:49:00.103Z,0.0103,-0.9967,0.1636,0.0005,0.0735,-0.0729,-0.0174,0.0452,-0.0038,-2.3611,1.4183,-3.1359
2024-10-11T12:49:00.114Z,0.0123,-0.9940,0.1624,-0.1289,0.0621,-0.1038,-0.0167,0.0430,-0.0045,-2.3600,1.4188,-3.1358
2024-10-11T12:49:00.124Z,0.0152,-0.9955,0.1561,-0.1289,0.0621,-0.1038,-0.0173,0.0470,-0.0027,-2.3600,1.4188,-3.1358
2024-10-11T12:49:00.134Z,0.0175,-0.9971,0.1614,-0.1289,0.0621,-0.1038,-0.0198,0.0464,-0.0008,-2.3600,1.4188,-3.1358
2024-10-11T12:49:00.144Z,0.0177,-0.9931,0.1621,-0.1791,0.0672,-0.1281,-0.0158,0.0404,0.0012,-2.3597,1.4192,-3.1351
2024-10-11T12:49:00.153Z,0.0153,-0.9904,0.1577,-0.1791,0.0672,-0.1281,-0.0162,0.0440,0.0029,-2.3597,1.4192,-3.1351
2024-10-11T12:49:00.164Z,0.0077,-0.9902,0.1488,-0.1791,0.0672,-0.1281,-0.0149,0.0391,0.0009,-2.3597,1.4192,-3.1351
2024-10-11T12:49:00.173Z,0.0021,-0.9875,0.1577,-0.0833,0.0066,-0.0183,-0.0104,0.0347,0.0011,-2.3601,1.4196,-3.1336
2024-10-11T12:49:00.184Z,-0.0081,-0.9839,0.1627,-0.0833,0.0066,-0.0183,-0.0128,0.0331,-0.0007,-2.3601,1.4196,-3.1336
2024-10-11T12:49:00.194Z,-0.0040,-0.9841,0.1622,-0.0833,0.0066,-0.0183,-0.0122,0.0310,-0.0028,-2.3601,1.4196,-3.1336
2024-10-11T12:49:00.204Z,-0.0035,-0.9882,0.1571,0.0269,-0.0211,-0.0926,-0.0092,0.0232,-0.0047,-2.3595,1.4199,-3.1335
2024-10-11T12:49:00.214Z,-0.0003,-0.9934,0.1515,0.0269,-0.0211,-0.0926,-0.0093,0.0243,-0.0069,-2.3595,1.4199,-3.1335
2024-10-11T12:49:00.224Z,-0.0045,-0.9950,0.1513,0.0269,-0.0211,-0.0926,-0.0060,0.0199,-0.0044,-2.3595,1.4199,-3.1335
2024-10-11T12:49:00.236Z,-0.0059,-0.9948,0.1496,0.0512,0.0635,-0.0151,-0.0066,0.0173,-0.0063,-2.3583,1.4201,-3.1343
2024-10-11T12:49:00.243Z,-0.0054,-0.9957,0.1536,0.0512,0.0635,-0.0151,-0.0065,0.0174,-0.0051,-2.3583,1.4201,-3.1343
2024-10-11T12:49:00.254Z,-0.0040,-0.9974,0.1520,0.0512,0.0635,-0.0151,-0.0065,0.0197,-0.0061,-2.3583,1.4201,-3.1343
2024-10-11T12:49:00.264Z,-0.0014,-0.9911,0.1610,0.0049,0.0619,-0.0894,-0.0063,0.0185,-0.0046,-2.3572,1.4202,-3.1351
2024-10-11T12:49:00.274Z,-0.0077,-0.9848,0.1601,0.0049,0.0619,-0.0894,-0.0061,0.0195,-0.0077,-2.3572,1.4202,-3.1351
2024-10-11T12:49:00.285Z,-0.0105,-0.9826,0.1553,0.0049,0.0619,-0.0894,-0.0057,0.0217,-0.0083,-2.3572,1.4202,-3.1351
2024-10-11T12:49:00.294Z,-0.0148,-0.9805,0.1568,0.1190,-0.0732,-0.0639,-0.0115,0.0255,-0.0115,-2.3558,1.4204,-3.1361
2024-10-11T12:49:00.303Z,-0.0099,-0.9725,0.1663,0.1190,-0.0732,-0.0639,-0.0135,0.0267,-0.0121,-2.3558,1.4204,-3.1361
2024-10-11T12:49:00.314Z,-0.0036,-0.9749,0.1655,0.1190,-0.0732,-0.0639,-0.0137,0.0284,-0.0150,-2.3558,1.4204,-3.1361
2024-10-11T12:49:00.324Z,-0.0014,-0.9806,0.1662,0.0169,-0.1060,-0.1653,-0.0190,0.0319,-0.0132,-2.3537,1.4207,-3.1375
2024-10-11T12:49:00.334Z,-0.0036,-0.9844,0.1661,0.0169,-0.1060,-0.1653,-0.0228,0.0326,-0.0129,-2.3537,1.4207,-3.1375
2024-10-11T12:49:00.344Z,-0.0005,-0.9881,0.1701,0.0169,-0.1060,-0.1653,-0.0277,0.0310,-0.0166,-2.3537,1.4207,-3.1375
2024-10-11T12:49:00.353Z,-0.0035,-0.9878,0.1761,0.0107,0.0003,-0.2250,-0.0264,0.0296,-0.0157,-2.3513,1.4213,-3.1393
2024-10-11T12:49:00.364Z,-0.0080,-0.9901,0.1648,0.0107,0.0003,-0.2250,-0.0333,0.0269,-0.0146,-2.3513,1.4213,-3.1393
2024-10-11T12:49:00.374Z,-0.0052,-1.0000,0.1619,0.0107,0.0003,-0.2250,-0.0326,0.0250,-0.0165,-2.3513,1.4213,-3.1393
2024-10-11T12:49:00.384Z,-0.0034,-1.0114,0.1514,0.0414,0.1752,-0.0496,-0.0337,0.0274,-0.0177,-2.3488,1.4222,-3.1411
2024-10-11T12:49:00.394Z,0.0019,-1.0195,0.1456,0.0414,0.1752,-0.0496,-0.0317,0.0286,-0.0142,-2.3488,1.4222,-3.1411
2024-10-11T12:49:00.403Z,0.0071,-1.0222,0.1426,0.0414,0.1752,-0.0496,-0.0335,0.0296,-0.0127,-2.3488,1.4222,-3.1411
2024-10-11T12:49:00.414Z,0.0112,-1.0165,0.1384,-0.0902,0.3024,0.0828,-0.0320,0.0331,-0.0130,-2.3461,1.4231,3.1400
2024-10-11T12:49:00.424Z,0.0167,-1.0047,0.1447,-0.0902,0.3024,0.0828,-0.0347,0.0350,-0.0106,-2.3461,1.4231,3.1400
2024-10-11T12:49:00.434Z,0.0138,-0.9955,0.1514,-0.0902,0.3024,0.0828,-0.0337,0.0350,-0.0089,-2.3461,1.4231,3.1400
2024-10-11T12:49:00.444Z,0.0091,-0.9959,0.1496,-0.0933,0.0685,-0.0445,-0.0332,0.0325,-0.0075,-2.3443,1.4240,3.1389
2024-10-11T12:49:00.454Z,0.0129,-0.9912,0.1511,-0.0933,0.0685,-0.0445,-0.0357,0.0344,-0.0056,-2.3443,1.4240,3.1389
2024-10-11T12:49:00.464Z,0.0155,-0.9843,0.1543,-0.0933,0.0685,-0.0445,-0.0360,0.0305,-0.0050,-2.3443,1.4240,3.1389
2024-10-11T12:49:00.474Z,0.0167,-0.9762,0.1535,-0.1523,-0.0928,-0.1104,-0.0382,0.0298,-0.0034,-2.3435,1.4250,3.1388
2024-10-11T12:49:00.484Z,0.0116,-0.9727,0.1561,-0.1523,-0.0928,-0.1104,-0.0407,0.0323,-0.0035,-2.3435,1.4250,3.1388
2024-10-11T12:49:00.494Z,0.0140,-0.9709,0.1483,-0.1523,-0.0928,-0.1104,-0.0361,0.0325,-0.0002,-2.3435,1.4250,3.1388
2024-10-11T12:49:00.504Z,0.0128,-0.9737,0.1459,-0.1351,-0.1839,-0.0546,-0.0407,0.0291,-0.0038,-2.3430,1.4262,3.1390
2024-10-11T12:49:00.515Z,0.0105,-0.9739,0.1473,-0.1351,-0.1839,-0.0546,-0.0401,0.0261,-0.0004,-2.3430,1.4262,3.1390
2024-10-11T12:49:00.524Z,0.0088,-0.9704,0.1417,-0.1351,-0.1839,-0.0546,-0.0385,0.0258,-0.0006,-2.3430,1.4262,3.1390
2024-10-11T12:49:00.534Z,0.0020,-0.9656,0.1349,-0.0493,-0.2102,0.0340,-0.0394,0.0291,-0.0013,-2.3428,1.4273,3.1394
2024-10-11T12:49:00.544Z,0.0043,-0.9671,0.1312,-0.0493,-0.2102,0.0340,-0.0339,0.0260,-0.0025,-2.3428,1.4273,3.1394
2024-10-11T12:49:00.554Z,0.0058,-0.9701,0.1344,-0.0493,-0.2102,0.0340,-0.0336,0.0296,0.0015,-2.3428,1.4273,3.1394
2024-10-11T12:49:00.564Z,0.0068,-0.9798,0.1258,-0.0458,-0.1390,0.0984,-0.0285,0.0304,0.0023,-2.3421,1.4282,3.1392
2024-10-11T12:49:00.573Z,0.0140,-0.9857,0.1148,-0.0458,-0.1390,0.0984,-0.0239,0.0279,0.0007,-2.3421,1.4282,3.1392
2024-10-11T12:49:00.584Z,0.0129,-0.9817,0.1134,-0.0458,-0.1390,0.0984,-0.0176,0.0289,0.0033,-2.3421,1.4282,3.1392
2024-10-11T12:49:00.594Z,0.0066,-0.9772,0.1115,-0.0790,-0.1098,0.2769,-0.0175,0.0294,0.0037,-2.3424,1.4288,3.1402
2024-10-11T12:49:00.604Z,0.0050,-0.9783,0.1132,-0.0790,-0.1098,0.2769,-0.0083,0.0271,0.0063,-2.3424,1.4288,3.1402
2024-10-11T12:49:00.614Z,0.0031,-0.9772,0.1121,-0.0790,-0.1098,0.2769,-0.0058,0.0316,0.0042,-2.3424,1.4288,3.1402
2024-10-11T12:49:00.624Z,0.0050,-0.9727,0.1124,-0.0275,-0.1501,0.2893,-0.0054,0.0272,0.0074,-2.3433,1.4291,-3.1415
2024-10-11T12:49:00.634Z,0.0035,-0.9702,0.1186,-0.0275,-0.1501,0.2893,-0.0036,0.0239,0.0078,-2.3433,1.4291,-3.1415
2024-10-11T12:49:00.644Z,0.0030,-0.9718,0.1241,-0.0275,-0.1501,0.2893,-0.0018,0.0203,0.0090,-2.3433,1.4291,-3.1415
2024-10-11T12:49:00.654Z,0.0031,-0.9721,0.1279,-0.0364,-0.1882,0.1472,-0.0036,0.0175,0.0066,-2.3444,1.4292,-3.1399
2024-10-11T12:49:00.664Z,0.0005,-0.9763,0.1309,-0.0364,-0.1882,0.1472,-0.0039,0.0137,0.0098,-2.3444,1.4292,-3.1399
2024-10-11T12:49:00.674Z,0.0021,-0.9806,0.1376,-0.0364,-0.1882,0.1472,-0.0052,0.0091,0.0076,-2.3444,1.4292,-3.1399
2024-10-11T12:49:00.684Z,-0.0021,-0.9827,0.1432,0.0004,-0.0750,0.0065,-0.0066,0.0083,0.0030,-2.3456,1.4294,-3.1386
2024-10-11T12:49:00.694Z,0.0004,-0.9830,0.1351,0.0004,-0.0750,0.0065,-0.0066,0.0063,0.0040,-2.3456,1.4294,-3.1386
2024-10-11T12:49:00.704Z,-0.0031,-0.9836,0.1372,0.0004,-0.0750,0.0065,-0.0047,0.0014,0.0031,-2.3456,1.4294,-3.1386
2024-10-11T12:49:00.714Z,-0.0062,-0.9849,0.1444,0.0456,-0.0532,0.0096,-0.0028,-0.0025,0.0019,-2.3467,1.4297,-3.1377
2024-10-11T12:49:00.724Z,-0.0120,-0.9883,0.1468,0.0456,-0.0532,0.0096,-0.0016,-0.0095,-0.0010,-2.3467,1.4297,-3.1377
2024-10-11T12:49:00.735Z,-0.0110,-0.9951,0.1523,0.0456,-0.0532,0.0096,-0.0047,-0.0153,-0.0019,-2.3467,1.4297,-3.1377
2024-10-11T12:49:00.744Z,-0.0066,-0.9992,0.1507,0.0645,0.0707,-0.1213,-0.0022,-0.0180,-0.0018,-2.3468,1.4298,-3.1381
2024-10-11T12:49:00.753Z,-0.0025,-1.0045,0.1500,0.0645,0.0707,-0.1213,-0.0039,-0.0213,-0.0001,-2.3468,1.4298,-3.1381
2024-10-11T12:49:00.763Z,0.0046,-1.0101,0.1564,0.0645,0.0707,-0.1213,-0.0063,-0.0237,0.0017,-2.3468,1.4298,-3.1381
2024-10-11T12:49:00.773Z,-0.0013,-1.0127,0.1475,-0.0252,0.2102,-0.1255,-0.0060,-0.0249,-0.0012,-2.3468,1.4299,-3.1390
2024-10-11T12:49:00.784Z,-0.0023,-1.0154,0.1420,-0.0252,0.2102,-0.1255,-0.0084,-0.0273,0.0001,-2.3468,1.4299,-3.1390
2024-10-11T12:49:00.794Z,-0.0044,-1.0140,0.1360,-0.0252,0.2102,-0.1255,-0.0097,-0.0252,0.0016,-2.3468,1.4299,-3.1390
2024-10-11T12:49:00.804Z,-0.0145,-1.0120,0.1321,0.0917,0.2297,0.0501,-0.0088,-0.0303,0.0012,-2.3471,1.4301,-3.1397
2024-10-11T12:49:00.814Z,-0.0124,-1.0087,0.1346,0.0917,0.2297,0.0501,-0.0072,-0.0307,0.0023,-2.3471,1.4301,-3.1397
2024-10-11T12:49:00.824Z,-0.0045,-1.0043,0.1349,0.0917,0.2297,0.0501,-0.0082,-0.0245,0.0002,-2.3471,1.4301,-3.1397
2024-10-11T12:49:00.835Z,-0.0031,-0.9993,0.1412,0.0428,0.1181,-0.0036,-0.0099,-0.0233,0.0049,-2.3479,1.4304,-3.1400
2024-10-11T12:49:00.844Z,0.0038,-0.9941,0.1508,0.0428,0.1181,-0.0036,-0.0109,-0.0219,0.0053,-2.3479,1.4304,-3.1400
2024-10-11T12:49:00.854Z,0.0005,-0.9938,0.1505,0.0428,0.1181,-0.0036,-0.0148,-0.0164,0.0051,-2.3479,1.4304,-3.1400
2024-10-11T12:49:00.864Z,-0.0043,-0.9945,0.1505,0.0161,0.0405,-0.1170,-0.0166,-0.0116,0.0067,-2.3492,1.4307,-3.1396
2024-10-11T12:49:00.874Z,-0.0044,-0.9959,0.1449,0.0161,0.0405,-0.1170,-0.0165,-0.0106,0.0044,-2.3492,1.4307,-3.1396
2024-10-11T12:49:00.887Z,-0.0050,-0.9940,0.1468,0.0594,0.0262,-0.0925,-0.0188,-0.0096,0.0028,-2.3504,1.4313,-3.1388
2024-10-11T12:49:00.893Z,-0.0060,-0.9927,0.1451,0.0594,0.0262,-0.0925,-0.0217,-0.0057,0.0005,-2.3504,1.4313,-3.1388
2024-10-11T12:49:00.904Z,-0.0057,-0.9928,0.1391,0.0594,0.0262,-0.0925,-0.0236,-0.0044,0.0021,-2.3504,1.4313,-3.1388
2024-10-11T12:49:00.914Z,-0.0084,-0.9899,0.1309,0.0594,0.0262,-0.0925,-0.0207,-0.0057,0.0013,-2.3504,1.4313,-3.1388
2024-10-11T12:49:00.924Z,-0.0025,-0.9812,0.1302,0.0515,-0.0567,0.0856,-0.0212,-0.0048,-0.0003,-2.3508,1.4319,-3.1389
2024-10-11T12:49:00.935Z,-0.0037,-0.9711,0.1342,0.0515,-0.0567,0.0856,-0.0226,-0.0014,0.0006,-2.3508,1.4319,-3.1389
2024-10-11T12:49:00.944Z,0.0045,-0.9613,0.1382,0.0515,-0.0567,0.0856,-0.0221,-0.0007,0.0020,-2.3508,1.4319,-3.1389
2024-10-11T12:49:00.954Z,0.0029,-0.9525,0.1412,-0.0519,-0.3388,0.0238,-0.0249,0.0044,0.0049,-2.3515,1.4325,-3.1384
2024-10-11T12:49:00.964Z,0.0011,-0.9539,0.1390,-0.0519,-0.3388,0.0238,-0.0244,0.0111,0.0016,-2.3515,1.4325,-3.1384
2024-10-11T12:49:00.973Z,0.0032,-0.9651,0.1289,-0.0519,-0.3388,0.0238,-0.0213,0.0180,0.0049,-2.3515,1.4325,-3.1384
2024-10-11T12:49:00.985Z,0.0011,-0.9794,0.1102,-0.0269,-0.1695,0.1953,-0.0215,0.0246,0.0033,-2.3528,1.4332,-3.1371
2024-10-11T12:49:00.994Z,0.0009,-0.9877,0.1033,-0.0269,-0.1695,0.1953,-0.0181,0.0293,0.0019,-2.3528,1.4332,-3.1371
2024-10-11T12:49:01.004Z,-0.0036,-0.9914,0.1030,-0.0269,-0.1695,0.1953,-0.0172,0.0308,0.0005,-2.3528,1.4332,-3.1371
2024-10-11T12:49:01.014Z,-0.0029,-0.9906,0.1051,0.0302,0.0006,0.3275,-0.0126,0.0282,0.0009,-2.3535,1.4337,-3.1357
2024-10-11T12:49:01.024Z,-0.0027,-0.9920,0.1026,0.0302,0.0006,0.3275,-0.0095,0.0276,-0.0009,-2.3535,1.4337,-3.1357
2024-10-11T12:49:01.037Z,0.0021,-0.9924,0.1080,-0.0182,-0.0080,0.2893,-0.0100,0.0293,0.0025,-2.3535,1.4340,-3.1352
2024-10-11T12:49:01.043Z,-0.0009,-0.9862,0.1130,-0.0182,-0.0080,0.2893,-0.0087,0.0296,-0.0025,-2.3535,1.4340,-3.1352
2024-10-11T12:49:01.054Z,-0.0004,-0.9766,0.1254,-0.0182,-0.0080,0.2893,-0.0089,0.0256,-0.0017,-2.3535,1.4340,-3.1352
2024-10-11T12:49:01.064Z,0.0012,-0.9728,0.1342,-0.0182,-0.0080,0.2893,-0.0068,0.0266,-0.0041,-2.3535,1.4340,-3.1352
2024-10-11T12:49:01.074Z,-0.0046,-0.9799,0.1276,0.0258,-0.1540,0.0323,-0.0080,0.0237,-0.0068,-2.3527,1.4342,-3.1354
2024-10-11T12:49:01.084Z,-0.0035,-0.9919,0.1272,0.0258,-0.1540,0.0323,-0.0037,0.0197,-0.0073,-2.3527,1.4342,-3.1354
2024-10-11T12:49:01.095Z,-0.0025,-1.0030,0.1213,0.0034,0.1644,0.1335,0.0025,0.0162,-0.0079,-2.3515,1.4344,-3.1362
2024-10-11T12:49:01.104Z,0.0001,-1.0114,0.1229,0.0034,0.1644,0.1335,0.0039,0.0173,-0.0071,-2.3515,1.4344,-3.1362
2024-10-11T12:49:01.114Z,0.0031,-1.0079,0.1277,0.0034,0.1644,0.1335,0.0066,0.0151,-0.0057,-2.3515,1.4344,-3.1362
2024-10-11T12:49:01.125Z,0.0032,-1.0032,0.1340,-0.0164,0.1032,0.0071,0.0112,0.0169,-0.0076,-2.3499,1.4343,-3.1375
2024-10-11T12:49:01.134Z,0.0009,-0.9995,0.1360,-0.0164,0.1032,0.0071,0.0098,0.0195,-0.0092,-2.3499,1.4343,-3.1375
2024-10-11T12:49:01.144Z,0.0018,-0.9992,0.1448,-0.0164,0.1032,0.0071,0.0094,0.0210,-0.0081,-2.3499,1.4343,-3.1375
2024-10-11T12:49:01.154Z,0.0042,-0.9985,0.1496,-0.0164,0.1032,0.0071,0.0066,0.0247,-0.0099,-2.3499,1.4343,-3.1375
2024-10-11T12:49:01.164Z,0.0049,-1.0000,0.1479,-0.0500,0.0935,-0.1555,0.0051,0.0238,-0.0100,-2.3481,1.4341,-3.1389
2024-10-11T12:49:01.173Z,0.0045,-1.0000,0.1538,-0.0500,0.0935,-0.1555,0.0062,0.0186,-0.0101,-2.3481,1.4341,-3.1389
2024-10-11T12:49:01.185Z,0.0015,-0.9957,0.1439,-0.0093,0.0452,-0.0667,0.0079,0.0124,-0.0101,-2.3461,1.4339,-3.1406
2024-10-11T12:49:01.194Z,-0.0014,-0.9960,0.1385,-0.0093,0.0452,-0.0667,0.0059,0.0128,-0.0127,-2.3461,1.4339,-3.1406
2024-10-11T12:49:01.204Z,-0.0004,-0.9957,0.1289,-0.0093,0.0452,-0.0667,0.0042,0.0117,-0.0129,-2.3461,1.4339,-3.1406
2024-10-11T12:49:01.215Z,0.0032,-0.9946,0.1298,-0.0286,0.0366,0.0966,0.0049,0.0122,-0.0107,-2.3436,1.4338,3.1401
2024-10-11T12:49:01.223Z,0.0049,-0.9960,0.1305,-0.0286,0.0366,0.0966,0.0052,0.0094,-0.0105,-2.3436,1.4338,3.1401
2024-10-11T12:49:01.234Z,0.0084,-0.9924,0.1377,-0.0286,0.0366,0.0966,0.0043,0.0103,-0.0111,-2.3436,1.4338,3.1401
2024-10-11T12:49:01.245Z,0.0065,-0.9894,0.1419,-0.0667,-0.0214,-0.0561,0.0024,0.0118,-0.0090,-2.3414,1.4336,3.1381
2024-10-11T12:49:01.253Z,0.0101,-0.9884,0.1440,-0.0667,-0.0214,-0.0561,-0.0019,0.0128,-0.0097,-2.3414,1.4336,3.1381
2024-10-11T12:49:01.264Z,0.0074,-0.9863,0.1455,-0.0667,-0.0214,-0.0561,-0.0020,0.0111,-0.0066,-2.3414,1.4336,3.1381
2024-10-11T12:49:01.275Z,0.0013,-0.9858,0.1449,-0.0011,-0.0555,-0.0616,-0.0048,0.0165,-0.0052,-2.3401,1.4336,3.1369
2024-10-11T12:49:01.284Z,0.0022,-0.9841,0.1441,-0.0011,-0.0555,-0.0616,-0.0010,0.0180,-0.0039,-2.3401,1.4336,3.1369
2024-10-11T12:49:01.294Z,0.0071,-0.9837,0.1306,-0.0011,-0.0555,-0.0616,-0.0016,0.0194,-0.0019,-2.3401,1.4336,3.1369
2024-10-11T12:49:01.305Z,0.0096,-0.9777,0.1398,-0.0640,-0.1605,-0.0082,-0.0054,0.0245,-0.0005,-2.3397,1.4336,3.1370
2024-10-11T12:49:01.314Z,0.0066,-0.9720,0.1367,-0.0640,-0.1605,-0.0082,-0.0024,0.0228,0.0025,-2.3397,1.4336,3.1370
2024-10-11T12:49:01.324Z,0.0073,-0.9764,0.1362,-0.0640,-0.1605,-0.0082,-0.0023,0.0245,0.0023,-2.3397,1.4336,3.1370
2024-10-11T12:49:01.334Z,0.0055,-0.9768,0.1361,-0.0534,-0.1035,-0.0106,-0.0027,0.0219,0.0033,-2.3402,1.4337,3.1379
2024-10-11T12:49:01.344Z,0.0037,-0.9841,0.1343,-0.0534,-0.1035,-0.0106,-0.0048,0.0273,0.0061,-2.3402,1.4337,3.1379
2024-10-11T12:49:01.353Z,0.0038,-0.9877,0.1362,-0.0534,-0.1035,-0.0106,-0.0054,0.0281,0.0051,-2.3402,1.4337,3.1379
2024-10-11T12:49:01.364Z,0.0031,-0.9897,0.1291,-0.0096,-0.0025,0.0917,-0.0040,0.0279,0.0042,-2.3413,1.4336,3.1396
2024-10-11T12:49:01.374Z,-0.0002,-0.9894,0.1244,-0.0096,-0.0025,0.0917,-0.0003,0.0294,0.0031,-2.3413,1.4336,3.1396
2024-10-11T12:49:01.384Z,0.0012,-0.9875,0.1254,-0.0096,-0.0025,0.0917,-0.0005,0.0253,0.0028,-2.3413,1.4336,3.1396
2024-10-11T12:49:01.394Z,0.0000,-0.9894,0.1193,-0.0028,-0.0260,0.2010,0.0041,0.0211,0.0030,-2.3419,1.4335,3.1406
2024-10-11T12:49:01.403Z,0.0035,-0.9862,0.1144,-0.0028,-0.0260,0.2010,0.0107,0.0194,0.0028,-2.3419,1.4335,3.1406
2024-10-11T12:49:01.414Z,0.0042,-0.9870,0.1125,-0.0028,-0.0260,0.2010,0.0127,0.0224,0.0046,-2.3419,1.4335,3.1406
2024-10-11T12:49:01.425Z,0.0113,-0.9822,0.1185,-0.1190,-0.1255,0.1194,0.0162,0.0194,0.0038,-2.3426,1.4331,-3.1415
2024-10-11T12:49:01.434Z,0.0106,-0.9746,0.1277,-0.1190,-0.1255,0.1194,0.0179,0.0175,0.0033,-2.3426,1.4331,-3.1415
2024-10-11T12:49:01.444Z,0.0055,-0.9728,0.1231,-0.1190,-0.1255,0.1194,0.0189,0.0162,0.0047,-2.3426,1.4331,-3.1415
2024-10-11T12:49:01.453Z,0.0017,-0.9722,0.1228,-0.1190,-0.1255,0.1194,0.0216,0.0130,0.0020,-2.3426,1.4331,-3.1415
2024-10-11T12:49:01.464Z,0.0025,-0.9697,0.1335,-0.0215,-0.1964,0.1033,0.0194,0.0099,0.0012,-2.3436,1.4325,-3.1403
2024-10-11T12:49:01.474Z,-0.0079,-0.9710,0.1319,-0.0215,-0.1964,0.1033,0.0215,0.0062,0.0034,-2.3436,1.4325,-3.1403
2024-10-11T12:49:01.483Z,-0.0057,-0.9774,0.1300,-0.0215,-0.1964,0.1033,0.0229,0.0028,0.0028,-2.3436,1.4325,-3.1403
2024-10-11T12:49:01.494Z,-0.0080,-0.9881,0.1208,0.0483,-0.0688,0.1334,0.0240,0.0041,0.0029,-2.3441,1.4319,-3.1399
2024-10-11T12:49:01.503Z,-0.0124,-1.0001,0.1183,0.0483,-0.0688,0.1334,0.0232,0.0093,0.0013,-2.3441,1.4319,-3.1399
2024-10-11T12:49:01.514Z,-0.0161,-1.0064,0.1201,0.1696,0.1827,0.1526,0.0259,0.0083,-0.0029,-2.3440,1.4312,-3.1401
2024-10-11T12:49:01.524Z,-0.0189,-1.0090,0.1273,0.1696,0.1827,0.1526,0.0299,0.0074,-0.0011,-2.3440,1.4312,-3.1401
2024-10-11T12:49:01.534Z,-0.0179,-1.0020,0.1429,0.1696,0.1827,0.1526,0.0282,0.0056,-0.0026,-2.3440,1.4312,-3.1401
2024-10-11T12:49:01.544Z,-0.0190,-0.9977,0.1517,0.1884,0.0512,-0.1864,0.0282,0.0059,-0.0046,-2.3435,1.4304,-3.1406
2024-10-11T12:49:01.553Z,-0.0200,-0.9931,0.1627,0.1884,0.0512,-0.1864,0.0254,0.0063,-0.0078,-2.3435,1.4304,-3.1406
2024-10-11T12:49:01.564Z,-0.0115,-0.9919,0.1620,0.1884,0.0512,-0.1864,0.0252,0.0053,-0.0050,-2.3435,1.4304,-3.1406
2024-10-11T12:49:01.574Z,-0.0041,-0.9910,0.1639,0.0233,-0.0039,-0.2613,0.0189,0.0080,-0.0078,-2.3425,1.4298,3.1415
2024-10-11T12:49:01.584Z,0.0011,-0.9912,0.1694,0.0233,-0.0039,-0.2613,0.0140,0.0041,-0.0051,-2.3425,1.4298,3.1415
2024-10-11T12:49:01.594Z,0.0032,-0.9964,0.1628,0.0233,-0.0039,-0.2613,0.0096,0.0056,-0.0054,-2.3425,1.4298,3.1415
2024-10-11T12:49:01.604Z,-0.0014,-1.0038,0.1533,0.0204,0.1946,-0.0745,0.0039,0.0005,-0.0066,-2.3422,1.4296,3.1410
2024-10-11T12:49:01.613Z,-0.0025,-1.0143,0.1467,0.0204,0.1946,-0.0745,0.0031,-0.0055,-0.0059,-2.3422,1.4296,3.1410
2024-10-11T12:49:01.624Z,-0.0016,-1.0195,0.1482,0.0204,0.1946,-0.0745,0.0020,-0.0029,-0.0082,-2.3422,1.4296,3.1410
2024-10-11T12:49:01.634Z,0.0029,-1.0170,0.1527,-0.0043,0.2310,-0.1377,-0.0002,-0.0027,-0.0075,-2.3416,1.4295,3.1401
2024-10-11T12:49:01.644Z,-0.0020,-1.0091,0.1579,-0.0043,0.2310,-0.1377,-0.0019,-0.0047,-0.0061,-2.3416,1.4295,3.1401
2024-10-11T12:49:01.653Z,0.0026,-0.9998,0.1658,-0.0043,0.2310,-0.1377,-0.0039,-0.0040,-0.0087,-2.3416,1.4295,3.1401
2024-10-11T12:49:01.664Z,0.0070,-0.9948,0.1679,-0.0603,0.0509,-0.2546,-0.0087,-0.0009,-0.0089,-2.3404,1.4296,3.1386
2024-10-11T12:49:01.674Z,0.0069,-0.9942,0.1677,-0.0603,0.0509,-0.2546,-0.0112,0.0007,-0.0056,-2.3404,1.4296,3.1386
2024-10-11T12:49:01.684Z,0.0069,-0.9915,0.1662,-0.0603,0.0509,-0.2546,-0.0132,-0.0024,-0.0019,-2.3404,1.4296,3.1386
2024-10-11T12:49:01.694Z,0.0023,-0.9876,0.1671,-0.0221,-0.0586,-0.2874,-0.0167,0.0002,-0.0029,-2.3398,1.4300,3.1377
2024-10-11T12:49:01.704Z,0.0014,-0.9841,0.1676,-0.0221,-0.0586,-0.2874,-0.0209,0.0008,-0.0047,-2.3398,1.4300,3.1377
2024-10-11T12:49:01.714Z,-0.0039,-0.9864,0.1646,-0.0221,-0.0586,-0.2874,-0.0240,-0.0003,-0.0034,-2.3398,1.4300,3.1377
2024-10-11T12:49:01.724Z,0.0031,-0.9877,0.1573,-0.0289,0.0013,-0.1685,-0.0270,0.0024,-0.0035,-2.3391,1.4307,3.1369
2024-10-11T12:49:01.734Z,0.0010,-0.9960,0.1525,-0.0289,0.0013,-0.1685,-0.0297,0.0056,-0.0036,-2.3391,1.4307,3.1369
2024-10-11T12:49:01.744Z,0.0030,-1.0037,0.1416,-0.0289,0.0013,-0.1685,-0.0288,0.0039,-0.0018,-2.3391,1.4307,3.1369
2024-10-11T12:49:01.754Z,0.0079,-1.0062,0.1447,-0.0867,0.1551,-0.0558,-0.0298,0.0069,-0.0036,-2.3385,1.4314,3.1362
2024-10-11T12:49:01.764Z,0.0121,-1.0053,0.1445,-0.0867,0.1551,-0.0558,-0.0311,0.0075,-0.0033,-2.3385,1.4314,3.1362
2024-10-11T12:49:01.774Z,0.0101,-1.0024,0.1402,-0.0867,0.1551,-0.0558,-0.0308,0.0132,-0.0017,-2.3385,1.4314,3.1362
2024-10-11T12:49:01.784Z,0.0152,-0.9977,0.1362,-0.1642,0.0727,0.0377,-0.0296,0.0155,-0.0005,-2.3384,1.4323,3.1363
2024-10-11T12:49:01.793Z,0.0171,-0.9951,0.1299,-0.1642,0.0727,0.0377,-0.0316,0.0142,0.0005,-2.3384,1.4323,3.1363
2024-10-11T12:49:01.804Z,0.0119,-0.9870,0.1287,-0.1642,0.0727,0.0377,-0.0317,0.0117,0.0019,-2.3384,1.4323,3.1363
2024-10-11T12:49:01.814Z,0.0088,-0.9818,0.1253,-0.0958,-0.1135,0.1250,-0.0250,0.0097,0.0029,-2.3387,1.4330,3.1366
2024-10-11T12:49:01.824Z,0.0114,-0.9779,0.1254,-0.0958,-0.1135,0.1250,-0.0228,0.0030,-0.0001,-2.3387,1.4330,3.1366
2024-10-11T12:49:01.835Z,0.0172,-0.9794,0.1215,-0.0958,-0.1135,0.1250,-0.0240,-0.0000,0.0044,-2.3387,1.4330,3.1366
2024-10-11T12:49:01.844Z,0.0203,-0.9843,0.1192,-0.1940,-0.0305,0.1788,-0.0227,-0.0066,0.0086,-2.3395,1.4337,3.1372
2024-10-11T12:49:01.854Z,0.0196,-0.9905,0.1135,-0.1940,-0.0305,0.1788,-0.0210,-0.0082,0.0093,-2.3395,1.4337,3.1372
2024-10-11T12:49:01.864Z,0.0137,-0.9988,0.1057,-0.1940,-0.0305,0.1788,-0.0158,-0.0081,0.0116,-2.3395,1.4337,3.1372
2024-10-11T12:49:01.874Z,0.0013,-1.0012,0.1035,-0.0207,0.0907,0.2755,-0.0132,-0.0070,0.0126,-2.3416,1.4342,3.1387
2024-10-11T12:49:01.884Z,0.0018,-0.9988,0.1095,-0.0207,0.0907,0.2755,-0.0075,-0.0088,0.0135,-2.3416,1.4342,3.1387
2024-10-11T12:49:01.894Z,-0.0051,-0.9886,0.1072,-0.0207,0.0907,0.2755,-0.0079,-0.0103,0.0132,-2.3416,1.4342,3.1387
2024-10-11T12:49:01.904Z,-0.0075,-0.9851,0.1145,0.0756,-0.0630,0.1733,-0.0027,-0.0136,0.0145,-2.3442,1.4344,3.1407
2024-10-11T12:49:01.914Z,-0.0087,-0.9849,0.1233,0.0756,-0.0630,0.1733,-0.0012,-0.0080,0.0133,-2.3442,1.4344,3.1407
2024-10-11T12:49:01.924Z,-0.0047,-0.9869,0.1312,0.0756,-0.0630,0.1733,0.0012,-0.0111,0.0154,-2.3442,1.4344,3.1407
2024-10-11T12:49:01.934Z,-0.0070,-0.9905,0.1428,0.0810,0.0372,-0.0669,-0.0011,-0.0069,0.0150,-2.3464,1.4345,-3.1409
2024-10-11T12:49:01.944Z,-0.0065,-0.9986,0.1444,0.0810,0.0372,-0.0669,-0.0012,-0.0068,0.0146,-2.3464,1.4345,-3.1409
2024-10-11T12:49:01.954Z,-0.0000,-1.0000,0.1469,0.0810,0.0372,-0.0669,-0.0022,-0.0077,0.0171,-2.3464,1.4345,-3.1409
2024-10-11T12:49:01.964Z,-0.0019,-0.9986,0.1516,0.0271,0.0838,-0.1781,-0.0033,-0.0069,0.0172,-2.3499,1.4348,-3.1378
2024-10-11T12:49:01.974Z,-0.0060,-0.9985,0.1599,0.0271,0.0838,-0.1781,-0.0071,-0.0062,0.0184,-2.3499,1.4348,-3.1378
2024-10-11T12:49:01.984Z,-0.0078,-1.0003,0.1573,0.0271,0.0838,-0.1781,-0.0112,-0.0066,0.0154,-2.3499,1.4348,-3.1378
2024-10-11T12:49:01.994Z,-0.0110,-1.0010,0.1562,0.1690,0.0693,-0.2106,-0.0140,0.0002,0.0151,-2.3538,1.4352,-3.1342
2024-10-11T12:49:02.004Z,-0.0231,-0.9952,0.1586,0.1690,0.0693,-0.2106,-0.0163,0.0039,0.0135,-2.3538,1.4352,-3.1342
2024-10-11T12:49:02.013Z,-0.0155,-0.9919,0.1618,0.1690,0.0693,-0.2106,-0.0207,0.0081,0.0122,-2.3538,1.4352,-3.1342
2024-10-11T12:49:02.024Z,-0.0176,-0.9919,0.1586,0.1188,0.0377,-0.2610,-0.0204,0.0076,0.0139,-2.3568,1.4357,-3.1313
2024-10-11T12:49:02.034Z,-0.0054,-0.9970,0.1606,0.1188,0.0377,-0.2610,-0.0259,0.0077,0.0140,-2.3568,1.4357,-3.1313
2024-10-11T12:49:02.044Z,0.0002,-1.0001,0.1546,0.1188,0.0377,-0.2610,-0.0252,0.0090,0.0174,-2.3568,1.4357,-3.1313
2024-10-11T12:49:02.055Z,-0.0068,-1.0009,0.1520,0.0508,0.0908,-0.1476,-0.0215,0.0060,0.0188,-2.3609,1.4363,-3.1274
2024-10-11T12:49:02.064Z,-0.0088,-1.0002,0.1450,0.0508,0.0908,-0.1476,-0.0197,0.0087,0.0160,-2.3609,1.4363,-3.1274
2024-10-11T12:49:02.074Z,-0.0118,-1.0043,0.1436,0.0508,0.0908,-0.1476,-0.0206,0.0167,0.0186,-2.3609,1.4363,-3.1274
2024-10-11T12:49:02.084Z,-0.0042,-1.0052,0.1474,0.0304,0.1373,-0.1488,-0.0195,0.0239,0.0175,-2.3657,1.4369,-3.1223
2024-10-11T12:49:02.094Z,-0.0114,-1.0081,0.1461,0.0304,0.1373,-0.1488,-0.0220,0.0313,0.0188,-2.3657,1.4369,-3.1223
2024-10-11T12:49:02.103Z,-0.0110,-1.0131,0.1460,0.0304,0.1373,-0.1488,-0.0240,0.0375,0.0209,-2.3657,1.4369,-3.1223
2024-10-11T12:49:02.114Z,-0.0044,-1.0162,0.1419,0.0053,0.2599,-0.1137,-0.0230,0.0372,0.0180,-2.3704,1.4374,-3.1167
2024-10-11T12:49:02.124Z,-0.0041,-1.0159,0.1470,0.0053,0.2599,-0.1137,-0.0219,0.0379,0.0216,-2.3704,1.4374,-3.1167
2024-10-11T12:49:02.134Z,-0.0026,-1.0166,0.1496,0.0053,0.2599,-0.1137,-0.0303,0.0399,0.0216,-2.3704,1.4374,-3.1167
2024-10-11T12:49:02.144Z,-0.0046,-1.0155,0.1542,-0.0134,0.2220,-0.1924,-0.0320,0.0453,0.0201,-2.3755,1.4382,-3.1106
2024-10-11T12:49:02.153Z,-0.0004,-1.0128,0.1507,-0.0134,0.2220,-0.1924,-0.0362,0.0522,0.0215,-2.3755,1.4382,-3.1106
2024-10-11T12:49:02.164Z,-0.0053,-1.0046,0.1514,-0.0134,0.2220,-0.1924,-0.0365,0.0522,0.0228,-2.3755,1.4382,-3.1106
2024-10-11T12:49:02.173Z,-0.0035,-0.9918,0.1535,0.0229,-0.0643,-0.2352,-0.0407,0.0541,0.0211,-2.3809,1.4393,-3.1040
2024-10-11T12:49:02.183Z,-0.0130,-0.9788,0.1538,0.0229,-0.0643,-0.2352,-0.0401,0.0531,0.0183,-2.3809,1.4393,-3.1040
2024-10-11T12:49:02.194Z,-0.0149,-0.9737,0.1574,0.0229,-0.0643,-0.2352,-0.0404,0.0510,0.0206,-2.3809,1.4393,-3.1040
2024-10-11T12:49:02.204Z,-0.0131,-0.9674,0.1580,0.0571,-0.2746,-0.2860,-0.0384,0.0509,0.0176,-2.3858,1.4404,-3.0978
2024-10-11T12:49:02.214Z,-0.0099,-0.9589,0.1606,0.0571,-0.2746,-0.2860,-0.0400,0.0470,0.0186,-2.3858,1.4404,-3.0978
2024-10-11T12:49:02.223Z,-0.0091,-0.9528,0.1515,0.0571,-0.2746,-0.2860,-0.0357,0.0434,0.0196,-2.3858,1.4404,-3.0978
2024-10-11T12:49:02.234Z,-0.0092,-0.9514,0.1524,0.0283,-0.4030,-0.1743,-0.0357,0.0428,0.0222,-2.3911,1.4414,-3.0916
2024-10-11T12:49:02.244Z,-0.0085,-0.9494,0.1439,0.0283,-0.4030,-0.1743,-0.0332,0.0397,0.0245,-2.3911,1.4414,-3.0916
2024-10-11T12:49:02.255Z,-0.0140,-0.9516,0.1352,0.0283,-0.4030,-0.1743,-0.0285,0.0347,0.0273,-2.3911,1.4414,-3.0916
2024-10-11T12:49:02.264Z,-0.0052,-0.9603,0.1245,-0.0512,-0.2896,0.0664,-0.0220,0.0286,0.0324,-2.3981,1.4421,-3.0838
2024-10-11T12:49:02.274Z,-0.0046,-0.9621,0.1174,-0.0512,-0.2896,0.0664,-0.0133,0.0231,0.0371,-2.3981,1.4421,-3.0838
2024-10-11T12:49:02.284Z,-0.0101,-0.9618,0.1115,-0.0512,-0.2896,0.0664,-0.0047,0.0109,0.0453,-2.3981,1.4421,-3.0838
2024-10-11T12:49:02.294Z,-0.0190,-0.9543,0.1121,0.1700,-0.3919,0.1498,0.0062,0.0012,0.0491,-2.4081,1.4421,-3.0736
2024-10-11T12:49:02.304Z,-0.0313,-0.9552,0.1186,0.1700,-0.3919,0.1498,0.0103,-0.0012,0.0513,-2.4081,1.4421,-3.0736
2024-10-11T12:49:02.314Z,-0.0396,-0.9564,0.1277,0.1700,-0.3919,0.1498,0.0139,0.0012,0.0516,-2.4081,1.4421,-3.0736
2024-10-11T12:49:02.323Z,-0.0416,-0.9630,0.1351,0.3142,-0.2197,-0.1091,0.0178,0.0041,0.0480,-2.4189,1.4415,-3.0628
2024-10-11T12:49:02.334Z,-0.0455,-0.9726,0.1405,0.3142,-0.2197,-0.1091,0.0216,-0.0018,0.0433,-2.4189,1.4415,-3.0628
2024-10-11T12:49:02.344Z,-0.0501,-0.9800,0.1450,0.3142,-0.2197,-0.1091,0.0219,-0.0042,0.0367,-2.4189,1.4415,-3.0628
2024-10-11T12:49:02.354Z,-0.0515,-0.9868,0.1422,0.3576,-0.0318,-0.1923,0.0224,-0.0022,0.0327,-2.4273,1.4407,-3.0547
2024-10-11T12:49:02.364Z,-0.0415,-0.9898,0.1513,0.3576,-0.0318,-0.1923,0.0183,-0.0011,0.0302,-2.4273,1.4407,-3.0547
2024-10-11T12:49:02.374Z,-0.0370,-0.9866,0.1608,0.3576,-0.0318,-0.1923,0.0172,-0.0018,0.0264,-2.4273,1.4407,-3.0547
2024-10-11T12:49:02.384Z,-0.0339,-0.9773,0.1676,0.1884,-0.1623,-0.3863,0.0157,-0.0037,0.0236,-2.4335,1.4401,-3.0490
2024-10-11T12:49:02.394Z,-0.0282,-0.9712,0.1742,0.1884,-0.1623,-0.3863,0.0094,-0.0097,0.0192,-2.4335,1.4401,-3.0490
2024-10-11T12:49:02.404Z,-0.0252,-0.9630,0.1763,0.1884,-0.1623,-0.3863,0.0086,-0.0162,0.0162,-2.4335,1.4401,-3.0490
2024-10-11T12:49:02.414Z,-0.0242,-0.9568,0.1738,0.1509,-0.3568,-0.3946,0.0040,-0.0246,0.0091,-2.4378,1.4399,-3.0454
2024-10-11T12:49:02.423Z,-0.0293,-0.9554,0.1698,0.1509,-0.3568,-0.3946,-0.0069,-0.0256,0.0063,-2.4378,1.4399,-3.0454
2024-10-11T12:49:02.434Z,-0.0234,-0.9659,0.1657,0.1509,-0.3568,-0.3946,-0.0131,-0.0331,0.0016,-2.4378,1.4399,-3.0454
2024-10-11T12:49:02.444Z,-0.0086,-0.9891,0.1574,-0.0824,0.1139,-0.1909,-0.0191,-0.0444,0.0023,-2.4399,1.4402,-3.0447
2024-10-11T12:49:02.454Z,0.0005,-1.0166,0.1399,-0.0824,0.1139,-0.1909,-0.0222,-0.0511,0.0030,-2.4399,1.4402,-3.0447
2024-10-11T12:49:02.464Z,0.0097,-1.0427,0.1268,-0.0824,0.1139,-0.1909,-0.0231,-0.0631,0.0037,-2.4399,1.4402,-3.0447
2024-10-11T12:49:02.473Z,0.0085,-1.0633,0.1167,-0.2150,0.7746,0.1804,-0.0233,-0.0732,0.0067,-2.4421,1.4406,-3.0447
2024-10-11T12:49:02.484Z,0.0100,-1.0784,0.1066,-0.2150,0.7746,0.1804,-0.0215,-0.0829,0.0087,-2.4421,1.4406,-3.0447
2024-10-11T12:49:02.494Z,0.0015,-1.0903,0.1030,-0.2150,0.7746,0.1804,-0.0179,-0.0826,0.0099,-2.4421,1.4406,-3.0447
2024-10-11T12:49:02.504Z,-0.0081,-1.0981,0.1049,-0.0068,1.0554,0.2252,-0.0164,-0.0705,0.0012,-2.4438,1.4410,-3.0455
2024-10-11T12:49:02.514Z,-0.0119,-1.1004,0.1069,-0.0068,1.0554,0.2252,-0.0175,-0.0589,-0.0039,-2.4438,1.4410,-3.0455
2024-10-11T12:49:02.523Z,-0.0066,-1.0901,0.1173,-0.0068,1.0554,0.2252,-0.0177,-0.0496,-0.0098,-2.4438,1.4410,-3.0455
2024-10-11T12:49:02.534Z,-0.0043,-1.0628,0.1306,-0.1193,0.5174,-0.1036,-0.0187,-0.0492,-0.0141,-2.4418,1.4415,-3.0495
2024-10-11T12:49:02.544Z,0.0046,-1.0234,0.1481,-0.1193,0.5174,-0.1036,-0.0252,-0.0558,-0.0159,-2.4418,1.4415,-3.0495
2024-10-11T12:49:02.554Z,0.0071,-0.9902,0.1637,-0.1193,0.5174,-0.1036,-0.0273,-0.0650,-0.0155,-2.4418,1.4415,-3.0495
2024-10-11T12:49:02.564Z,0.0125,-0.9666,0.1674,-0.2121,-0.3443,-0.3815,-0.0289,-0.0602,-0.0177,-2.4384,1.4424,-3.0547
2024-10-11T12:49:02.574Z,0.0091,-0.9501,0.1669,-0.2121,-0.3443,-0.3815,-0.0279,-0.0578,-0.0162,-2.4384,1.4424,-3.0547
2024-10-11T12:49:02.584Z,0.0069,-0.9474,0.1587,-0.2121,-0.3443,-0.3815,-0.0335,-0.0435,-0.0199,-2.4384,1.4424,-3.0547
2024-10-11T12:49:02.594Z,0.0015,-0.9527,0.1543,-0.0829,-0.3140,-0.1579,-0.0342,-0.0280,-0.0193,-2.4345,1.4434,-3.0601
2024-10-11T12:49:02.604Z,-0.0009,-0.9675,0.1322,-0.0829,-0.3140,-0.1579,-0.0343,-0.0193,-0.0232,-2.4345,1.4434,-3.0601
2024-10-11T12:49:02.614Z,0.0030,-0.9902,0.1166,-0.0829,-0.3140,-0.1579,-0.0331,-0.0161,-0.0251,-2.4345,1.4434,-3.0601
2024-10-11T12:49:02.624Z,0.0115,-1.0073,0.1078,-0.2271,0.2568,0.2100,-0.0341,-0.0086,-0.0249,-2.4295,1.4444,-3.0657
2024-10-11T12:49:02.634Z,0.0123,-1.0272,0.0938,-0.2271,0.2568,0.2100,-0.0322,-0.0025,-0.0218,-2.4295,1.4444,-3.0657
2024-10-11T12:49:02.644Z,0.0174,-1.0379,0.0850,-0.2271,0.2568,0.2100,-0.0258,0.0080,-0.0191,-2.4295,1.4444,-3.0657
2024-10-11T12:49:02.655Z,0.0104,-1.0356,0.0767,-0.1549,0.3975,0.4598,-0.0237,0.0222,-0.0206,-2.4248,1.4452,-3.0702
2024-10-11T12:49:02.664Z,0.0030,-1.0317,0.0753,-0.1549,0.3975,0.4598,-0.0173,0.0389,-0.0226,-2.4248,1.4452,-3.0702
2024-10-11T12:49:02.674Z,-0.0017,-1.0213,0.0764,-0.1549,0.3975,0.4598,-0.0097,0.0518,-0.0283,-2.4248,1.4452,-3.0702
2024-10-11T12:49:02.684Z,-0.0045,-1.0085,0.0749,-0.0316,0.0794,0.4432,-0.0062,0.0638,-0.0361,-2.4174,1.4455,-3.0762
2024-10-11T12:49:02.694Z,-0.0076,-0.9896,0.0886,-0.0316,0.0794,0.4432,-0.0037,0.0726,-0.0456,-2.4174,1.4455,-3.0762
2024-10-11T12:49:02.705Z,-0.0029,-0.9616,0.0990,-0.0316,0.0794,0.4432,-0.0003,0.0811,-0.0556,-2.4174,1.4455,-3.0762
2024-10-11T12:49:02.714Z,0.0049,-0.9385,0.1067,-0.1389,-0.6010,0.1234,-0.0011,0.0809,-0.0646,-2.4039,1.4457,-3.0873
2024-10-11T12:49:02.724Z,0.0108,-0.9268,0.1167,-0.1389,-0.6010,0.1234,-0.0026,0.0845,-0.0703,-2.4039,1.4457,-3.0873
2024-10-11T12:49:02.734Z,0.0247,-0.9263,0.1159,-0.1389,-0.6010,0.1234,-0.0054,0.0799,-0.0752,-2.4039,1.4457,-3.0873
2024-10-11T12:49:02.744Z,0.0339,-0.9412,0.1137,-0.4049,-0.4218,0.1450,-0.0031,0.0700,-0.0812,-2.3853,1.4459,-3.1036
2024-10-11T12:49:02.754Z,0.0391,-0.9598,0.1090,-0.4049,-0.4218,0.1450,0.0014,0.0581,-0.0807,-2.3853,1.4459,-3.1036
2024-10-11T12:49:02.764Z,0.0457,-0.9920,0.0895,-0.4049,-0.4218,0.1450,0.0053,0.0499,-0.0896,-2.3853,1.4459,-3.1036
2024-10-11T12:49:02.774Z,0.0463,-1.0210,0.0788,-0.4786,0.3998,0.4982,0.0172,0.0338,-0.0878,-2.3645,1.4457,-3.1232
2024-10-11T12:49:02.784Z,0.0469,-1.0431,0.0696,-0.4786,0.3998,0.4982,0.0313,0.0128,-0.0887,-2.3645,1.4457,-3.1232
2024-10-11T12:49:02.794Z,0.0475,-1.0611,0.0684,-0.4786,0.3998,0.4982,0.0394,0.0039,-0.0868,-2.3645,1.4457,-3.1232
2024-10-11T12:49:02.804Z,0.0560,-1.0615,0.0773,-0.6311,0.6272,0.3733,0.0483,-0.0098,-0.0875,-2.3434,1.4445,3.1388
2024-10-11T12:49:02.814Z,0.0707,-1.0470,0.0970,-0.6311,0.6272,0.3733,0.0519,-0.0240,-0.0819,-2.3434,1.4445,3.1388
2024-10-11T12:49:02.823Z,0.0716,-1.0270,0.1267,-0.6311,0.6272,0.3733,0.0556,-0.0422,-0.0757,-2.3434,1.4445,3.1388
2024-10-11T12:49:02.834Z,0.0698,-1.0082,0.1430,-0.6408,0.0754,-0.2404,0.0576,-0.0578,-0.0722,-2.3259,1.4428,3.1198
2024-10-11T12:49:02.844Z,0.0604,-0.9928,0.1602,-0.6408,0.0754,-0.2404,0.0573,-0.0594,-0.0672,-2.3259,1.4428,3.1198
2024-10-11T12:49:02.854Z,0.0505,-0.9829,0.1706,-0.6408,0.0754,-0.2404,0.0549,-0.0625,-0.0646,-2.3259,1.4428,3.1198
2024-10-11T12:49:02.864Z,0.0393,-0.9747,0.1775,-0.2738,-0.1828,-0.5094,0.0536,-0.0474,-0.0665,-2.3111,1.4411,3.1034
2024-10-11T12:49:02.874Z,0.0270,-0.9708,0.1834,-0.2738,-0.1828,-0.5094,0.0456,-0.0292,-0.0682,-2.3111,1.4411,3.1034
2024-10-11T12:49:02.884Z,0.0212,-0.9658,0.1874,-0.2738,-0.1828,-0.5094,0.0390,-0.0113,-0.0712,-2.3111,1.4411,3.1034
2024-10-11T12:49:02.894Z,0.0206,-0.9669,0.1881,-0.1489,-0.2113,-0.5726,0.0342,0.0032,-0.0745,-2.2947,1.4398,3.0865
2024-10-11T12:49:02.904Z,0.0245,-0.9702,0.1906,-0.1489,-0.2113,-0.5726,0.0263,0.0165,-0.0794,-2.2947,1.4398,3.0865
2024-10-11T12:49:02.914Z,0.0287,-0.9731,0.1839,-0.1489,-0.2113,-0.5726,0.0238,0.0225,-0.0788,-2.2947,1.4398,3.0865
2024-10-11T12:49:02.924Z,0.0366,-0.9757,0.1798,-0.2872,-0.1029,-0.4082,0.0201,0.0287,-0.0779,-2.2770,1.4389,3.0695
2024-10-11T12:49:02.934Z,0.0388,-0.9854,0.1675,-0.2872,-0.1029,-0.4082,0.0163,0.0311,-0.0740,-2.2770,1.4389,3.0695
2024-10-11T12:49:02.944Z,0.0446,-0.9957,0.1575,-0.2872,-0.1029,-0.4082,0.0100,0.0418,-0.0677,-2.2770,1.4389,3.0695
2024-10-11T12:49:02.955Z,0.0444,-1.0078,0.1432,-0.2826,0.2466,-0.0250,0.0079,0.0559,-0.0660,-2.2613,1.4384,3.0552
2024-10-11T12:49:02.964Z,0.0370,-1.0256,0.1277,-0.2826,0.2466,-0.0250,0.0054,0.0674,-0.0594,-2.2613,1.4384,3.0552
2024-10-11T12:49:02.974Z,0.0321,-1.0342,0.1201,-0.2826,0.2466,-0.0250,0.0071,0.0750,-0.0566,-2.2613,1.4384,3.0552
2024-10-11T12:49:02.984Z,0.0273,-1.0387,0.1138,-0.1261,0.4214,0.1505,0.0050,0.0777,-0.0522,-2.2489,1.4381,3.0449
2024-10-11T12:49:02.994Z,0.0253,-1.0267,0.1199,-0.1261,0.4214,0.1505,-0.0033,0.0830,-0.0490,-2.2489,1.4381,3.0449
2024-10-11T12:49:03.004Z,0.0197,-1.0065,0.1262,-0.1261,0.4214,0.1505,-0.0074,0.0947,-0.0461,-2.2489,1.4381,3.0449
2024-10-11T12:49:03.013Z,0.0193,-0.9867,0.1313,-0.0516,-0.1129,-0.0605,-0.0162,0.1084,-0.0467,-2.2384,1.4382,3.0371
2024-10-11T12:49:03.024Z,0.0158,-0.9753,0.1378,-0.0516,-0.1129,-0.0605,-0.0223,0.1231,-0.0437,-2.2384,1.4382,3.0371
2024-10-11T12:49:03.034Z,0.0079,-0.9666,0.1367,-0.0516,-0.1129,-0.0605,-0.0292,0.1384,-0.0481,-2.2384,1.4382,3.0371
2024-10-11T12:49:03.044Z,0.0086,-0.9686,0.1277,0.0010,-0.2113,0.0297,-0.0316,0.1494,-0.0468,-2.2274,1.4389,3.0301
2024-10-11T12:49:03.055Z,0.0223,-0.9709,0.1246,0.0010,-0.2113,0.0297,-0.0325,0.1565,-0.0479,-2.2274,1.4389,3.0301
2024-10-11T12:49:03.064Z,0.0188,-0.9838,0.1041,0.0010,-0.2113,0.0297,-0.0272,0.1576,-0.0454,-2.2274,1.4389,3.0301
2024-10-11T12:49:03.074Z,0.0143,-0.9965,0.0922,0.0067,0.1209,0.4878,-0.0192,0.1601,-0.0440,-2.2170,1.4395,3.0246
2024-10-11T12:49:03.084Z,0.0138,-1.0125,0.0737,0.0067,0.1209,0.4878,-0.0145,0.1670,-0.0363,-2.2170,1.4395,3.0246
2024-10-11T12:49:03.094Z,0.0052,-1.0307,0.0660,0.0067,0.1209,0.4878,-0.0089,0.1663,-0.0325,-2.2170,1.4395,3.0246
2024-10-11T12:49:03.105Z,0.0090,-1.0378,0.0678,0.1054,0.4892,0.6219,-0.0046,0.1731,-0.0267,-2.2095,1.4396,3.0222
2024-10-11T12:49:03.114Z,-0.0040,-1.0401,0.0677,0.1054,0.4892,0.6219,0.0014,0.1756,-0.0198,-2.2095,1.4396,3.0222
2024-10-11T12:49:03.125Z,-0.0052,-1.0313,0.0778,0.1054,0.4892,0.6219,0.0060,0.1742,-0.0149,-2.2095,1.4396,3.0222
2024-10-11T12:49:03.134Z,-0.0131,-1.0227,0.0824,0.2795,0.2415,0.4489,0.0060,0.1742,-0.0149,-2.2065,1.4393,3.0239
2024-10-11T12:49:03.144Z,-0.0136,-1.0091,0.0943,0.2795,0.2415,0.4489,0.0101,0.1725,-0.0106,-2.2065,1.4393,3.0239
2024-10-11T12:49:03.155Z,-0.0242,-1.0007,0.1052,0.2795,0.2415,0.4489,0.0113,0.1730,-0.0110,-2.2065,1.4393,3.0239
2024-10-11T12:49:03.164Z,-0.0183,-0.9932,0.1298,0.2201,-0.0480,-0.0957,0.0126,0.1711,-0.0071,-2.2051,1.4389,3.0273
2024-10-11T12:49:03.174Z,-0.0049,-0.9776,0.1479,0.2201,-0.0480,-0.0957,0.0102,0.1685,-0.0070,-2.2051,1.4389,3.0273
2024-10-11T12:49:03.184Z,-0.0156,-0.9707,0.1579,0.2201,-0.0480,-0.0957,0.0057,0.1561,-0.0066,-2.2051,1.4389,3.0273
2024-10-11T12:49:03.194Z,-0.0113,-0.9648,0.1625,0.2381,-0.2733,-0.3858,0.0027,0.1411,-0.0068,-2.2040,1.4387,3.0303
2024-10-11T12:49:03.206Z,-0.0125,-0.9666,0.1705,0.2381,-0.2733,-0.3858,-0.0012,0.1151,-0.0009,-2.2040,1.4387,3.0303
2024-10-11T12:49:03.213Z,-0.0072,-0.9793,0.1671,0.2381,-0.2733,-0.3858,-0.0012,0.1151,-0.0009,-2.2040,1.4387,3.0303
2024-10-11T12:49:03.224Z,-0.0020,-0.9919,0.1553,0.1833,0.0765,-0.2034,-0.0098,0.1045,-0.0025,-2.2035,1.4388,3.0331
2024-10-11T12:49:03.235Z,-0.0030,-1.0078,0.1486,0.1833,0.0765,-0.2034,-0.0126,0.0932,0.0041,-2.2035,1.4388,3.0331
2024-10-11T12:49:03.244Z,0.0019,-1.0204,0.1330,0.1833,0.0765,-0.2034,-0.0126,0.0932,0.0041,-2.2035,1.4388,3.0331
2024-10-11T12:49:03.254Z,0.0078,-1.0337,0.1173,0.0569,0.4944,0.2638,-0.0100,0.0770,0.0138,-2.2047,1.4391,3.0367
2024-10-11T12:49:03.263Z,0.0091,-1.0478,0.0950,0.0569,0.4944,0.2638,-0.0100,0.0770,0.0138,-2.2047,1.4391,3.0367
2024-10-11T12:49:03.275Z,0.0174,-1.0499,0.0933,0.0569,0.4944,0.2638,0.0030,0.0675,0.0246,-2.2047,1.4391,3.0367
2024-10-11T12:49:03.284Z,0.0201,-1.0467,0.0883,-0.0243,0.4814,0.3680,0.0030,0.0675,0.0246,-2.2095,1.4391,3.0434
2024-10-11T12:49:03.295Z,0.0133,-1.0335,0.0985,-0.0243,0.4814,0.3680,0.0035,0.0653,0.0367,-2.2095,1.4391,3.0434
2024-10-11T12:49:03.304Z,0.0159,-1.0096,0.1012,-0.0243,0.4814,0.3680,0.0006,0.0677,0.0368,-2.2095,1.4391,3.0434
2024-10-11T12:49:03.314Z,0.0131,-0.9833,0.1149,-0.0137,-0.2108,0.0625,-0.0049,0.0750,0.0423,-2.2177,1.4392,3.0533
2024-10-11T12:49:03.323Z,0.0116,-0.9576,0.1329,-0.0137,-0.2108,0.0625,-0.0049,0.0750,0.0423,-2.2177,1.4392,3.0533
2024-10-11T12:49:03.334Z,0.0056,-0.9372,0.1374,-0.0137,-0.2108,0.0625,-0.0160,0.0861,0.0394,-2.2177,1.4392,3.0533
2024-10-11T12:49:03.344Z,0.0069,-0.9200,0.1485,-0.0001,-0.7637,-0.1658,-0.0181,0.0793,0.0400,-2.2267,1.4396,3.0643
2024-10-11T12:49:03.354Z,0.0131,-0.9105,0.1471,-0.0001,-0.7637,-0.1658,-0.0181,0.0793,0.0400,-2.2267,1.4396,3.0643
2024-10-11T12:49:03.364Z,0.0200,-0.9170,0.1476,-0.0001,-0.7637,-0.1658,-0.0265,0.0695,0.0490,-2.2267,1.4396,3.0643
2024-10-11T12:49:03.373Z,0.0157,-0.9319,0.1351,-0.1123,-0.4650,-0.0142,-0.0265,0.0695,0.0490,-2.2368,1.4404,3.0763
2024-10-11T12:49:03.384Z,0.0247,-0.9569,0.1252,-0.1123,-0.4650,-0.0142,-0.0237,0.0546,0.0588,-2.2368,1.4404,3.0763
2024-10-11T12:49:03.395Z,0.0269,-0.9745,0.1212,-0.1123,-0.4650,-0.0142,-0.0229,0.0504,0.0656,-2.2368,1.4404,3.0763
2024-10-11T12:49:03.404Z,0.0262,-0.9827,0.1172,-0.1617,-0.0711,0.1693,-0.0202,0.0424,0.0694,-2.2503,1.4412,3.0910
2024-10-11T12:49:03.414Z,0.0231,-0.9858,0.1141,-0.1617,-0.0711,0.1693,-0.0158,0.0371,0.0760,-2.2503,1.4412,3.0910
2024-10-11T12:49:03.423Z,0.0242,-0.9851,0.1061,-0.1617,-0.0711,0.1693,-0.0158,0.0371,0.0760,-2.2503,1.4412,3.0910
2024-10-11T12:49:03.434Z,0.0163,-0.9853,0.1043,-0.0972,-0.0774,0.2567,-0.0133,0.0393,0.0781,-2.2676,1.4419,3.1091
2024-10-11T12:49:03.444Z,0.0082,-0.9819,0.1013,-0.0972,-0.0774,0.2567,-0.0081,0.0431,0.0761,-2.2676,1.4419,3.1091
2024-10-11T12:49:03.454Z,-0.0006,-0.9800,0.1002,-0.0972,-0.0774,0.2567,-0.0053,0.0467,0.0731,-2.2676,1.4419,3.1091
2024-10-11T12:49:03.464Z,0.0004,-0.9810,0.0901,0.0192,-0.1300,0.3419,-0.0036,0.0504,0.0690,-2.2849,1.4421,3.1273
2024-10-11T12:49:03.473Z,-0.0023,-0.9787,0.0929,0.0192,-0.1300,0.3419,-0.0036,0.0504,0.0690,-2.2849,1.4421,3.1273
2024-10-11T12:49:03.484Z,-0.0052,-0.9752,0.0865,0.0192,-0.1300,0.3419,0.0028,0.0340,0.0601,-2.2849,1.4421,3.1273
2024-10-11T12:49:03.494Z,-0.0125,-0.9749,0.0871,0.1086,-0.1797,0.3876,0.0094,0.0259,0.0562,-2.2995,1.4421,-3.1403
2024-10-11T12:49:03.504Z,-0.0079,-0.9723,0.0904,0.1086,-0.1797,0.3876,0.0149,0.0190,0.0553,-2.2995,1.4421,-3.1403
2024-10-11T12:49:03.514Z,-0.0116,-0.9694,0.0863,0.1086,-0.1797,0.3876,0.0182,0.0142,0.0567,-2.2995,1.4421,-3.1403
2024-10-11T12:49:03.524Z,-0.0130,-0.9708,0.0882,0.1021,-0.1940,0.3894,0.0209,0.0061,0.0550,-2.3125,1.4416,-3.1271
2024-10-11T12:49:03.534Z,-0.0065,-0.9724,0.0917,0.1021,-0.1940,0.3894,0.0274,0.0014,0.0549,-2.3125,1.4416,-3.1271
2024-10-11T12:49:03.544Z,0.0028,-0.9825,0.0934,0.1021,-0.1940,0.3894,0.0331,-0.0015,0.0554,-2.3125,1.4416,-3.1271
2024-10-11T12:49:03.554Z,-0.0115,-0.9951,0.0770,0.1555,0.1029,0.5507,0.0388,-0.0098,0.0571,-2.3254,1.4407,-3.1146
2024-10-11T12:49:03.564Z,-0.0179,-1.0079,0.0704,0.1555,0.1029,0.5507,0.0445,-0.0080,0.0546,-2.3254,1.4407,-3.1146
2024-10-11T12:49:03.574Z,-0.0092,-1.0116,0.0774,0.1555,0.1029,0.5507,0.0493,-0.0043,0.0581,-2.3254,1.4407,-3.1146
2024-10-11T12:49:03.585Z,-0.0041,-1.0025,0.1030,0.0221,0.1792,0.3858,0.0473,-0.0005,0.0615,-2.3382,1.4393,-3.1023
2024-10-11T12:49:03.594Z,-0.0041,-1.0025,0.1030,0.0221,0.1792,0.3858,0.0446,0.0024,0.0629,-2.3382,1.4393,-3.1023
2024-10-11T12:49:03.604Z,-0.0111,-0.9858,0.1239,0.0221,0.1792,0.3858,0.0416,0.0133,0.0620,-2.3382,1.4393,-3.1023
2024-10-11T12:49:03.614Z,-0.0161,-0.9732,0.1432,0.1040,-0.2292,-0.1849,0.0324,0.0226,0.0644,-2.3518,1.4379,-3.0889
2024-10-11T12:49:03.624Z,-0.0076,-0.9528,0.1671,0.1040,-0.2292,-0.1849,0.0324,0.0226,0.0644,-2.3518,1.4379,-3.0889
2024-10-11T12:49:03.634Z,-0.0076,-0.9528,0.1671,0.1040,-0.2292,-0.1849,0.0189,0.0298,0.0624,-2.3518,1.4379,-3.0889
2024-10-11T12:49:03.644Z,-0.0162,-0.9477,0.1709,0.0632,-0.4116,-0.4108,0.0112,0.0302,0.0609,-2.3653,1.4370,-3.0751
2024-10-11T12:49:03.655Z,-0.0079,-0.9564,0.1755,0.0632,-0.4116,-0.4108,0.0070,0.0221,0.0612,-2.3653,1.4370,-3.0751
2024-10-11T12:49:03.664Z,-0.0079,-0.9564,0.1755,0.0632,-0.4116,-0.4108,0.0007,0.0262,0.0618,-2.3653,1.4370,-3.0751
2024-10-11T12:49:03.674Z,-0.0182,-0.9717,0.1670,0.1102,-0.1292,-0.2747,-0.0052,0.0262,0.0585,-2.3787,1.4368,-3.0611
2024-10-11T12:49:03.685Z,-0.0117,-0.9932,0.1645,0.1102,-0.1292,-0.2747,-0.0098,0.0208,0.0571,-2.3787,1.4368,-3.0611
2024-10-11T12:49:03.695Z,-0.0229,-0.9972,0.1624,0.1102,-0.1292,-0.2747,-0.0169,0.0159,0.0570,-2.3787,1.4368,-3.0611
2024-10-11T12:49:03.704Z,-0.0227,-0.9975,0.1618,0.1435,0.0726,-0.2667,-0.0206,0.0084,0.0585,-2.3923,1.4370,-3.0474
2024-10-11T12:49:03.714Z,-0.0227,-0.9975,0.1618,0.1435,0.0726,-0.2667,-0.0235,0.0044,0.0570,-2.3923,1.4370,-3.0474
2024-10-11T12:49:03.724Z,-0.0257,-1.0033,0.1695,0.1435,0.0726,-0.2667,-0.0235,0.0044,0.0570,-2.3923,1.4370,-3.0474
2024-10-11T12:49:03.734Z,-0.0350,-1.0084,0.1640,0.1788,0.1402,-0.3453,-0.0280,-0.0041,0.0561,-2.4058,1.4375,-3.0341
2024-10-11T12:49:03.745Z,-0.0384,-1.0057,0.1609,0.1788,0.1402,-0.3453,-0.0331,0.0058,0.0522,-2.4058,1.4375,-3.0341
2024-10-11T12:49:03.754Z,-0.0476,-1.0004,0.1589,0.1788,0.1402,-0.3453,-0.0338,0.0030,0.0487,-2.4058,1.4375,-3.0341
2024-10-11T12:49:03.764Z,-0.0489,-0.9942,0.1586,0.3056,0.0653,-0.2809,-0.0390,0.0029,0.0393,-2.4178,1.4383,-3.0225
2024-10-11T12:49:03.774Z,-0.0489,-0.9942,0.1586,0.3056,0.0653,-0.2809,-0.0390,0.0029,0.0393,-2.4178,1.4383,-3.0225
2024-10-11T12:49:03.784Z,-0.0541,-0.9937,0.1478,0.3056,0.0653,-0.2809,-0.0489,-0.0070,0.0298,-2.4178,1.4383,-3.0225
2024-10-11T12:49:03.794Z,-0.0541,-0.9937,0.1478,0.4381,0.0381,-0.1133,-0.0543,-0.0101,0.0201,-2.4265,1.4396,-3.0141
2024-10-11T12:49:03.804Z,-0.0710,-1.0019,0.1355,0.4381,0.0381,-0.1133,-0.0575,-0.0170,0.0136,-2.4265,1.4396,-3.0141
2024-10-11T12:49:03.814Z,-0.0619,-1.0029,0.1271,0.4381,0.0381,-0.1133,-0.0582,-0.0173,0.0085,-2.4265,1.4396,-3.0141
2024-10-11T12:49:03.825Z,-0.0619,-1.0029,0.1271,0.4347,0.1227,0.0286,-0.0592,-0.0272,0.0010,-2.4311,1.4412,-3.0102
2024-10-11T12:49:03.834Z,-0.0648,-1.0071,0.1081,0.4347,0.1227,0.0286,-0.0503,-0.0332,-0.0056,-2.4311,1.4412,-3.0102
2024-10-11T12:49:03.844Z,-0.0648,-1.0071,0.1081,0.4347,0.1227,0.0286,-0.0444,-0.0373,-0.0087,-2.4311,1.4412,-3.0102
2024-10-11T12:49:03.854Z,-0.0535,-1.0137,0.1017,0.3138,0.2214,0.3012,-0.0320,-0.0450,-0.0089,-2.4316,1.4427,-3.0109
2024-10-11T12:49:03.864Z,-0.0455,-1.0173,0.0790,0.3138,0.2214,0.3012,-0.0203,-0.0479,-0.0111,-2.4316,1.4427,-3.0109
2024-10-11T12:49:03.874Z,-0.0455,-1.0173,0.0790,0.3138,0.2214,0.3012,-0.0116,-0.0450,-0.0119,-2.4316,1.4427,-3.0109
2024-10-11T12:49:03.884Z,-0.0442,-1.0025,0.0867,0.2115,0.1494,0.4035,-0.0031,-0.0398,-0.0190,-2.4294,1.4433,-3.0146
2024-10-11T12:49:03.895Z,-0.0579,-0.9924,0.0876,0.2115,0.1494,0.4035,-0.0006,-0.0322,-0.0260,-2.4294,1.4433,-3.0146
2024-10-11T12:49:03.905Z,-0.0588,-0.9826,0.0876,0.2115,0.1494,0.4035,-0.0011,-0.0299,-0.0333,-2.4294,1.4433,-3.0146
2024-10-11T12:49:03.914Z,-0.0540,-0.9709,0.0960,0.3997,-0.1545,0.3509,-0.0041,-0.0303,-0.0348,-2.4235,1.4434,-3.0218
2024-10-11T12:49:03.924Z,-0.0540,-0.9709,0.0960,0.3997,-0.1545,0.3509,-0.0041,-0.0303,-0.0348,-2.4235,1.4434,-3.0218
2024-10-11T12:49:03.934Z,-0.0564,-0.9488,0.1181,0.3997,-0.1545,0.3509,-0.0071,-0.0428,-0.0496,-2.4235,1.4434,-3.0218
2024-10-11T12:49:03.944Z,-0.0598,-0.9434,0.1242,0.4350,-0.4462,0.0429,-0.0128,-0.0492,-0.0503,-2.4135,1.4438,-3.0331
2024-10-11T12:49:03.954Z,-0.0560,-0.9402,0.1358,0.4350,-0.4462,0.0429,-0.0142,-0.0570,-0.0569,-2.4135,1.4438,-3.0331
2024-10-11T12:49:03.964Z,-0.0524,-0.9414,0.1488,0.4350,-0.4462,0.0429,-0.0160,-0.0613,-0.0604,-2.4135,1.4438,-3.0331
2024-10-11T12:49:03.975Z,-0.0524,-0.9414,0.1488,0.3521,-0.4858,-0.2867,-0.0142,-0.0698,-0.0642,-2.4005,1.4443,-3.0481
2024-10-11T12:49:03.984Z,-0.0434,-0.9521,0.1477,0.3521,-0.4858,-0.2867,-0.0080,-0.0758,-0.0714,-2.4005,1.4443,-3.0481
2024-10-11T12:49:03.994Z,-0.0372,-0.9656,0.1415,0.3521,-0.4858,-0.2867,-0.0020,-0.0814,-0.0719,-2.4005,1.4443,-3.0481
2024-10-11T12:49:04.004Z,-0.0309,-0.9700,0.1443,0.2252,-0.2322,-0.1842,0.0032,-0.0856,-0.0784,-2.3844,1.4447,-3.0667
2024-10-11T12:49:04.014Z,-0.0322,-0.9794,0.1386,0.2252,-0.2322,-0.1842,0.0078,-0.0882,-0.0816,-2.3844,1.4447,-3.0667
2024-10-11T12:49:04.024Z,-0.0322,-0.9794,0.1386,0.2252,-0.2322,-0.1842,0.0063,-0.0904,-0.0797,-2.3844,1.4447,-3.0667
2024-10-11T12:49:04.034Z,-0.0188,-0.9876,0.1329,0.1284,-0.0478,-0.0797,0.0019,-0.0869,-0.0807,-2.3654,1.4447,-3.0884
2024-10-11T12:49:04.044Z,-0.0251,-0.9851,0.1316,0.1284,-0.0478,-0.0797,0.0016,-0.0841,-0.0790,-2.3654,1.4447,-3.0884
2024-10-11T12:49:04.054Z,-0.0301,-0.9756,0.1284,0.1284,-0.0478,-0.0797,0.0021,-0.0857,-0.0805,-2.3654,1.4447,-3.0884
2024-10-11T12:49:04.064Z,-0.0299,-0.9656,0.1266,0.2580,-0.2238,0.0075,-0.0039,-0.0815,-0.0804,-2.3465,1.4447,-3.1100
2024-10-11T12:49:04.074Z,-0.0299,-0.9656,0.1266,0.2580,-0.2238,0.0075,-0.0081,-0.0788,-0.0783,-2.3465,1.4447,-3.1100
2024-10-11T12:49:04.084Z,-0.0217,-0.9641,0.1486,0.2580,-0.2238,0.0075,-0.0106,-0.0748,-0.0794,-2.3465,1.4447,-3.1100
2024-10-11T12:49:04.094Z,-0.0264,-0.9768,0.1484,0.2330,-0.2200,-0.2341,-0.0120,-0.0627,-0.0827,-2.3278,1.4450,-3.1311
2024-10-11T12:49:04.104Z,-0.0188,-0.9917,0.1497,0.2330,-0.2200,-0.2341,-0.0094,-0.0589,-0.0825,-2.3278,1.4450,-3.1311
2024-10-11T12:49:04.113Z,-0.0214,-1.0048,0.1495,0.2330,-0.2200,-0.2341,-0.0059,-0.0596,-0.0840,-2.3278,1.4450,-3.1311
