time,gFx,gFy,gFz,ax,ay,az,wx,wy,wz,yaw,pitch,roll
2024-10-11T12:18:34.460Z,-0.0096,-0.9818,0.1583,0.0072,-0.0940,0.0445,0.0161,0.0162,-0.0223,-2.4795,1.4108,-3.0858
2024-10-11T12:18:34.468Z,-0.0060,-0.9853,0.1609,0.0072,-0.0940,0.0445,0.0170,0.0074,-0.0217,-2.4795,1.4108,-3.0858
2024-10-11T12:18:34.478Z,-0.0065,-0.9864,0.1628,-0.0265,-0.0238,-0.0079,0.0179,0.0051,-0.0237,-2.4751,1.4103,-3.0902
2024-10-11T12:18:34.488Z,-0.0045,-0.9892,0.1605,-0.0265,-0.0238,-0.0079,0.0198,0.0064,-0.0210,-2.4751,1.4103,-3.0902
2024-10-11T12:18:34.497Z,-0.0058,-0.9910,0.1600,-0.0265,-0.0238,-0.0079,0.0210,0.0043,-0.0213,-2.4751,1.4103,-3.0902
2024-10-11T12:18:34.508Z,-0.0050,-0.9918,0.1606,-0.0184,0.0310,0.0018,0.0186,0.0052,-0.0212,-2.4711,1.4097,-3.0943
2024-10-11T12:18:34.518Z,-0.0054,-0.9927,0.1561,-0.0184,0.0310,0.0018,0.0198,0.0054,-0.0219,-2.4711,1.4097,-3.0943
2024-10-11T12:18:34.529Z,-0.0050,-0.9926,0.1567,-0.0184,0.0310,0.0018,0.0170,0.0025,-0.0216,-2.4711,1.4097,-3.0943
2024-10-11T12:18:34.538Z,-0.0059,-0.9920,0.1573,-0.0274,0.0592,0.0511,0.0183,0.0028,-0.0195,-2.4671,1.4091,-3.0983
2024-10-11T12:18:34.548Z,-0.0050,-0.9936,0.1561,-0.0274,0.0592,0.0511,0.0191,0.0048,-0.0175,-2.4671,1.4091,-3.0983
2024-10-11T12:18:34.559Z,-0.0028,-0.9925,0.1547,-0.0274,0.0592,0.0511,0.0189,0.0002,-0.0168,-2.4671,1.4091,-3.0983
2024-10-11T12:18:34.568Z,-0.0042,-0.9916,0.1564,-0.0355,0.0649,0.0647,0.0181,0.0025,-0.0157,-2.4640,1.4086,-3.1016
2024-10-11T12:18:34.578Z,-0.0023,-0.9917,0.1565,-0.0355,0.0649,0.0647,0.0215,0.0031,-0.0122,-2.4640,1.4086,-3.1016
2024-10-11T12:18:34.589Z,-0.0056,-0.9919,0.1569,-0.0355,0.0649,0.0647,0.0179,0.0013,-0.0112,-2.4640,1.4086,-3.1016
2024-10-11T12:18:34.598Z,-0.0063,-0.9941,0.1561,-0.0268,0.0444,0.0408,0.0198,-0.0005,-0.0100,-2.4618,1.4080,-3.1040
2024-10-11T12:18:34.608Z,-0.0043,-0.9921,0.1574,-0.0268,0.0444,0.0408,0.0207,0.0012,-0.0082,-2.4618,1.4080,-3.1040
2024-10-11T12:18:34.618Z,-0.0071,-0.9949,0.1588,-0.0268,0.0444,0.0408,0.0167,0.0018,-0.0073,-2.4618,1.4080,-3.1040
2024-10-11T12:18:34.628Z,-0.0063,-0.9967,0.1596,0.0104,0.0621,0.0428,0.0230,0.0004,-0.0066,-2.4603,1.4075,-3.1057
2024-10-11T12:18:34.638Z,-0.0083,-0.9967,0.1629,0.0104,0.0621,0.0428,0.0188,0.0007,-0.0042,-2.4603,1.4075,-3.1057
2024-10-11T12:18:34.648Z,-0.0111,-0.9978,0.1649,0.0104,0.0621,0.0428,0.0185,0.0010,-0.0055,-2.4603,1.4075,-3.1057
2024-10-11T12:18:34.658Z,-0.0107,-0.9972,0.1650,0.0426,0.1185,-0.0076,0.0201,0.0004,-0.0017,-2.4590,1.4071,-3.1072
2024-10-11T12:18:34.667Z,-0.0089,-0.9968,0.1664,0.0426,0.1185,-0.0076,0.0170,0.0032,-0.0030,-2.4590,1.4071,-3.1072
2024-10-11T12:18:34.678Z,-0.0093,-0.9983,0.1661,0.0426,0.1185,-0.0076,0.0168,0.0092,-0.0019,-2.4590,1.4071,-3.1072
2024-10-11T12:18:34.688Z,-0.0078,-0.9962,0.1682,0.0318,0.1048,-0.0344,0.0147,0.0143,-0.0016,-2.4584,1.4066,-3.1078
2024-10-11T12:18:34.698Z,-0.0063,-0.9949,0.1707,0.0318,0.1048,-0.0344,0.0161,0.0149,0.0014,-2.4584,1.4066,-3.1078
2024-10-11T12:18:34.708Z,-0.0075,-0.9949,0.1730,0.0318,0.1048,-0.0344,0.0141,0.0214,0.0019,-2.4584,1.4066,-3.1078
2024-10-11T12:18:34.718Z,-0.0079,-0.9941,0.1758,0.0112,0.0750,-0.0841,0.0108,0.0233,0.0078,-2.4588,1.4062,-3.1072
2024-10-11T12:18:34.728Z,-0.0048,-0.9939,0.1773,0.0112,0.0750,-0.0841,0.0080,0.0285,0.0064,-2.4588,1.4062,-3.1072
2024-10-11T12:18:34.738Z,-0.0070,-0.9905,0.1799,0.0112,0.0750,-0.0841,0.0051,0.0290,0.0083,-2.4588,1.4062,-3.1072
2024-10-11T12:18:34.749Z,-0.0064,-0.9889,0.1825,0.0011,0.0520,-0.1501,0.0032,0.0350,0.0120,-2.4599,1.4059,-3.1055
2024-10-11T12:18:34.759Z,-0.0078,-0.9892,0.1837,0.0011,0.0520,-0.1501,0.0011,0.0377,0.0091,-2.4599,1.4059,-3.1055
2024-10-11T12:18:34.768Z,-0.0065,-0.9884,0.1799,0.0011,0.0520,-0.1501,-0.0048,0.0437,0.0085,-2.4599,1.4059,-3.1055
2024-10-11T12:18:34.778Z,-0.0064,-0.9881,0.1757,0.0133,0.0179,-0.1674,-0.0073,0.0464,0.0098,-2.4617,1.4060,-3.1028
2024-10-11T12:18:34.788Z,-0.0084,-0.9900,0.1712,0.0133,0.0179,-0.1674,-0.0107,0.0467,0.0096,-2.4617,1.4060,-3.1028
2024-10-11T12:18:34.800Z,-0.0060,-0.9931,0.1686,0.0133,0.0179,-0.1674,-0.0133,0.0470,0.0107,-2.4617,1.4060,-3.1028
2024-10-11T12:18:34.809Z,-0.0065,-0.9929,0.1686,0.0078,0.0530,-0.0655,-0.0146,0.0393,0.0136,-2.4639,1.4062,-3.0996
2024-10-11T12:18:34.818Z,-0.0060,-0.9912,0.1730,0.0078,0.0530,-0.0655,-0.0155,0.0368,0.0122,-2.4639,1.4062,-3.0996
2024-10-11T12:18:34.828Z,-0.0060,-0.9906,0.1735,0.0078,0.0530,-0.0655,-0.0159,0.0314,0.0126,-2.4639,1.4062,-3.0996
2024-10-11T12:18:34.838Z,-0.0084,-0.9903,0.1730,-0.0171,0.0419,-0.0959,-0.0170,0.0330,0.0123,-2.4664,1.4067,-3.0962
2024-10-11T12:18:34.848Z,-0.0088,-0.9919,0.1721,-0.0171,0.0419,-0.0959,-0.0151,0.0327,0.0142,-2.4664,1.4067,-3.0962
2024-10-11T12:18:34.858Z,-0.0108,-0.9916,0.1705,-0.0171,0.0419,-0.0959,-0.0160,0.0319,0.0145,-2.4664,1.4067,-3.0962
2024-10-11T12:18:34.868Z,-0.0105,-0.9904,0.1724,0.0336,0.0608,-0.0711,-0.0139,0.0333,0.0116,-2.4692,1.4070,-3.0928
2024-10-11T12:18:34.878Z,-0.0115,-0.9907,0.1726,0.0336,0.0608,-0.0711,-0.0139,0.0317,0.0146,-2.4692,1.4070,-3.0928
2024-10-11T12:18:34.888Z,-0.0080,-0.9898,0.1703,0.0336,0.0608,-0.0711,-0.0115,0.0319,0.0147,-2.4692,1.4070,-3.0928
2024-10-11T12:18:34.899Z,-0.0074,-0.9893,0.1703,0.0067,0.0325,-0.0862,-0.0140,0.0333,0.0155,-2.4721,1.4073,-3.0891
2024-10-11T12:18:34.908Z,-0.0094,-0.9893,0.1689,0.0067,0.0325,-0.0862,-0.0139,0.0335,0.0178,-2.4721,1.4073,-3.0891
2024-10-11T12:18:34.918Z,-0.0101,-0.9856,0.1710,0.0067,0.0325,-0.0862,-0.0128,0.0354,0.0169,-2.4721,1.4073,-3.0891
2024-10-11T12:18:34.929Z,-0.0105,-0.9805,0.1714,0.0016,0.0087,-0.0748,-0.0147,0.0352,0.0209,-2.4756,1.4075,-3.0850
2024-10-11T12:18:34.939Z,-0.0115,-0.9783,0.1712,0.0016,0.0087,-0.0748,-0.0177,0.0438,0.0221,-2.4756,1.4075,-3.0850
2024-10-11T12:18:34.949Z,-0.0152,-0.9763,0.1712,0.0016,0.0087,-0.0748,-0.0177,0.0438,0.0221,-2.4756,1.4075,-3.0850
2024-10-11T12:18:34.958Z,-0.0163,-0.9750,0.1702,0.0349,-0.0956,-0.0978,-0.0168,0.0414,0.0220,-2.4797,1.4079,-3.0799
2024-10-11T12:18:34.968Z,-0.0168,-0.9733,0.1699,0.0349,-0.0956,-0.0978,-0.0193,0.0436,0.0238,-2.4797,1.4079,-3.0799
2024-10-11T12:18:34.979Z,-0.0178,-0.9735,0.1673,0.0349,-0.0956,-0.0978,-0.0229,0.0438,0.0225,-2.4797,1.4079,-3.0799
2024-10-11T12:18:34.989Z,-0.0170,-0.9737,0.1649,0.0647,-0.1314,-0.0713,-0.0241,0.0461,0.0205,-2.4841,1.4084,-3.0745
2024-10-11T12:18:34.999Z,-0.0162,-0.9748,0.1603,0.0647,-0.1314,-0.0713,-0.0241,0.0461,0.0205,-2.4841,1.4084,-3.0745
2024-10-11T12:18:35.009Z,-0.0154,-0.9764,0.1560,0.0647,-0.1314,-0.0713,-0.0232,0.0391,0.0199,-2.4841,1.4084,-3.0745
2024-10-11T12:18:35.019Z,-0.0130,-0.9781,0.1520,0.0390,-0.1085,0.0361,-0.0232,0.0391,0.0199,-2.4881,1.4090,-3.0696
2024-10-11T12:18:35.029Z,-0.0094,-0.9820,0.1493,0.0390,-0.1085,0.0361,-0.0190,0.0323,0.0188,-2.4881,1.4090,-3.0696
2024-10-11T12:18:35.039Z,-0.0047,-0.9846,0.1492,0.0390,-0.1085,0.0361,-0.0171,0.0291,0.0165,-2.4881,1.4090,-3.0696
2024-10-11T12:18:35.049Z,-0.0074,-0.9825,0.1482,-0.0699,-0.0196,0.1202,-0.0171,0.0291,0.0165,-2.4920,1.4095,-3.0649
2024-10-11T12:18:35.060Z,0.0013,-0.9814,0.1486,-0.0699,-0.0196,0.1202,-0.0154,0.0189,0.0124,-2.4920,1.4095,-3.0649
2024-10-11T12:18:35.068Z,-0.0046,-0.9856,0.1498,-0.0699,-0.0196,0.1202,-0.0154,0.0189,0.0124,-2.4920,1.4095,-3.0649
2024-10-11T12:18:35.078Z,-0.0021,-0.9840,0.1485,-0.1040,-0.0256,0.1003,-0.0093,0.0131,0.0118,-2.4952,1.4098,-3.0613
2024-10-11T12:18:35.089Z,-0.0048,-0.9852,0.1498,-0.1040,-0.0256,0.1003,-0.0043,0.0022,0.0071,-2.4952,1.4098,-3.0613
2024-10-11T12:18:35.101Z,-0.0005,-0.9817,0.1504,-0.1154,-0.0396,0.0928,-0.0043,0.0022,0.0071,-2.4971,1.4100,-3.0597
2024-10-11T12:18:35.109Z,-0.0018,-0.9836,0.1518,-0.1154,-0.0396,0.0928,0.0002,-0.0117,0.0033,-2.4971,1.4100,-3.0597
2024-10-11T12:18:35.120Z,0.0015,-0.9834,0.1484,-0.1154,-0.0396,0.0928,0.0022,-0.0156,0.0008,-2.4971,1.4100,-3.0597
2024-10-11T12:18:35.129Z,0.0019,-0.9794,0.1499,-0.1154,-0.0396,0.0928,0.0055,-0.0222,0.0010,-2.4971,1.4100,-3.0597
2024-10-11T12:18:35.139Z,0.0003,-0.9788,0.1489,-0.1537,-0.0586,0.1006,0.0071,-0.0276,-0.0005,-2.4979,1.4100,-3.0595
2024-10-11T12:18:35.149Z,0.0031,-0.9784,0.1472,-0.1537,-0.0586,0.1006,0.0071,-0.0276,-0.0005,-2.4979,1.4100,-3.0595
2024-10-11T12:18:35.159Z,0.0028,-0.9769,0.1419,-0.1537,-0.0586,0.1006,0.0139,-0.0371,-0.0027,-2.4979,1.4100,-3.0595
2024-10-11T12:18:35.168Z,0.0031,-0.9761,0.1422,-0.1555,-0.0879,0.1567,0.0139,-0.0371,-0.0027,-2.4972,1.4098,-3.0613
2024-10-11T12:18:35.179Z,0.0055,-0.9758,0.1384,-0.1555,-0.0879,0.1567,0.0203,-0.0430,-0.0067,-2.4972,1.4098,-3.0613
2024-10-11T12:18:35.189Z,0.0061,-0.9772,0.1362,-0.1555,-0.0879,0.1567,0.0241,-0.0465,-0.0078,-2.4972,1.4098,-3.0613
2024-10-11T12:18:35.199Z,0.0120,-0.9800,0.1355,-0.1795,-0.1096,0.2399,0.0241,-0.0465,-0.0078,-2.4959,1.4093,-3.0642
2024-10-11T12:18:35.209Z,0.0152,-0.9823,0.1358,-0.1795,-0.1096,0.2399,0.0279,-0.0536,-0.0048,-2.4959,1.4093,-3.0642
2024-10-11T12:18:35.220Z,0.0181,-0.9821,0.1381,-0.2773,-0.0503,0.2325,0.0279,-0.0536,-0.0048,-2.4943,1.4085,-3.0676
2024-10-11T12:18:35.229Z,0.0198,-0.9842,0.1365,-0.2773,-0.0503,0.2325,0.0307,-0.0634,-0.0047,-2.4943,1.4085,-3.0676
2024-10-11T12:18:35.239Z,0.0169,-0.9876,0.1422,-0.2773,-0.0503,0.2325,0.0354,-0.0662,-0.0089,-2.4943,1.4085,-3.0676
2024-10-11T12:18:35.252Z,0.0166,-0.9852,0.1462,-0.2809,-0.0053,0.1616,0.0340,-0.0725,-0.0046,-2.4924,1.4076,-3.0717
2024-10-11T12:18:35.259Z,0.0119,-0.9852,0.1517,-0.2809,-0.0053,0.1616,0.0317,-0.0698,-0.0102,-2.4924,1.4076,-3.0717
2024-10-11T12:18:35.268Z,0.0118,-0.9856,0.1570,-0.2809,-0.0053,0.1616,0.0317,-0.0698,-0.0102,-2.4924,1.4076,-3.0717
2024-10-11T12:18:35.279Z,0.0138,-0.9867,0.1620,-0.2809,-0.0053,0.1616,0.0306,-0.0761,-0.0072,-2.4924,1.4076,-3.0717
2024-10-11T12:18:35.288Z,0.0129,-0.9884,0.1706,-0.2324,0.0036,0.0311,0.0278,-0.0776,-0.0060,-2.4905,1.4066,-3.0760
2024-10-11T12:18:35.299Z,0.0140,-0.9887,0.1767,-0.2324,0.0036,0.0311,0.0269,-0.0790,-0.0058,-2.4905,1.4066,-3.0760
2024-10-11T12:18:35.309Z,0.0134,-0.9883,0.1805,-0.2324,0.0036,0.0311,0.0220,-0.0813,-0.0093,-2.4905,1.4066,-3.0760
2024-10-11T12:18:35.319Z,0.0105,-0.9895,0.1801,-0.2414,0.0183,-0.1525,0.0218,-0.0841,-0.0065,-2.4891,1.4058,-3.0801
2024-10-11T12:18:35.329Z,0.0109,-0.9918,0.1775,-0.2414,0.0183,-0.1525,0.0188,-0.0835,-0.0058,-2.4891,1.4058,-3.0801
2024-10-11T12:18:35.339Z,0.0090,-0.9958,0.1790,-0.2414,0.0183,-0.1525,0.0154,-0.0839,-0.0056,-2.4891,1.4058,-3.0801
2024-10-11T12:18:35.350Z,0.0102,-0.9957,0.1790,-0.1732,0.0815,-0.1303,0.0106,-0.0851,-0.0031,-2.4880,1.4051,-3.0839
2024-10-11T12:18:35.358Z,0.0118,-1.0009,0.1783,-0.1732,0.0815,-0.1303,0.0091,-0.0859,-0.0041,-2.4880,1.4051,-3.0839
2024-10-11T12:18:35.369Z,0.0132,-1.0047,0.1754,-0.1732,0.0815,-0.1303,0.0076,-0.0877,0.0001,-2.4880,1.4051,-3.0839
2024-10-11T12:18:35.378Z,0.0117,-1.0076,0.1732,-0.2189,0.1756,-0.1090,0.0051,-0.0880,0.0010,-2.4876,1.4047,-3.0872
2024-10-11T12:18:35.389Z,0.0144,-1.0075,0.1741,-0.2189,0.1756,-0.1090,0.0014,-0.0857,0.0035,-2.4876,1.4047,-3.0872
2024-10-11T12:18:35.402Z,0.0141,-1.0069,0.1740,-0.2426,0.1984,-0.0826,-0.0003,-0.0822,0.0067,-2.4881,1.4046,-3.0895
2024-10-11T12:18:35.409Z,0.0117,-1.0061,0.1737,-0.2426,0.1984,-0.0826,-0.0043,-0.0857,0.0082,-2.4881,1.4046,-3.0895
2024-10-11T12:18:35.419Z,0.0144,-1.0043,0.1739,-0.2426,0.1984,-0.0826,-0.0066,-0.0867,0.0107,-2.4881,1.4046,-3.0895
2024-10-11T12:18:35.429Z,0.0120,-1.0011,0.1726,-0.2426,0.1984,-0.0826,-0.0091,-0.0847,0.0109,-2.4881,1.4046,-3.0895
2024-10-11T12:18:35.439Z,0.0117,-0.9977,0.1707,-0.2160,0.1649,-0.0819,-0.0130,-0.0852,0.0158,-2.4897,1.4047,-3.0907
2024-10-11T12:18:35.450Z,0.0114,-0.9936,0.1690,-0.2160,0.1649,-0.0819,-0.0129,-0.0846,0.0169,-2.4897,1.4047,-3.0907
2024-10-11T12:18:35.458Z,0.0107,-0.9920,0.1676,-0.2160,0.1649,-0.0819,-0.0138,-0.0868,0.0177,-2.4897,1.4047,-3.0907
2024-10-11T12:18:35.469Z,0.0082,-0.9881,0.1691,-0.1934,0.0632,-0.0319,-0.0181,-0.0855,0.0180,-2.4926,1.4050,-3.0907
2024-10-11T12:18:35.478Z,0.0042,-0.9867,0.1686,-0.1934,0.0632,-0.0319,-0.0209,-0.0899,0.0175,-2.4926,1.4050,-3.0907
2024-10-11T12:18:35.490Z,0.0007,-0.9863,0.1681,-0.1076,-0.0002,-0.0384,-0.0227,-0.0882,0.0192,-2.4962,1.4055,-3.0900
2024-10-11T12:18:35.501Z,-0.0008,-0.9841,0.1684,-0.1076,-0.0002,-0.0384,-0.0253,-0.0899,0.0176,-2.4962,1.4055,-3.0900
2024-10-11T12:18:35.508Z,-0.0040,-0.9838,0.1698,-0.1076,-0.0002,-0.0384,-0.0241,-0.0946,0.0212,-2.4962,1.4055,-3.0900
2024-10-11T12:18:35.519Z,-0.0051,-0.9800,0.1695,-0.0402,-0.0420,-0.0576,-0.0306,-0.0931,0.0194,-2.5000,1.4061,-3.0893
2024-10-11T12:18:35.528Z,-0.0175,-0.9774,0.1720,-0.0402,-0.0420,-0.0576,-0.0272,-0.0752,0.0181,-2.5000,1.4061,-3.0893
2024-10-11T12:18:35.538Z,-0.0355,-0.9824,0.1738,-0.0402,-0.0420,-0.0576,-0.0321,-0.0760,0.0205,-2.5000,1.4061,-3.0893
2024-10-11T12:18:35.551Z,-0.0150,-0.9854,0.1694,0.1941,-0.0007,-0.0899,-0.0319,-0.0760,0.0188,-2.5038,1.4070,-3.0882
2024-10-11T12:18:35.558Z,-0.0069,-0.9857,0.1604,0.1941,-0.0007,-0.0899,-0.0304,-0.0750,0.0197,-2.5038,1.4070,-3.0882
2024-10-11T12:18:35.569Z,-0.0188,-0.9861,0.1622,0.1941,-0.0007,-0.0899,-0.0305,-0.0748,0.0188,-2.5038,1.4070,-3.0882
2024-10-11T12:18:35.580Z,-0.0176,-0.9863,0.1630,0.0880,-0.0139,-0.0180,-0.0293,-0.0765,0.0203,-2.5078,1.4078,-3.0868
2024-10-11T12:18:35.588Z,-0.0145,-0.9911,0.1591,0.0880,-0.0139,-0.0180,-0.0296,-0.0797,0.0200,-2.5078,1.4078,-3.0868
2024-10-11T12:18:35.598Z,-0.0085,-0.9927,0.1597,0.0880,-0.0139,-0.0180,-0.0292,-0.0806,0.0191,-2.5078,1.4078,-3.0868
2024-10-11T12:18:35.608Z,-0.0150,-0.9983,0.1604,0.0880,-0.0139,-0.0180,-0.0280,-0.0791,0.0217,-2.5078,1.4078,-3.0868
2024-10-11T12:18:35.619Z,-0.0063,-1.0076,0.1642,0.0283,0.0744,-0.0001,-0.0275,-0.0736,0.0207,-2.5117,1.4087,-3.0854
2024-10-11T12:18:35.628Z,-0.0167,-1.0050,0.1646,0.0283,0.0744,-0.0001,-0.0279,-0.0733,0.0217,-2.5117,1.4087,-3.0854
2024-10-11T12:18:35.639Z,-0.0101,-1.0006,0.1635,0.0125,0.1521,-0.0398,-0.0259,-0.0711,0.0241,-2.5164,1.4095,-3.0833
2024-10-11T12:18:35.649Z,-0.0164,-0.9978,0.1674,0.0125,0.1521,-0.0398,-0.0235,-0.0728,0.0240,-2.5164,1.4095,-3.0833
2024-10-11T12:18:35.659Z,-0.0138,-0.9924,0.1671,0.0125,0.1521,-0.0398,-0.0239,-0.0727,0.0214,-2.5164,1.4095,-3.0833
2024-10-11T12:18:35.669Z,-0.0204,-0.9908,0.1659,0.0125,0.1521,-0.0398,-0.0219,-0.0752,0.0214,-2.5164,1.4095,-3.0833
2024-10-11T12:18:35.679Z,-0.0249,-0.9780,0.1620,0.0684,0.0479,-0.0730,-0.0189,-0.0760,0.0184,-2.5209,1.4101,-3.0812
2024-10-11T12:18:35.689Z,-0.0195,-0.9758,0.1621,0.0684,0.0479,-0.0730,-0.0193,-0.0731,0.0189,-2.5209,1.4101,-3.0812
2024-10-11T12:18:35.699Z,-0.0357,-0.9706,0.1596,0.2142,-0.1290,-0.0276,-0.0179,-0.0867,0.0192,-2.5252,1.4107,-3.0796
2024-10-11T12:18:35.708Z,-0.0149,-0.9695,0.1615,0.2142,-0.1290,-0.0276,-0.0141,-0.0791,0.0146,-2.5252,1.4107,-3.0796
2024-10-11T12:18:35.719Z,-0.0344,-0.9784,0.1605,0.2142,-0.1290,-0.0276,-0.0116,-0.0846,0.0174,-2.5252,1.4107,-3.0796
2024-10-11T12:18:35.729Z,-0.0182,-0.9758,0.1616,0.1706,-0.1025,-0.0253,-0.0137,-0.0809,0.0155,-2.5286,1.4110,-3.0789
2024-10-11T12:18:35.738Z,-0.0237,-0.9789,0.1611,0.1706,-0.1025,-0.0253,-0.0136,-0.0851,0.0171,-2.5286,1.4110,-3.0789
2024-10-11T12:18:35.748Z,-0.0232,-0.9786,0.1575,0.1706,-0.1025,-0.0253,-0.0101,-0.0856,0.0168,-2.5286,1.4110,-3.0789
2024-10-11T12:18:35.760Z,-0.0242,-0.9775,0.1525,0.1213,-0.1060,0.0353,-0.0061,-0.0833,0.0158,-2.5318,1.4113,-3.0785
2024-10-11T12:18:35.769Z,-0.0220,-0.9827,0.1520,0.1213,-0.1060,0.0353,-0.0053,-0.0811,0.0159,-2.5318,1.4113,-3.0785
2024-10-11T12:18:35.778Z,-0.0245,-0.9804,0.1496,0.1213,-0.1060,0.0353,-0.0033,-0.0824,0.0144,-2.5318,1.4113,-3.0785
2024-10-11T12:18:35.788Z,-0.0215,-0.9773,0.1485,0.0962,-0.0886,0.0904,-0.0033,-0.0824,0.0144,-2.5348,1.4114,-3.0782
2024-10-11T12:18:35.798Z,-0.0263,-0.9765,0.1494,0.0962,-0.0886,0.0904,-0.0030,-0.0837,0.0118,-2.5348,1.4114,-3.0782
2024-10-11T12:18:35.808Z,-0.0214,-0.9727,0.1530,0.0962,-0.0886,0.0904,-0.0022,-0.0824,0.0109,-2.5348,1.4114,-3.0782
2024-10-11T12:18:35.819Z,-0.0249,-0.9717,0.1571,0.1343,-0.1507,0.0245,-0.0022,-0.0824,0.0109,-2.5375,1.4115,-3.0782
2024-10-11T12:18:35.829Z,-0.0227,-0.9702,0.1593,0.1343,-0.1507,0.0245,-0.0021,-0.0823,0.0111,-2.5375,1.4115,-3.0782
2024-10-11T12:18:35.838Z,-0.0224,-0.9701,0.1581,0.1343,-0.1507,0.0245,-0.0034,-0.0781,0.0075,-2.5375,1.4115,-3.0782
2024-10-11T12:18:35.848Z,-0.0257,-0.9711,0.1563,0.1492,-0.1534,0.0155,-0.0008,-0.0768,0.0066,-2.5395,1.4115,-3.0789
2024-10-11T12:18:35.858Z,-0.0241,-0.9730,0.1567,0.1492,-0.1534,0.0155,0.0025,-0.0737,0.0060,-2.5395,1.4115,-3.0789
2024-10-11T12:18:35.868Z,-0.0241,-0.9758,0.1547,0.1492,-0.1534,0.0155,0.0025,-0.0737,0.0060,-2.5395,1.4115,-3.0789
2024-10-11T12:18:35.879Z,-0.0265,-0.9752,0.1541,0.1582,-0.1158,0.0371,0.0048,-0.0681,0.0069,-2.5409,1.4114,-3.0800
2024-10-11T12:18:35.889Z,-0.0208,-0.9799,0.1552,0.1582,-0.1158,0.0371,0.0081,-0.0622,0.0068,-2.5409,1.4114,-3.0800
2024-10-11T12:18:35.899Z,-0.0226,-0.9791,0.1538,0.1582,-0.1158,0.0371,0.0094,-0.0590,0.0043,-2.5409,1.4114,-3.0800
2024-10-11T12:18:35.908Z,-0.0245,-0.9821,0.1547,0.1582,-0.1158,0.0371,0.0116,-0.0536,0.0040,-2.5409,1.4114,-3.0800
2024-10-11T12:18:35.918Z,-0.0257,-0.9825,0.1553,0.1537,-0.0644,0.0408,0.0137,-0.0518,0.0041,-2.5419,1.4110,-3.0810
2024-10-11T12:18:35.928Z,-0.0253,-0.9845,0.1565,0.1537,-0.0644,0.0408,0.0180,-0.0462,0.0059,-2.5419,1.4110,-3.0810
2024-10-11T12:18:35.940Z,-0.0282,-0.9830,0.1594,0.1697,-0.0316,0.0083,0.0191,-0.0456,0.0037,-2.5429,1.4105,-3.0818
2024-10-11T12:18:35.948Z,-0.0277,-0.9828,0.1586,0.1697,-0.0316,0.0083,0.0166,-0.0418,0.0036,-2.5429,1.4105,-3.0818
2024-10-11T12:18:35.958Z,-0.0285,-0.9824,0.1604,0.1697,-0.0316,0.0083,0.0180,-0.0415,0.0027,-2.5429,1.4105,-3.0818
2024-10-11T12:18:35.968Z,-0.0291,-0.9835,0.1628,0.1862,-0.0471,-0.0182,0.0180,-0.0415,0.0027,-2.5435,1.4099,-3.0828
2024-10-11T12:18:35.978Z,-0.0310,-0.9859,0.1623,0.1862,-0.0471,-0.0182,0.0237,-0.0359,0.0002,-2.5435,1.4099,-3.0828
2024-10-11T12:18:35.988Z,-0.0273,-0.9874,0.1614,0.1862,-0.0471,-0.0182,0.0231,-0.0306,-0.0021,-2.5435,1.4099,-3.0828
2024-10-11T12:18:35.998Z,-0.0282,-0.9874,0.1624,0.1678,0.0030,-0.0157,0.0217,-0.0324,-0.0008,-2.5435,1.4093,-3.0840
2024-10-11T12:18:36.007Z,-0.0254,-0.9895,0.1619,0.1678,0.0030,-0.0157,0.0213,-0.0307,-0.0009,-2.5435,1.4093,-3.0840
2024-10-11T12:18:36.018Z,-0.0227,-0.9914,0.1606,0.1678,0.0030,-0.0157,0.0213,-0.0276,-0.0007,-2.5435,1.4093,-3.0840
2024-10-11T12:18:36.029Z,-0.0219,-0.9900,0.1616,0.1357,0.0360,0.0047,0.0203,-0.0242,0.0010,-2.5433,1.4086,-3.0854
2024-10-11T12:18:36.038Z,-0.0158,-0.9896,0.1633,0.1357,0.0360,0.0047,0.0217,-0.0230,0.0025,-2.5433,1.4086,-3.0854
2024-10-11T12:18:36.048Z,-0.0138,-0.9887,0.1661,0.1357,0.0360,0.0047,0.0252,-0.0204,0.0067,-2.5433,1.4086,-3.0854
2024-10-11T12:18:36.059Z,-0.0135,-0.9878,0.1661,0.0369,0.0156,-0.0403,0.0194,-0.0162,0.0054,-2.5438,1.4079,-3.0858
2024-10-11T12:18:36.069Z,-0.0141,-0.9881,0.1678,0.0369,0.0156,-0.0403,0.0190,-0.0106,0.0076,-2.5438,1.4079,-3.0858
2024-10-11T12:18:36.078Z,-0.0067,-0.9859,0.1672,0.0369,0.0156,-0.0403,0.0167,-0.0061,0.0118,-2.5438,1.4079,-3.0858
2024-10-11T12:18:36.089Z,-0.0066,-0.9842,0.1682,-0.0290,-0.0202,-0.0522,0.0196,0.0008,0.0131,-2.5456,1.4073,-3.0845
2024-10-11T12:18:36.098Z,-0.0057,-0.9833,0.1692,-0.0290,-0.0202,-0.0522,0.0143,0.0042,0.0152,-2.5456,1.4073,-3.0845
2024-10-11T12:18:36.108Z,-0.0037,-0.9861,0.1686,-0.0290,-0.0202,-0.0522,0.0158,0.0086,0.0157,-2.5456,1.4073,-3.0845
2024-10-11T12:18:36.119Z,-0.0028,-0.9873,0.1712,-0.0718,0.0083,-0.0786,0.0158,0.0086,0.0157,-2.5487,1.4068,-3.0816
2024-10-11T12:18:36.129Z,-0.0050,-0.9867,0.1693,-0.0718,0.0083,-0.0786,0.0125,0.0171,0.0186,-2.5487,1.4068,-3.0816
2024-10-11T12:18:36.138Z,-0.0058,-0.9885,0.1692,-0.0718,0.0083,-0.0786,0.0135,0.0167,0.0219,-2.5487,1.4068,-3.0816
2024-10-11T12:18:36.149Z,-0.0098,-0.9888,0.1701,-0.0136,0.0223,-0.0549,0.0131,0.0209,0.0228,-2.5525,1.4063,-3.0776
2024-10-11T12:18:36.158Z,-0.0126,-0.9906,0.1714,-0.0136,0.0223,-0.0549,0.0128,0.0234,0.0258,-2.5525,1.4063,-3.0776
2024-10-11T12:18:36.168Z,-0.0154,-0.9923,0.1740,-0.0136,0.0223,-0.0549,0.0093,0.0289,0.0231,-2.5525,1.4063,-3.0776
2024-10-11T12:18:36.178Z,-0.0162,-0.9908,0.1766,0.0397,0.0408,-0.1186,0.0072,0.0327,0.0248,-2.5567,1.4059,-3.0729
2024-10-11T12:18:36.188Z,-0.0204,-0.9928,0.1758,0.0397,0.0408,-0.1186,0.0050,0.0348,0.0228,-2.5567,1.4059,-3.0729
2024-10-11T12:18:36.198Z,-0.0213,-0.9919,0.1764,0.0397,0.0408,-0.1186,0.0053,0.0383,0.0239,-2.5567,1.4059,-3.0729
2024-10-11T12:18:36.208Z,-0.0209,-0.9913,0.1788,0.0882,0.0451,-0.1275,-0.0008,0.0421,0.0190,-2.5607,1.4057,-3.0681
2024-10-11T12:18:36.219Z,-0.0181,-0.9900,0.1805,0.0882,0.0451,-0.1275,-0.0017,0.0451,0.0211,-2.5607,1.4057,-3.0681
2024-10-11T12:18:36.228Z,-0.0146,-0.9923,0.1806,0.0882,0.0451,-0.1275,-0.0050,0.0487,0.0225,-2.5607,1.4057,-3.0681
2024-10-11T12:18:36.238Z,-0.0166,-0.9958,0.1795,0.0249,0.0889,-0.1540,-0.0074,0.0468,0.0203,-2.5647,1.4057,-3.0630
2024-10-11T12:18:36.248Z,-0.0100,-0.9965,0.1818,0.0249,0.0889,-0.1540,-0.0113,0.0444,0.0185,-2.5647,1.4057,-3.0630
2024-10-11T12:18:36.258Z,-0.0065,-0.9938,0.1799,0.0249,0.0889,-0.1540,-0.0147,0.0447,0.0178,-2.5647,1.4057,-3.0630
2024-10-11T12:18:36.270Z,-0.0087,-0.9973,0.1777,-0.0417,0.0938,-0.1483,-0.0156,0.0410,0.0190,-2.5687,1.4059,-3.0580
2024-10-11T12:18:36.278Z,-0.0046,-0.9978,0.1776,-0.0417,0.0938,-0.1483,-0.0165,0.0425,0.0191,-2.5687,1.4059,-3.0580
2024-10-11T12:18:36.288Z,-0.0064,-0.9993,0.1783,-0.0417,0.0938,-0.1483,-0.0178,0.0419,0.0171,-2.5687,1.4059,-3.0580
2024-10-11T12:18:36.299Z,-0.0063,-0.9981,0.1755,-0.0758,0.1137,-0.1308,-0.0152,0.0418,0.0185,-2.5727,1.4063,-3.0531
2024-10-11T12:18:36.308Z,-0.0063,-0.9982,0.1750,-0.0758,0.1137,-0.1308,-0.0197,0.0398,0.0160,-2.5727,1.4063,-3.0531
2024-10-11T12:18:36.320Z,-0.0074,-0.9982,0.1721,-0.0758,0.1137,-0.1308,-0.0189,0.0343,0.0166,-2.5727,1.4063,-3.0531
2024-10-11T12:18:36.329Z,-0.0065,-0.9945,0.1692,-0.0859,0.0921,-0.0773,-0.0191,0.0293,0.0158,-2.5763,1.4068,-3.0486
2024-10-11T12:18:36.338Z,-0.0093,-0.9922,0.1670,-0.0859,0.0921,-0.0773,-0.0216,0.0247,0.0153,-2.5763,1.4068,-3.0486
2024-10-11T12:18:36.349Z,-0.0092,-0.9920,0.1639,-0.0859,0.0921,-0.0773,-0.0205,0.0195,0.0159,-2.5763,1.4068,-3.0486
2024-10-11T12:18:36.359Z,-0.0093,-0.9921,0.1608,-0.0663,0.0491,0.0067,-0.0184,0.0124,0.0112,-2.5792,1.4073,-3.0453
2024-10-11T12:18:36.368Z,-0.0098,-0.9891,0.1590,-0.0663,0.0491,0.0067,-0.0172,0.0110,0.0125,-2.5792,1.4073,-3.0453
2024-10-11T12:18:36.378Z,-0.0084,-0.9854,0.1573,-0.0663,0.0491,0.0067,-0.0188,0.0026,0.0119,-2.5792,1.4073,-3.0453
2024-10-11T12:18:36.389Z,-0.0135,-0.9829,0.1566,-0.0382,-0.0234,0.0437,-0.0137,0.0015,0.0121,-2.5818,1.4078,-3.0428
2024-10-11T12:18:36.398Z,-0.0161,-0.9799,0.1558,-0.0382,-0.0234,0.0437,-0.0140,-0.0077,0.0101,-2.5818,1.4078,-3.0428
2024-10-11T12:18:36.408Z,-0.0176,-0.9805,0.1537,-0.0382,-0.0234,0.0437,-0.0127,-0.0090,0.0077,-2.5818,1.4078,-3.0428
2024-10-11T12:18:36.418Z,-0.0205,-0.9773,0.1515,0.0323,-0.0799,0.0898,-0.0126,-0.0153,0.0055,-2.5836,1.4081,-3.0414
2024-10-11T12:18:36.428Z,-0.0221,-0.9752,0.1513,0.0323,-0.0799,0.0898,-0.0146,-0.0150,0.0042,-2.5836,1.4081,-3.0414
2024-10-11T12:18:36.438Z,-0.0204,-0.9739,0.1494,0.0323,-0.0799,0.0898,-0.0137,-0.0200,0.0014,-2.5836,1.4081,-3.0414
2024-10-11T12:18:36.448Z,-0.0177,-0.9731,0.1467,0.0075,-0.1328,0.1336,-0.0122,-0.0251,0.0017,-2.5846,1.4085,-3.0413
2024-10-11T12:18:36.458Z,-0.0208,-0.9738,0.1462,0.0075,-0.1328,0.1336,-0.0115,-0.0323,0.0005,-2.5846,1.4085,-3.0413
2024-10-11T12:18:36.468Z,-0.0207,-0.9740,0.1411,0.0075,-0.1328,0.1336,-0.0114,-0.0318,-0.0013,-2.5846,1.4085,-3.0413
2024-10-11T12:18:36.478Z,-0.0225,-0.9723,0.1404,0.0576,-0.1352,0.1977,-0.0118,-0.0310,-0.0047,-2.5848,1.4088,-3.0422
2024-10-11T12:18:36.488Z,-0.0239,-0.9762,0.1379,0.0576,-0.1352,0.1977,-0.0095,-0.0317,-0.0041,-2.5848,1.4088,-3.0422
2024-10-11T12:18:36.498Z,-0.0252,-0.9787,0.1385,0.0576,-0.1352,0.1977,-0.0082,-0.0326,-0.0036,-2.5848,1.4088,-3.0422
2024-10-11T12:18:36.508Z,-0.0262,-0.9790,0.1404,0.0948,-0.0720,0.1940,-0.0088,-0.0340,-0.0078,-2.5845,1.4091,-3.0437
2024-10-11T12:18:36.519Z,-0.0282,-0.9796,0.1395,0.0948,-0.0720,0.1940,-0.0070,-0.0370,-0.0055,-2.5845,1.4091,-3.0437
2024-10-11T12:18:36.528Z,-0.0291,-0.9825,0.1407,0.0948,-0.0720,0.1940,-0.0050,-0.0350,-0.0076,-2.5845,1.4091,-3.0437
2024-10-11T12:18:36.539Z,-0.0311,-0.9839,0.1381,0.1508,-0.0340,0.2062,-0.0023,-0.0354,-0.0118,-2.5834,1.4093,-3.0461
2024-10-11T12:18:36.548Z,-0.0330,-0.9837,0.1370,0.1508,-0.0340,0.2062,-0.0015,-0.0369,-0.0116,-2.5834,1.4093,-3.0461
2024-10-11T12:18:36.558Z,-0.0320,-0.9825,0.1374,0.1508,-0.0340,0.2062,0.0007,-0.0367,-0.0141,-2.5834,1.4093,-3.0461
2024-10-11T12:18:36.570Z,-0.0326,-0.9817,0.1398,0.1718,-0.0470,0.2033,0.0032,-0.0343,-0.0161,-2.5814,1.4094,-3.0494
2024-10-11T12:18:36.578Z,-0.0312,-0.9829,0.1402,0.1718,-0.0470,0.2033,0.0024,-0.0318,-0.0175,-2.5814,1.4094,-3.0494
2024-10-11T12:18:36.588Z,-0.0293,-0.9848,0.1421,0.1718,-0.0470,0.2033,0.0068,-0.0294,-0.0167,-2.5814,1.4094,-3.0494
2024-10-11T12:18:36.598Z,-0.0315,-0.9829,0.1452,0.1647,-0.0308,0.1601,0.0098,-0.0293,-0.0152,-2.5788,1.4093,-3.0532
2024-10-11T12:18:36.608Z,-0.0283,-0.9841,0.1470,0.1647,-0.0308,0.1601,0.0106,-0.0265,-0.0170,-2.5788,1.4093,-3.0532
2024-10-11T12:18:36.618Z,-0.0251,-0.9859,0.1470,0.1647,-0.0308,0.1601,0.0134,-0.0244,-0.0176,-2.5788,1.4093,-3.0532
2024-10-11T12:18:36.628Z,-0.0248,-0.9885,0.1483,0.1107,0.0028,0.1291,0.0114,-0.0232,-0.0171,-2.5763,1.4091,-3.0566
2024-10-11T12:18:36.638Z,-0.0242,-0.9893,0.1534,0.1107,0.0028,0.1291,0.0131,-0.0234,-0.0184,-2.5763,1.4091,-3.0566
2024-10-11T12:18:36.648Z,-0.0244,-0.9883,0.1555,0.1107,0.0028,0.1291,0.0115,-0.0192,-0.0174,-2.5763,1.4091,-3.0566
2024-10-11T12:18:36.658Z,-0.0256,-0.9911,0.1587,0.1264,0.0261,0.0273,0.0144,-0.0173,-0.0202,-2.5733,1.4088,-3.0605
2024-10-11T12:18:36.669Z,-0.0240,-0.9923,0.1593,0.1264,0.0261,0.0273,0.0131,-0.0141,-0.0212,-2.5733,1.4088,-3.0605
2024-10-11T12:18:36.678Z,-0.0261,-0.9906,0.1597,0.1264,0.0261,0.0273,0.0130,-0.0136,-0.0187,-2.5733,1.4088,-3.0605
2024-10-11T12:18:36.688Z,-0.0258,-0.9896,0.1609,0.1337,0.0166,0.0056,0.0122,-0.0119,-0.0207,-2.5699,1.4085,-3.0646
2024-10-11T12:18:36.698Z,-0.0261,-0.9898,0.1615,0.1337,0.0166,0.0056,0.0104,-0.0125,-0.0214,-2.5699,1.4085,-3.0646
2024-10-11T12:18:36.708Z,-0.0244,-0.9890,0.1608,0.1337,0.0166,0.0056,0.0127,-0.0098,-0.0219,-2.5699,1.4085,-3.0646
2024-10-11T12:18:36.719Z,-0.0221,-0.9910,0.1617,0.1124,0.0370,-0.0025,0.0144,-0.0072,-0.0226,-2.5662,1.4082,-3.0687
2024-10-11T12:18:36.728Z,-0.0228,-0.9924,0.1623,0.1124,0.0370,-0.0025,0.0130,-0.0078,-0.0190,-2.5662,1.4082,-3.0687
2024-10-11T12:18:36.738Z,-0.0198,-0.9939,0.1623,0.1124,0.0370,-0.0025,0.0097,0.0008,-0.0199,-2.5662,1.4082,-3.0687
2024-10-11T12:18:36.748Z,-0.0175,-0.9938,0.1665,0.0621,0.0658,-0.0237,0.0097,0.0063,-0.0168,-2.5628,1.4079,-3.0725
2024-10-11T12:18:36.758Z,-0.0224,-0.9954,0.1687,0.0621,0.0658,-0.0237,0.0098,0.0070,-0.0178,-2.5628,1.4079,-3.0725
2024-10-11T12:18:36.769Z,-0.0138,-0.9936,0.1666,0.0621,0.0658,-0.0237,0.0106,0.0140,-0.0152,-2.5628,1.4079,-3.0725
2024-10-11T12:18:36.778Z,-0.0151,-0.9943,0.1693,0.0003,0.0649,-0.0635,0.0064,0.0177,-0.0166,-2.5599,1.4076,-3.0752
2024-10-11T12:18:36.788Z,-0.0160,-0.9947,0.1688,0.0003,0.0649,-0.0635,0.0047,0.0238,-0.0137,-2.5599,1.4076,-3.0752
2024-10-11T12:18:36.799Z,-0.0141,-0.9904,0.1699,0.0003,0.0649,-0.0635,0.0018,0.0249,-0.0140,-2.5599,1.4076,-3.0752
2024-10-11T12:18:36.808Z,-0.0121,-0.9877,0.1681,0.0376,0.0197,-0.0629,0.0016,0.0258,-0.0125,-2.5577,1.4075,-3.0769
2024-10-11T12:18:36.818Z,-0.0127,-0.9867,0.1684,0.0376,0.0197,-0.0629,-0.0016,0.0263,-0.0127,-2.5577,1.4075,-3.0769
2024-10-11T12:18:36.828Z,-0.0175,-0.9864,0.1696,0.0376,0.0197,-0.0629,-0.0045,0.0296,-0.0107,-2.5577,1.4075,-3.0769
2024-10-11T12:18:36.838Z,-0.0165,-0.9829,0.1698,0.0707,-0.0309,-0.0735,-0.0048,0.0284,-0.0145,-2.5558,1.4076,-3.0783
2024-10-11T12:18:36.848Z,-0.0193,-0.9855,0.1699,0.0707,-0.0309,-0.0735,-0.0066,0.0338,-0.0151,-2.5558,1.4076,-3.0783
2024-10-11T12:18:36.858Z,-0.0193,-0.9848,0.1695,0.0707,-0.0309,-0.0735,-0.0123,0.0349,-0.0145,-2.5558,1.4076,-3.0783
2024-10-11T12:18:36.868Z,-0.0184,-0.9860,0.1689,0.0748,-0.0166,-0.0710,-0.0143,0.0353,-0.0140,-2.5535,1.4078,-3.0798
2024-10-11T12:18:36.878Z,-0.0157,-0.9881,0.1690,0.0748,-0.0166,-0.0710,-0.0105,0.0364,-0.0147,-2.5535,1.4078,-3.0798
2024-10-11T12:18:36.888Z,-0.0131,-0.9887,0.1682,0.0748,-0.0166,-0.0710,-0.0152,0.0373,-0.0126,-2.5535,1.4078,-3.0798
2024-10-11T12:18:36.898Z,-0.0106,-0.9912,0.1689,0.0220,0.0370,-0.0669,-0.0128,0.0383,-0.0124,-2.5510,1.4082,-3.0814
2024-10-11T12:18:36.908Z,-0.0079,-0.9915,0.1672,0.0220,0.0370,-0.0669,-0.0102,0.0384,-0.0134,-2.5510,1.4082,-3.0814
2024-10-11T12:18:36.918Z,-0.0080,-0.9934,0.1652,0.0220,0.0370,-0.0669,-0.0142,0.0409,-0.0131,-2.5510,1.4082,-3.0814
2024-10-11T12:18:36.928Z,-0.0071,-0.9933,0.1677,-0.0148,0.0587,-0.0609,-0.0136,0.0415,-0.0130,-2.5490,1.4085,-3.0824
2024-10-11T12:18:36.938Z,-0.0060,-0.9933,0.1653,-0.0148,0.0587,-0.0609,-0.0130,0.0424,-0.0111,-2.5490,1.4085,-3.0824
2024-10-11T12:18:36.948Z,-0.0052,-0.9923,0.1654,-0.0148,0.0587,-0.0609,-0.0149,0.0470,-0.0097,-2.5490,1.4085,-3.0824
2024-10-11T12:18:36.958Z,-0.0042,-0.9885,0.1652,-0.0379,0.0257,-0.0402,-0.0175,0.0501,-0.0112,-2.5473,1.4089,-3.0830
2024-10-11T12:18:36.968Z,-0.0011,-0.9888,0.1642,-0.0379,0.0257,-0.0402,-0.0127,0.0518,-0.0107,-2.5473,1.4089,-3.0830
2024-10-11T12:18:36.978Z,-0.0025,-0.9907,0.1646,-0.0379,0.0257,-0.0402,-0.0181,0.0549,-0.0079,-2.5473,1.4089,-3.0830
2024-10-11T12:18:36.988Z,-0.0031,-0.9908,0.1656,-0.0649,0.0434,-0.0517,-0.0142,0.0548,-0.0087,-2.5459,1.4094,-3.0830
2024-10-11T12:18:36.998Z,-0.0012,-0.9919,0.1654,-0.0649,0.0434,-0.0517,-0.0141,0.0570,-0.0075,-2.5459,1.4094,-3.0830
2024-10-11T12:18:37.009Z,-0.0042,-0.9909,0.1628,-0.0649,0.0434,-0.0517,-0.0158,0.0578,-0.0059,-2.5459,1.4094,-3.0830
2024-10-11T12:18:37.020Z,-0.0025,-0.9911,0.1645,-0.0641,0.0387,-0.0407,-0.0143,0.0559,-0.0056,-2.5448,1.4098,-3.0826
2024-10-11T12:18:37.028Z,-0.0059,-0.9915,0.1621,-0.0641,0.0387,-0.0407,-0.0140,0.0541,-0.0053,-2.5448,1.4098,-3.0826
2024-10-11T12:18:37.039Z,-0.0074,-0.9900,0.1617,-0.0641,0.0387,-0.0407,-0.0150,0.0545,-0.0060,-2.5448,1.4098,-3.0826
2024-10-11T12:18:37.048Z,-0.0085,-0.9879,0.1618,-0.0118,0.0173,-0.0146,-0.0145,0.0551,-0.0059,-2.5438,1.4101,-3.0823
2024-10-11T12:18:37.058Z,-0.0078,-0.9855,0.1613,-0.0118,0.0173,-0.0146,-0.0141,0.0508,-0.0075,-2.5438,1.4101,-3.0823
2024-10-11T12:18:37.069Z,-0.0110,-0.9839,0.1596,-0.0118,0.0173,-0.0146,-0.0133,0.0509,-0.0062,-2.5438,1.4101,-3.0823
2024-10-11T12:18:37.078Z,-0.0122,-0.9809,0.1609,0.0282,-0.0519,-0.0089,-0.0125,0.0473,-0.0056,-2.5419,1.4105,-3.0829
2024-10-11T12:18:37.088Z,-0.0135,-0.9818,0.1615,0.0282,-0.0519,-0.0089,-0.0122,0.0491,-0.0086,-2.5419,1.4105,-3.0829
2024-10-11T12:18:37.098Z,-0.0137,-0.9843,0.1587,0.0282,-0.0519,-0.0089,-0.0120,0.0456,-0.0101,-2.5419,1.4105,-3.0829
2024-10-11T12:18:37.108Z,-0.0135,-0.9849,0.1609,0.0375,-0.0285,-0.0212,-0.0108,0.0457,-0.0112,-2.5401,1.4108,-3.0835
2024-10-11T12:18:37.118Z,-0.0128,-0.9823,0.1589,0.0375,-0.0285,-0.0212,-0.0116,0.0460,-0.0118,-2.5401,1.4108,-3.0835
2024-10-11T12:18:37.128Z,-0.0106,-0.9803,0.1567,0.0375,-0.0285,-0.0212,-0.0125,0.0412,-0.0125,-2.5401,1.4108,-3.0835
2024-10-11T12:18:37.138Z,-0.0128,-0.9826,0.1584,0.0288,-0.0571,0.0166,-0.0090,0.0404,-0.0133,-2.5382,1.4111,-3.0844
2024-10-11T12:18:37.150Z,-0.0121,-0.9836,0.1549,0.0288,-0.0571,0.0166,-0.0079,0.0368,-0.0139,-2.5382,1.4111,-3.0844
2024-10-11T12:18:37.158Z,-0.0121,-0.9836,0.1549,0.0288,-0.0571,0.0166,-0.0059,0.0370,-0.0113,-2.5382,1.4111,-3.0844
2024-10-11T12:18:37.169Z,-0.0116,-0.9839,0.1560,0.0373,-0.0268,0.0380,-0.0052,0.0376,-0.0140,-2.5358,1.4114,-3.0859
2024-10-11T12:18:37.178Z,-0.0084,-0.9830,0.1570,0.0373,-0.0268,0.0380,-0.0049,0.0346,-0.0162,-2.5358,1.4114,-3.0859
2024-10-11T12:18:37.188Z,-0.0106,-0.9827,0.1547,0.0373,-0.0268,0.0380,-0.0037,0.0326,-0.0161,-2.5358,1.4114,-3.0859
2024-10-11T12:18:37.199Z,-0.0073,-0.9751,0.1595,0.0260,-0.0525,0.0221,-0.0029,0.0318,-0.0134,-2.5340,1.4115,-3.0869
2024-10-11T12:18:37.209Z,-0.0085,-0.9756,0.1576,0.0260,-0.0525,0.0221,-0.0057,0.0302,-0.0158,-2.5340,1.4115,-3.0869
2024-10-11T12:18:37.220Z,-0.0085,-0.9756,0.1576,0.0260,-0.0525,0.0221,-0.0046,0.0310,-0.0148,-2.5340,1.4115,-3.0869
2024-10-11T12:18:37.229Z,-0.0054,-0.9763,0.1564,-0.0146,-0.1021,0.0169,-0.0020,0.0307,-0.0158,-2.5317,1.4116,-3.0884
2024-10-11T12:18:37.238Z,-0.0044,-0.9776,0.1559,-0.0146,-0.1021,0.0169,-0.0022,0.0311,-0.0152,-2.5317,1.4116,-3.0884
2024-10-11T12:18:37.250Z,-0.0013,-0.9834,0.1485,-0.0146,-0.1021,0.0169,0.0001,0.0301,-0.0153,-2.5317,1.4116,-3.0884
2024-10-11T12:18:37.260Z,0.0004,-0.9824,0.1473,-0.0543,-0.0490,0.0911,0.0038,0.0308,-0.0162,-2.5292,1.4116,-3.0902
2024-10-11T12:18:37.269Z,0.0004,-0.9824,0.1473,-0.0543,-0.0490,0.0911,0.0069,0.0313,-0.0127,-2.5292,1.4116,-3.0902
2024-10-11T12:18:37.280Z,-0.0002,-0.9806,0.1441,-0.0543,-0.0490,0.0911,0.0073,0.0321,-0.0114,-2.5292,1.4116,-3.0902
2024-10-11T12:18:37.290Z,0.0018,-0.9767,0.1449,-0.0761,-0.0496,0.1330,0.0086,0.0302,-0.0109,-2.5270,1.4114,-3.0917
2024-10-11T12:18:37.300Z,-0.0005,-0.9764,0.1417,-0.0761,-0.0496,0.1330,0.0102,0.0319,-0.0119,-2.5270,1.4114,-3.0917
2024-10-11T12:18:37.308Z,-0.0005,-0.9764,0.1417,-0.0761,-0.0496,0.1330,0.0127,0.0324,-0.0109,-2.5270,1.4114,-3.0917
2024-10-11T12:18:37.319Z,-0.0018,-0.9738,0.1433,-0.0694,-0.1254,0.1550,0.0132,0.0347,-0.0114,-2.5251,1.4111,-3.0929
2024-10-11T12:18:37.329Z,-0.0000,-0.9697,0.1460,-0.0694,-0.1254,0.1550,0.0136,0.0347,-0.0080,-2.5251,1.4111,-3.0929
2024-10-11T12:18:37.340Z,0.0005,-0.9704,0.1464,-0.0694,-0.1254,0.1550,0.0178,0.0342,-0.0094,-2.5251,1.4111,-3.0929
2024-10-11T12:18:37.349Z,-0.0003,-0.9734,0.1462,-0.0736,-0.1667,0.1427,0.0191,0.0347,-0.0092,-2.5232,1.4106,-3.0939
2024-10-11T12:18:37.359Z,-0.0010,-0.9777,0.1439,-0.0736,-0.1667,0.1427,0.0178,0.0330,-0.0086,-2.5232,1.4106,-3.0939
2024-10-11T12:18:37.369Z,-0.0010,-0.9777,0.1439,-0.0736,-0.1667,0.1427,0.0209,0.0304,-0.0067,-2.5232,1.4106,-3.0939
2024-10-11T12:18:37.379Z,-0.0014,-0.9855,0.1427,-0.0744,-0.0675,0.1752,0.0208,0.0317,-0.0069,-2.5214,1.4101,-3.0950
2024-10-11T12:18:37.388Z,-0.0017,-0.9904,0.1397,-0.0744,-0.0675,0.1752,0.0272,0.0281,-0.0084,-2.5214,1.4101,-3.0950
2024-10-11T12:18:37.399Z,-0.0001,-0.9936,0.1415,-0.0744,-0.0675,0.1752,0.0280,0.0322,-0.0076,-2.5214,1.4101,-3.0950
2024-10-11T12:18:37.409Z,0.0015,-0.9952,0.1448,-0.0658,0.0575,0.1993,0.0292,0.0300,-0.0078,-2.5197,1.4094,-3.0960
2024-10-11T12:18:37.420Z,0.0033,-0.9964,0.1455,-0.0658,0.0575,0.1993,0.0319,0.0287,-0.0069,-2.5197,1.4094,-3.0960
2024-10-11T12:18:37.429Z,0.0033,-0.9951,0.1470,-0.0658,0.0575,0.1993,0.0327,0.0279,-0.0048,-2.5197,1.4094,-3.0960
2024-10-11T12:18:37.439Z,0.0033,-0.9951,0.1470,-0.1094,0.0801,0.1485,0.0335,0.0276,-0.0050,-2.5184,1.4084,-3.0967
2024-10-11T12:18:37.449Z,0.0022,-0.9905,0.1536,-0.1094,0.0801,0.1485,0.0300,0.0287,-0.0036,-2.5184,1.4084,-3.0967
2024-10-11T12:18:37.459Z,0.0045,-0.9882,0.1552,-0.1094,0.0801,0.1485,0.0326,0.0265,-0.0028,-2.5184,1.4084,-3.0967
2024-10-11T12:18:37.472Z,0.0065,-0.9871,0.1557,-0.1000,0.0242,0.0689,0.0316,0.0281,-0.0015,-2.5176,1.4075,-3.0969
2024-10-11T12:18:37.479Z,0.0074,-0.9861,0.1589,-0.1000,0.0242,0.0689,0.0308,0.0261,0.0014,-2.5176,1.4075,-3.0969
2024-10-11T12:18:37.489Z,0.0085,-0.9876,0.1629,-0.1000,0.0242,0.0689,0.0294,0.0280,0.0015,-2.5176,1.4075,-3.0969
2024-10-11T12:18:37.499Z,0.0092,-0.9885,0.1669,-0.1541,0.0051,0.0188,0.0280,0.0281,0.0031,-2.5175,1.4066,-3.0964
2024-10-11T12:18:37.509Z,0.0085,-0.9880,0.1705,-0.1541,0.0051,0.0188,0.0263,0.0280,0.0058,-2.5175,1.4066,-3.0964
2024-10-11T12:18:37.520Z,0.0053,-0.9871,0.1703,-0.1541,0.0051,0.0188,0.0260,0.0290,0.0043,-2.5175,1.4066,-3.0964
2024-10-11T12:18:37.529Z,0.0056,-0.9837,0.1749,-0.1490,0.0064,-0.0614,0.0251,0.0291,0.0067,-2.5182,1.4058,-3.0952
2024-10-11T12:18:37.539Z,0.0023,-0.9800,0.1741,-0.1490,0.0064,-0.0614,0.0207,0.0255,0.0063,-2.5182,1.4058,-3.0952
2024-10-11T12:18:37.548Z,0.0018,-0.9778,0.1749,-0.1490,0.0064,-0.0614,0.0213,0.0281,0.0078,-2.5182,1.4058,-3.0952
2024-10-11T12:18:37.559Z,0.0018,-0.9778,0.1749,-0.0860,-0.0788,-0.1022,0.0157,0.0245,0.0082,-2.5193,1.4052,-3.0936
2024-10-11T12:18:37.571Z,0.0005,-0.9764,0.1800,-0.0860,-0.0788,-0.1022,0.0140,0.0233,0.0053,-2.5193,1.4052,-3.0936
2024-10-11T12:18:37.579Z,0.0019,-0.9738,0.1804,-0.0860,-0.0788,-0.1022,0.0134,0.0176,0.0101,-2.5193,1.4052,-3.0936
2024-10-11T12:18:37.589Z,0.0051,-0.9757,0.1791,-0.0895,-0.1175,-0.1448,0.0094,0.0183,0.0070,-2.5205,1.4048,-3.0920
2024-10-11T12:18:37.598Z,0.0083,-0.9783,0.1791,-0.0895,-0.1175,-0.1448,0.0043,0.0164,0.0086,-2.5205,1.4048,-3.0920
2024-10-11T12:18:37.608Z,0.0082,-0.9826,0.1788,-0.0895,-0.1175,-0.1448,0.0094,0.0133,0.0094,-2.5205,1.4048,-3.0920
2024-10-11T12:18:37.620Z,0.0075,-0.9896,0.1780,-0.1685,-0.0561,-0.1341,0.0031,0.0109,0.0124,-2.5220,1.4045,-3.0904
2024-10-11T12:18:37.629Z,0.0079,-0.9953,0.1773,-0.1685,-0.0561,-0.1341,0.0061,0.0091,0.0130,-2.5220,1.4045,-3.0904
2024-10-11T12:18:37.639Z,0.0054,-1.0002,0.1776,-0.1685,-0.0561,-0.1341,0.0046,0.0039,0.0137,-2.5220,1.4045,-3.0904
2024-10-11T12:18:37.649Z,0.0039,-1.0067,0.1756,-0.1516,0.1269,-0.1239,0.0046,0.0061,0.0158,-2.5245,1.4042,-3.0880
2024-10-11T12:18:37.659Z,0.0032,-1.0088,0.1770,-0.1516,0.1269,-0.1239,0.0029,0.0040,0.0163,-2.5245,1.4042,-3.0880
2024-10-11T12:18:37.668Z,0.0019,-1.0119,0.1776,-0.1516,0.1269,-0.1239,0.0064,0.0015,0.0177,-2.5245,1.4042,-3.0880
2024-10-11T12:18:37.678Z,-0.0017,-1.0121,0.1754,-0.1251,0.2379,-0.1231,0.0037,0.0012,0.0190,-2.5277,1.4041,-3.0850
2024-10-11T12:18:37.688Z,-0.0041,-1.0145,0.1761,-0.1251,0.2379,-0.1231,0.0037,-0.0007,0.0177,-2.5277,1.4041,-3.0850
2024-10-11T12:18:37.699Z,-0.0081,-1.0162,0.1766,-0.1251,0.2379,-0.1231,0.0014,-0.0025,0.0186,-2.5277,1.4041,-3.0850
2024-10-11T12:18:37.708Z,-0.0097,-1.0180,0.1725,-0.0263,0.2960,-0.1152,0.0042,-0.0000,0.0203,-2.5309,1.4039,-3.0822
2024-10-11T12:18:37.720Z,-0.0092,-1.0215,0.1725,-0.0263,0.2960,-0.1152,0.0057,0.0001,0.0207,-2.5309,1.4039,-3.0822
2024-10-11T12:18:37.728Z,-0.0124,-1.0224,0.1731,-0.0263,0.2960,-0.1152,0.0021,-0.0015,0.0183,-2.5309,1.4039,-3.0822
2024-10-11T12:18:37.739Z,-0.0105,-1.0281,0.1736,0.0141,0.3462,-0.0702,0.0030,-0.0040,0.0186,-2.5341,1.4037,-3.0793
2024-10-11T12:18:37.749Z,-0.0098,-1.0312,0.1763,0.0141,0.3462,-0.0702,0.0011,-0.0056,0.0164,-2.5341,1.4037,-3.0793
2024-10-11T12:18:37.758Z,-0.0089,-1.0320,0.1782,0.0141,0.3462,-0.0702,0.0018,-0.0089,0.0203,-2.5341,1.4037,-3.0793
2024-10-11T12:18:37.770Z,-0.0063,-1.0285,0.1787,-0.0096,0.4417,-0.1145,0.0015,-0.0110,0.0223,-2.5375,1.4036,-3.0765
2024-10-11T12:18:37.778Z,-0.0086,-1.0257,0.1785,-0.0096,0.4417,-0.1145,-0.0001,-0.0129,0.0227,-2.5375,1.4036,-3.0765
2024-10-11T12:18:37.789Z,-0.0074,-1.0202,0.1794,-0.0096,0.4417,-0.1145,-0.0019,-0.0165,0.0241,-2.5375,1.4036,-3.0765
2024-10-11T12:18:37.798Z,-0.0090,-1.0188,0.1803,-0.0420,0.3524,-0.1295,-0.0077,-0.0216,0.0230,-2.5415,1.4036,-3.0732
2024-10-11T12:18:37.808Z,-0.0081,-1.0130,0.1811,-0.0420,0.3524,-0.1295,-0.0131,-0.0227,0.0236,-2.5415,1.4036,-3.0732
2024-10-11T12:18:37.818Z,-0.0096,-1.0079,0.1823,-0.0420,0.3524,-0.1295,-0.0139,-0.0247,0.0252,-2.5415,1.4036,-3.0732
2024-10-11T12:18:37.828Z,-0.0138,-1.0045,0.1831,-0.0391,0.2254,-0.1561,-0.0199,-0.0275,0.0239,-2.5460,1.4039,-3.0697
2024-10-11T12:18:37.838Z,-0.0138,-1.0045,0.1831,-0.0391,0.2254,-0.1561,-0.0267,-0.0275,0.0254,-2.5460,1.4039,-3.0697
2024-10-11T12:18:37.848Z,-0.0172,-0.9970,0.1821,-0.0391,0.2254,-0.1561,-0.0261,-0.0287,0.0255,-2.5460,1.4039,-3.0697
2024-10-11T12:18:37.858Z,-0.0178,-0.9922,0.1818,0.0352,0.1218,-0.1703,-0.0302,-0.0344,0.0244,-2.5510,1.4045,-3.0658
2024-10-11T12:18:37.868Z,-0.0203,-0.9900,0.1798,0.0352,0.1218,-0.1703,-0.0318,-0.0337,0.0233,-2.5510,1.4045,-3.0658
2024-10-11T12:18:37.878Z,-0.0166,-0.9861,0.1807,0.0352,0.1218,-0.1703,-0.0361,-0.0329,0.0238,-2.5510,1.4045,-3.0658
2024-10-11T12:18:37.889Z,-0.0185,-0.9850,0.1793,0.0520,0.0042,-0.1653,-0.0342,-0.0356,0.0234,-2.5560,1.4054,-3.0622
2024-10-11T12:18:37.899Z,-0.0194,-0.9831,0.1751,0.0520,0.0042,-0.1653,-0.0382,-0.0416,0.0241,-2.5560,1.4054,-3.0622
2024-10-11T12:18:37.908Z,-0.0204,-0.9793,0.1735,0.0520,0.0042,-0.1653,-0.0404,-0.0414,0.0228,-2.5560,1.4054,-3.0622
2024-10-11T12:18:37.918Z,-0.0237,-0.9754,0.1683,0.0465,-0.0680,-0.1134,-0.0423,-0.0429,0.0208,-2.5607,1.4065,-3.0590
2024-10-11T12:18:37.928Z,-0.0203,-0.9708,0.1654,0.0465,-0.0680,-0.1134,-0.0426,-0.0444,0.0182,-2.5607,1.4065,-3.0590
2024-10-11T12:18:37.938Z,-0.0234,-0.9676,0.1614,0.0465,-0.0680,-0.1134,-0.0415,-0.0458,0.0187,-2.5607,1.4065,-3.0590
2024-10-11T12:18:37.948Z,-0.0213,-0.9645,0.1578,0.0777,-0.1780,-0.0052,-0.0407,-0.0435,0.0170,-2.5652,1.4076,-3.0562
2024-10-11T12:18:37.958Z,-0.0202,-0.9625,0.1551,0.0777,-0.1780,-0.0052,-0.0414,-0.0454,0.0175,-2.5652,1.4076,-3.0562
2024-10-11T12:18:37.968Z,-0.0235,-0.9595,0.1545,0.0777,-0.1780,-0.0052,-0.0399,-0.0450,0.0154,-2.5652,1.4076,-3.0562
2024-10-11T12:18:37.978Z,-0.0225,-0.9581,0.1568,0.0861,-0.2575,0.0540,-0.0403,-0.0463,0.0136,-2.5688,1.4088,-3.0542
2024-10-11T12:18:37.989Z,-0.0234,-0.9585,0.1567,0.0861,-0.2575,0.0540,-0.0406,-0.0467,0.0113,-2.5688,1.4088,-3.0542
2024-10-11T12:18:37.998Z,-0.0242,-0.9597,0.1543,0.0861,-0.2575,0.0540,-0.0413,-0.0457,0.0091,-2.5688,1.4088,-3.0542
2024-10-11T12:18:38.008Z,-0.0232,-0.9613,0.1564,0.0963,-0.2661,0.0348,-0.0401,-0.0455,0.0056,-2.5718,1.4099,-3.0530
2024-10-11T12:18:38.018Z,-0.0217,-0.9606,0.1531,0.0963,-0.2661,0.0348,-0.0363,-0.0456,0.0076,-2.5718,1.4099,-3.0530
2024-10-11T12:18:38.028Z,-0.0193,-0.9604,0.1536,0.0963,-0.2661,0.0348,-0.0402,-0.0444,0.0038,-2.5718,1.4099,-3.0530
2024-10-11T12:18:38.038Z,-0.0184,-0.9623,0.1541,0.0538,-0.2621,0.0616,-0.0349,-0.0441,0.0047,-2.5737,1.4109,-3.0527
2024-10-11T12:18:38.048Z,-0.0180,-0.9658,0.1502,0.0538,-0.2621,0.0616,-0.0351,-0.0447,0.0039,-2.5737,1.4109,-3.0527
2024-10-11T12:18:38.058Z,-0.0208,-0.9655,0.1501,0.0538,-0.2621,0.0616,-0.0324,-0.0411,0.0001,-2.5737,1.4109,-3.0527
2024-10-11T12:18:38.068Z,-0.0182,-0.9648,0.1513,0.0581,-0.2095,0.0861,-0.0302,-0.0421,-0.0004,-2.5749,1.4118,-3.0531
2024-10-11T12:18:38.079Z,-0.0205,-0.9674,0.1506,0.0581,-0.2095,0.0861,-0.0266,-0.0390,-0.0006,-2.5749,1.4118,-3.0531
2024-10-11T12:18:38.088Z,-0.0212,-0.9689,0.1509,0.0581,-0.2095,0.0861,-0.0224,-0.0349,-0.0022,-2.5749,1.4118,-3.0531
2024-10-11T12:18:38.099Z,-0.0193,-0.9683,0.1532,0.0680,-0.1842,0.0588,-0.0229,-0.0302,-0.0028,-2.5751,1.4126,-3.0542
2024-10-11T12:18:38.109Z,-0.0173,-0.9698,0.1533,0.0680,-0.1842,0.0588,-0.0178,-0.0277,-0.0047,-2.5751,1.4126,-3.0542
2024-10-11T12:18:38.119Z,-0.0162,-0.9734,0.1526,0.0680,-0.1842,0.0588,-0.0191,-0.0215,-0.0085,-2.5751,1.4126,-3.0542
2024-10-11T12:18:38.128Z,-0.0158,-0.9765,0.1528,0.0295,-0.1551,0.0413,-0.0140,-0.0198,-0.0046,-2.5747,1.4131,-3.0556
2024-10-11T12:18:38.139Z,-0.0139,-0.9764,0.1521,0.0295,-0.1551,0.0413,-0.0138,-0.0156,-0.0077,-2.5747,1.4131,-3.0556
2024-10-11T12:18:38.148Z,-0.0134,-0.9765,0.1499,0.0295,-0.1551,0.0413,-0.0112,-0.0126,-0.0052,-2.5747,1.4131,-3.0556
2024-10-11T12:18:38.158Z,-0.0123,-0.9770,0.1519,-0.0056,-0.1128,0.0566,-0.0078,-0.0105,-0.0073,-2.5740,1.4135,-3.0570
2024-10-11T12:18:38.168Z,-0.0100,-0.9733,0.1520,-0.0056,-0.1128,0.0566,-0.0051,-0.0067,-0.0074,-2.5740,1.4135,-3.0570
2024-10-11T12:18:38.178Z,-0.0095,-0.9729,0.1514,-0.0056,-0.1128,0.0566,-0.0036,-0.0029,-0.0070,-2.5740,1.4135,-3.0570
2024-10-11T12:18:38.188Z,-0.0085,-0.9704,0.1534,-0.0300,-0.1506,0.0516,-0.0021,0.0005,-0.0074,-2.5728,1.4136,-3.0586
2024-10-11T12:18:38.198Z,-0.0076,-0.9708,0.1535,-0.0300,-0.1506,0.0516,0.0014,0.0035,-0.0090,-2.5728,1.4136,-3.0586
2024-10-11T12:18:38.208Z,-0.0088,-0.9713,0.1527,-0.0300,-0.1506,0.0516,0.0042,0.0041,-0.0076,-2.5728,1.4136,-3.0586
2024-10-11T12:18:38.217Z,-0.0092,-0.9708,0.1525,-0.0445,-0.1607,0.0316,0.0051,0.0076,-0.0062,-2.5717,1.4136,-3.0599
2024-10-11T12:18:38.228Z,-0.0104,-0.9708,0.1547,-0.0445,-0.1607,0.0316,0.0116,0.0063,-0.0059,-2.5717,1.4136,-3.0599
2024-10-11T12:18:38.238Z,-0.0126,-0.9718,0.1548,-0.0445,-0.1607,0.0316,0.0111,0.0076,-0.0079,-2.5717,1.4136,-3.0599
2024-10-11T12:18:38.248Z,-0.0100,-0.9717,0.1539,-0.0030,-0.1645,0.0096,0.0137,0.0071,-0.0083,-2.5701,1.4132,-3.0614
2024-10-11T12:18:38.258Z,-0.0119,-0.9721,0.1571,-0.0030,-0.1645,0.0096,0.0153,0.0073,-0.0077,-2.5701,1.4132,-3.0614
2024-10-11T12:18:38.268Z,-0.0126,-0.9710,0.1598,-0.0030,-0.1645,0.0096,0.0151,0.0109,-0.0097,-2.5701,1.4132,-3.0614
2024-10-11T12:18:38.278Z,-0.0124,-0.9725,0.1606,-0.0040,-0.1625,-0.0242,0.0184,0.0102,-0.0084,-2.5681,1.4128,-3.0634
2024-10-11T12:18:38.288Z,-0.0128,-0.9739,0.1646,-0.0040,-0.1625,-0.0242,0.0209,0.0106,-0.0072,-2.5681,1.4128,-3.0634
2024-10-11T12:18:38.298Z,-0.0168,-0.9763,0.1629,-0.0040,-0.1625,-0.0242,0.0242,0.0108,-0.0076,-2.5681,1.4128,-3.0634
2024-10-11T12:18:38.308Z,-0.0165,-0.9810,0.1658,0.0360,-0.1173,-0.0647,0.0223,0.0112,-0.0097,-2.5659,1.4122,-3.0655
2024-10-11T12:18:38.318Z,-0.0156,-0.9833,0.1676,0.0360,-0.1173,-0.0647,0.0229,0.0145,-0.0109,-2.5659,1.4122,-3.0655
2024-10-11T12:18:38.328Z,-0.0176,-0.9859,0.1694,0.0360,-0.1173,-0.0647,0.0217,0.0161,-0.0120,-2.5659,1.4122,-3.0655
2024-10-11T12:18:38.340Z,-0.0155,-0.9900,0.1722,0.0444,-0.0249,-0.1010,0.0218,0.0212,-0.0112,-2.5636,1.4115,-3.0675
2024-10-11T12:18:38.348Z,-0.0151,-0.9931,0.1758,0.0444,-0.0249,-0.1010,0.0255,0.0215,-0.0075,-2.5636,1.4115,-3.0675
2024-10-11T12:18:38.358Z,-0.0126,-0.9942,0.1770,0.0444,-0.0249,-0.1010,0.0224,0.0223,-0.0095,-2.5636,1.4115,-3.0675
2024-10-11T12:18:38.368Z,-0.0118,-0.9967,0.1763,0.0229,0.0685,-0.1842,0.0211,0.0221,-0.0092,-2.5617,1.4108,-3.0691
2024-10-11T12:18:38.378Z,-0.0117,-1.0000,0.1793,0.0229,0.0685,-0.1842,0.0211,0.0197,-0.0066,-2.5617,1.4108,-3.0691
2024-10-11T12:18:38.388Z,-0.0122,-1.0021,0.1802,0.0229,0.0685,-0.1842,0.0219,0.0230,-0.0073,-2.5617,1.4108,-3.0691
2024-10-11T12:18:38.398Z,-0.0138,-1.0049,0.1806,0.0075,0.1355,-0.2021,0.0181,0.0231,-0.0070,-2.5602,1.4102,-3.0701
2024-10-11T12:18:38.408Z,-0.0147,-1.0088,0.1801,0.0075,0.1355,-0.2021,0.0181,0.0247,-0.0059,-2.5602,1.4102,-3.0701
2024-10-11T12:18:38.417Z,-0.0151,-1.0084,0.1831,0.0075,0.1355,-0.2021,0.0145,0.0254,-0.0060,-2.5602,1.4102,-3.0701
2024-10-11T12:18:38.428Z,-0.0179,-1.0078,0.1833,0.0308,0.2106,-0.2200,0.0133,0.0239,-0.0076,-2.5590,1.4096,-3.0709
2024-10-11T12:18:38.438Z,-0.0151,-1.0083,0.1854,0.0308,0.2106,-0.2200,0.0104,0.0252,-0.0083,-2.5590,1.4096,-3.0709
2024-10-11T12:18:38.448Z,-0.0160,-1.0052,0.1863,0.0308,0.2106,-0.2200,0.0079,0.0256,-0.0080,-2.5590,1.4096,-3.0709
2024-10-11T12:18:38.458Z,-0.0125,-1.0049,0.1857,0.0445,0.1959,-0.2524,0.0062,0.0234,-0.0037,-2.5578,1.4093,-3.0715
2024-10-11T12:18:38.468Z,-0.0107,-1.0019,0.1855,0.0445,0.1959,-0.2524,0.0051,0.0233,-0.0051,-2.5578,1.4093,-3.0715
2024-10-11T12:18:38.478Z,-0.0100,-0.9987,0.1853,0.0445,0.1959,-0.2524,-0.0009,0.0229,-0.0067,-2.5578,1.4093,-3.0715
2024-10-11T12:18:38.489Z,-0.0114,-0.9942,0.1823,-0.0192,0.1316,-0.2521,-0.0031,0.0264,-0.0066,-2.5569,1.4092,-3.0720
2024-10-11T12:18:38.498Z,-0.0123,-0.9909,0.1816,-0.0192,0.1316,-0.2521,-0.0063,0.0230,-0.0055,-2.5569,1.4092,-3.0720
2024-10-11T12:18:38.508Z,-0.0147,-0.9876,0.1782,-0.0192,0.1316,-0.2521,-0.0101,0.0205,-0.0055,-2.5569,1.4092,-3.0720
2024-10-11T12:18:38.518Z,-0.0145,-0.9855,0.1757,0.0274,0.0186,-0.1929,-0.0114,0.0199,-0.0042,-2.5564,1.4093,-3.0720
2024-10-11T12:18:38.528Z,-0.0154,-0.9828,0.1720,0.0274,0.0186,-0.1929,-0.0157,0.0199,-0.0054,-2.5564,1.4093,-3.0720
2024-10-11T12:18:38.539Z,-0.0155,-0.9806,0.1714,0.0274,0.0186,-0.1929,-0.0203,0.0172,-0.0034,-2.5564,1.4093,-3.0720
2024-10-11T12:18:38.548Z,-0.0130,-0.9782,0.1706,0.0371,-0.0521,-0.1087,-0.0217,0.0181,-0.0051,-2.5558,1.4098,-3.0723
2024-10-11T12:18:38.559Z,-0.0144,-0.9793,0.1655,0.0371,-0.0521,-0.1087,-0.0228,0.0137,-0.0054,-2.5558,1.4098,-3.0723
2024-10-11T12:18:38.568Z,-0.0142,-0.9777,0.1638,0.0371,-0.0521,-0.1087,-0.0240,0.0115,-0.0077,-2.5558,1.4098,-3.0723
2024-10-11T12:18:38.578Z,-0.0147,-0.9750,0.1614,0.0314,-0.0825,-0.0526,-0.0217,0.0081,-0.0053,-2.5547,1.4103,-3.0732
2024-10-11T12:18:38.588Z,-0.0152,-0.9762,0.1576,0.0314,-0.0825,-0.0526,-0.0232,0.0050,-0.0084,-2.5547,1.4103,-3.0732
2024-10-11T12:18:38.598Z,-0.0153,-0.9761,0.1564,0.0314,-0.0825,-0.0526,-0.0232,0.0044,-0.0121,-2.5547,1.4103,-3.0732
2024-10-11T12:18:38.608Z,-0.0130,-0.9760,0.1522,0.0400,-0.1112,0.0232,-0.0228,0.0044,-0.0127,-2.5531,1.4110,-3.0749
2024-10-11T12:18:38.618Z,-0.0094,-0.9761,0.1516,0.0400,-0.1112,0.0232,-0.0238,0.0013,-0.0117,-2.5531,1.4110,-3.0749
2024-10-11T12:18:38.628Z,-0.0074,-0.9773,0.1493,0.0400,-0.1112,0.0232,-0.0236,-0.0005,-0.0121,-2.5531,1.4110,-3.0749
2024-10-11T12:18:38.639Z,-0.0060,-0.9788,0.1487,-0.0182,-0.1037,0.0836,-0.0212,-0.0023,-0.0100,-2.5515,1.4116,-3.0768
2024-10-11T12:18:38.648Z,-0.0046,-0.9799,0.1478,-0.0182,-0.1037,0.0836,-0.0226,-0.0035,-0.0085,-2.5515,1.4116,-3.0768
2024-10-11T12:18:38.658Z,-0.0053,-0.9842,0.1500,-0.0182,-0.1037,0.0836,-0.0194,-0.0055,-0.0078,-2.5515,1.4116,-3.0768
2024-10-11T12:18:38.668Z,-0.0062,-0.9864,0.1531,-0.0507,-0.0558,0.0866,-0.0195,-0.0034,-0.0093,-2.5502,1.4122,-3.0784
2024-10-11T12:18:38.678Z,-0.0069,-0.9882,0.1536,-0.0507,-0.0558,0.0866,-0.0189,-0.0071,-0.0074,-2.5502,1.4122,-3.0784
2024-10-11T12:18:38.688Z,-0.0086,-0.9908,0.1561,-0.0507,-0.0558,0.0866,-0.0181,-0.0079,-0.0078,-2.5502,1.4122,-3.0784
2024-10-11T12:18:38.698Z,-0.0096,-0.9921,0.1576,-0.0183,0.0121,0.0143,-0.0169,-0.0102,-0.0079,-2.5492,1.4128,-3.0798
2024-10-11T12:18:38.708Z,-0.0106,-0.9933,0.1573,-0.0183,0.0121,0.0143,-0.0173,-0.0083,-0.0102,-2.5492,1.4128,-3.0798
2024-10-11T12:18:38.718Z,-0.0127,-0.9925,0.1572,-0.0183,0.0121,0.0143,-0.0177,-0.0150,-0.0063,-2.5492,1.4128,-3.0798
2024-10-11T12:18:38.728Z,-0.0115,-0.9924,0.1575,0.0288,0.0486,-0.0082,-0.0150,-0.0156,-0.0080,-2.5481,1.4133,-3.0816
2024-10-11T12:18:38.738Z,-0.0119,-0.9925,0.1560,0.0288,0.0486,-0.0082,-0.0153,-0.0167,-0.0073,-2.5481,1.4133,-3.0816
2024-10-11T12:18:38.748Z,-0.0125,-0.9911,0.1560,0.0288,0.0486,-0.0082,-0.0148,-0.0180,-0.0099,-2.5481,1.4133,-3.0816
2024-10-11T12:18:38.758Z,-0.0123,-0.9934,0.1554,0.0267,0.0354,-0.0061,-0.0153,-0.0214,-0.0099,-2.5467,1.4137,-3.0837
2024-10-11T12:18:38.769Z,-0.0125,-0.9932,0.1552,0.0267,0.0354,-0.0061,-0.0142,-0.0206,-0.0093,-2.5467,1.4137,-3.0837
2024-10-11T12:18:38.778Z,-0.0151,-0.9930,0.1531,0.0267,0.0354,-0.0061,-0.0119,-0.0205,-0.0111,-2.5467,1.4137,-3.0837
2024-10-11T12:18:38.790Z,-0.0144,-0.9940,0.1522,0.0535,0.0486,0.0232,-0.0124,-0.0208,-0.0109,-2.5451,1.4141,-3.0862
2024-10-11T12:18:38.798Z,-0.0099,-0.9934,0.1492,0.0535,0.0486,0.0232,-0.0127,-0.0206,-0.0120,-2.5451,1.4141,-3.0862
2024-10-11T12:18:38.807Z,-0.0083,-0.9938,0.1474,0.0535,0.0486,0.0232,-0.0095,-0.0209,-0.0123,-2.5451,1.4141,-3.0862
2024-10-11T12:18:38.818Z,-0.0075,-0.9922,0.1447,0.0057,0.0555,0.0741,-0.0087,-0.0199,-0.0122,-2.5431,1.4145,-3.0891
2024-10-11T12:18:38.828Z,-0.0093,-0.9920,0.1436,0.0057,0.0555,0.0741,-0.0081,-0.0193,-0.0118,-2.5431,1.4145,-3.0891
2024-10-11T12:18:38.838Z,-0.0062,-0.9903,0.1396,0.0057,0.0555,0.0741,-0.0084,-0.0178,-0.0104,-2.5431,1.4145,-3.0891
2024-10-11T12:18:38.848Z,-0.0036,-0.9879,0.1396,-0.0024,0.0223,0.1440,-0.0050,-0.0172,-0.0115,-2.5414,1.4147,-3.0916
2024-10-11T12:18:38.858Z,-0.0056,-0.9839,0.1357,-0.0024,0.0223,0.1440,-0.0026,-0.0137,-0.0093,-2.5414,1.4147,-3.0916
2024-10-11T12:18:38.868Z,-0.0042,-0.9829,0.1333,-0.0024,0.0223,0.1440,-0.0007,-0.0112,-0.0130,-2.5414,1.4147,-3.0916
2024-10-11T12:18:38.878Z,-0.0034,-0.9813,0.1325,-0.0267,-0.0447,0.2019,-0.0008,-0.0116,-0.0103,-2.5395,1.4148,-3.0941
2024-10-11T12:18:38.888Z,-0.0037,-0.9778,0.1314,-0.0267,-0.0447,0.2019,0.0022,-0.0122,-0.0084,-2.5395,1.4148,-3.0941
2024-10-11T12:18:38.898Z,-0.0037,-0.9779,0.1328,-0.0267,-0.0447,0.2019,0.0027,-0.0060,-0.0061,-2.5395,1.4148,-3.0941
2024-10-11T12:18:38.908Z,-0.0048,-0.9794,0.1317,-0.0464,-0.0947,0.2245,0.0064,-0.0052,-0.0043,-2.5381,1.4147,-3.0960
2024-10-11T12:18:38.918Z,-0.0049,-0.9793,0.1321,-0.0464,-0.0947,0.2245,0.0091,-0.0049,-0.0043,-2.5381,1.4147,-3.0960
2024-10-11T12:18:38.928Z,-0.0022,-0.9797,0.1315,-0.0464,-0.0947,0.2245,0.0120,-0.0019,-0.0059,-2.5381,1.4147,-3.0960
2024-10-11T12:18:38.938Z,-0.0041,-0.9795,0.1312,-0.0448,-0.0842,0.2327,0.0083,0.0016,-0.0037,-2.5372,1.4144,-3.0973
2024-10-11T12:18:38.948Z,-0.0047,-0.9810,0.1326,-0.0448,-0.0842,0.2327,0.0137,0.0030,-0.0025,-2.5372,1.4144,-3.0973
2024-10-11T12:18:38.958Z,-0.0052,-0.9798,0.1324,-0.0448,-0.0842,0.2327,0.0160,0.0043,-0.0012,-2.5372,1.4144,-3.0973
2024-10-11T12:18:38.968Z,-0.0055,-0.9763,0.1330,-0.0196,-0.0721,0.2316,0.0177,0.0065,0.0005,-2.5365,1.4141,-3.0982
2024-10-11T12:18:38.978Z,-0.0023,-0.9730,0.1327,-0.0196,-0.0721,0.2316,0.0182,0.0066,0.0006,-2.5365,1.4141,-3.0982
2024-10-11T12:18:38.991Z,-0.0046,-0.9733,0.1333,-0.0324,-0.1395,0.2276,0.0201,0.0074,-0.0001,-2.5363,1.4136,-3.0983
2024-10-11T12:18:38.998Z,-0.0063,-0.9725,0.1340,-0.0324,-0.1395,0.2276,0.0202,0.0076,0.0029,-2.5363,1.4136,-3.0983
2024-10-11T12:18:39.008Z,-0.0061,-0.9739,0.1383,-0.0324,-0.1395,0.2276,0.0203,0.0089,0.0036,-2.5363,1.4136,-3.0983
2024-10-11T12:18:39.018Z,-0.0054,-0.9738,0.1384,-0.0324,-0.1395,0.2276,0.0212,0.0119,0.0037,-2.5363,1.4136,-3.0983
2024-10-11T12:18:39.028Z,-0.0036,-0.9751,0.1416,-0.0066,-0.1366,0.1787,0.0216,0.0142,0.0014,-2.5366,1.4132,-3.0980
2024-10-11T12:18:39.039Z,-0.0037,-0.9779,0.1434,-0.0066,-0.1366,0.1787,0.0193,0.0145,0.0024,-2.5366,1.4132,-3.0980
2024-10-11T12:18:39.048Z,-0.0025,-0.9808,0.1434,-0.0066,-0.1366,0.1787,0.0224,0.0142,0.0069,-2.5366,1.4132,-3.0980
2024-10-11T12:18:39.058Z,0.0003,-0.9828,0.1440,-0.0396,-0.0770,0.1345,0.0226,0.0154,0.0087,-2.5373,1.4128,-3.0971
2024-10-11T12:18:39.068Z,0.0005,-0.9840,0.1448,-0.0396,-0.0770,0.1345,0.0246,0.0137,0.0091,-2.5373,1.4128,-3.0971
2024-10-11T12:18:39.078Z,0.0006,-0.9861,0.1446,-0.0396,-0.0770,0.1345,0.0241,0.0156,0.0103,-2.5373,1.4128,-3.0971
2024-10-11T12:18:39.088Z,-0.0023,-0.9869,0.1456,-0.0787,-0.0182,0.1334,0.0247,0.0177,0.0086,-2.5389,1.4121,-3.0953
2024-10-11T12:18:39.098Z,-0.0007,-0.9872,0.1463,-0.0787,-0.0182,0.1334,0.0242,0.0199,0.0115,-2.5389,1.4121,-3.0953
2024-10-11T12:18:39.108Z,-0.0022,-0.9884,0.1469,-0.0787,-0.0182,0.1334,0.0266,0.0178,0.0132,-2.5389,1.4121,-3.0953
2024-10-11T12:18:39.118Z,-0.0010,-0.9898,0.1462,-0.0612,0.0036,0.1121,0.0258,0.0190,0.0133,-2.5409,1.4114,-3.0930
2024-10-11T12:18:39.128Z,-0.0038,-0.9886,0.1493,-0.0612,0.0036,0.1121,0.0244,0.0196,0.0115,-2.5409,1.4114,-3.0930
2024-10-11T12:18:39.138Z,-0.0040,-0.9904,0.1529,-0.0612,0.0036,0.1121,0.0290,0.0204,0.0139,-2.5409,1.4114,-3.0930
2024-10-11T12:18:39.148Z,-0.0044,-0.9912,0.1527,-0.0345,0.0178,0.0744,0.0236,0.0180,0.0132,-2.5432,1.4106,-3.0905
2024-10-11T12:18:39.158Z,-0.0080,-0.9933,0.1567,-0.0345,0.0178,0.0744,0.0231,0.0157,0.0127,-2.5432,1.4106,-3.0905
2024-10-11T12:18:39.168Z,-0.0071,-0.9961,0.1576,-0.0345,0.0178,0.0744,0.0233,0.0174,0.0117,-2.5432,1.4106,-3.0905
2024-10-11T12:18:39.178Z,-0.0100,-0.9977,0.1614,-0.0097,0.0828,0.0254,0.0230,0.0180,0.0114,-2.5453,1.4099,-3.0881
2024-10-11T12:18:39.189Z,-0.0093,-0.9991,0.1640,-0.0097,0.0828,0.0254,0.0193,0.0145,0.0118,-2.5453,1.4099,-3.0881
2024-10-11T12:18:39.198Z,-0.0078,-0.9996,0.1660,-0.0097,0.0828,0.0254,0.0194,0.0158,0.0110,-2.5453,1.4099,-3.0881
2024-10-11T12:18:39.208Z,-0.0099,-1.0000,0.1661,-0.0064,0.1209,-0.0539,0.0170,0.0153,0.0120,-2.5472,1.4093,-3.0861
2024-10-11T12:18:39.219Z,-0.0090,-1.0004,0.1693,-0.0064,0.1209,-0.0539,0.0143,0.0109,0.0093,-2.5472,1.4093,-3.0861
2024-10-11T12:18:39.228Z,-0.0090,-1.0000,0.1689,-0.0064,0.1209,-0.0539,0.0102,0.0105,0.0088,-2.5472,1.4093,-3.0861
2024-10-11T12:18:39.238Z,-0.0091,-1.0014,0.1728,-0.0104,0.1334,-0.0843,0.0112,0.0130,0.0102,-2.5490,1.4089,-3.0842
2024-10-11T12:18:39.248Z,-0.0098,-1.0033,0.1747,-0.0104,0.1334,-0.0843,0.0080,0.0110,0.0085,-2.5490,1.4089,-3.0842
2024-10-11T12:18:39.258Z,-0.0118,-1.0028,0.1786,-0.0104,0.1334,-0.0843,0.0077,0.0104,0.0079,-2.5490,1.4089,-3.0842
2024-10-11T12:18:39.268Z,-0.0121,-1.0036,0.1808,0.0119,0.1564,-0.1650,0.0024,0.0073,0.0065,-2.5507,1.4087,-3.0825
2024-10-11T12:18:39.278Z,-0.0132,-1.0057,0.1850,0.0119,0.1564,-0.1650,-0.0008,0.0064,0.0049,-2.5507,1.4087,-3.0825
2024-10-11T12:18:39.288Z,-0.0112,-1.0052,0.1889,0.0119,0.1564,-0.1650,-0.0061,0.0053,0.0028,-2.5507,1.4087,-3.0825
2024-10-11T12:18:39.298Z,-0.0109,-1.0043,0.1878,0.0210,0.1815,-0.2695,-0.0059,0.0009,0.0053,-2.5518,1.4087,-3.0815
2024-10-11T12:18:39.308Z,-0.0075,-1.0079,0.1882,0.0210,0.1815,-0.2695,-0.0113,-0.0009,0.0087,-2.5518,1.4087,-3.0815
2024-10-11T12:18:39.318Z,-0.0075,-1.0087,0.1898,0.0210,0.1815,-0.2695,-0.0130,-0.0037,0.0054,-2.5518,1.4087,-3.0815
2024-10-11T12:18:39.329Z,-0.0059,-1.0087,0.1880,-0.0229,0.2100,-0.2785,-0.0206,-0.0016,0.0031,-2.5531,1.4090,-3.0805
2024-10-11T12:18:39.339Z,-0.0071,-1.0077,0.1867,-0.0229,0.2100,-0.2785,-0.0206,-0.0016,0.0031,-2.5531,1.4090,-3.0805
2024-10-11T12:18:39.348Z,-0.0077,-1.0080,0.1866,-0.0229,0.2100,-0.2785,-0.0200,-0.0001,0.0053,-2.5531,1.4090,-3.0805
2024-10-11T12:18:39.358Z,-0.0107,-1.0061,0.1840,-0.0185,0.2019,-0.2632,-0.0240,-0.0004,0.0054,-2.5545,1.4095,-3.0794
2024-10-11T12:18:39.368Z,-0.0117,-1.0034,0.1826,-0.0185,0.2019,-0.2632,-0.0280,-0.0022,0.0057,-2.5545,1.4095,-3.0794
2024-10-11T12:18:39.380Z,-0.0117,-1.0023,0.1801,-0.0185,0.2019,-0.2632,-0.0333,-0.0016,0.0026,-2.5545,1.4095,-3.0794
2024-10-11T12:18:39.389Z,-0.0117,-0.9986,0.1791,0.0184,0.1556,-0.2123,-0.0333,-0.0016,0.0026,-2.5560,1.4103,-3.0781
2024-10-11T12:18:39.400Z,-0.0143,-0.9943,0.1755,0.0184,0.1556,-0.2123,-0.0353,-0.0053,0.0048,-2.5560,1.4103,-3.0781
2024-10-11T12:18:39.408Z,-0.0133,-0.9929,0.1722,0.0184,0.1556,-0.2123,-0.0353,-0.0053,0.0048,-2.5560,1.4103,-3.0781
2024-10-11T12:18:39.419Z,-0.0133,-0.9919,0.1665,0.0303,0.0581,-0.1503,-0.0390,-0.0056,0.0023,-2.5574,1.4112,-3.0772
2024-10-11T12:18:39.429Z,-0.0154,-0.9913,0.1609,0.0303,0.0581,-0.1503,-0.0390,-0.0056,0.0023,-2.5574,1.4112,-3.0772
2024-10-11T12:18:39.441Z,-0.0198,-0.9888,0.1579,0.0854,0.0273,-0.0210,-0.0356,-0.0075,-0.0013,-2.5582,1.4122,-3.0769
2024-10-11T12:18:39.448Z,-0.0181,-0.9840,0.1511,0.0854,0.0273,-0.0210,-0.0334,-0.0081,-0.0023,-2.5582,1.4122,-3.0769
2024-10-11T12:18:39.459Z,-0.0196,-0.9811,0.1457,0.0854,0.0273,-0.0210,-0.0317,-0.0067,-0.0049,-2.5582,1.4122,-3.0769
2024-10-11T12:18:39.469Z,-0.0179,-0.9778,0.1432,0.0854,0.0273,-0.0210,-0.0273,-0.0089,-0.0043,-2.5582,1.4122,-3.0769
2024-10-11T12:18:39.480Z,-0.0150,-0.9730,0.1369,0.0859,-0.0864,0.1289,-0.0261,-0.0088,-0.0064,-2.5580,1.4131,-3.0775
2024-10-11T12:18:39.489Z,-0.0122,-0.9695,0.1333,0.0859,-0.0864,0.1289,-0.0261,-0.0088,-0.0064,-2.5580,1.4131,-3.0775
2024-10-11T12:18:39.499Z,-0.0099,-0.9662,0.1326,0.0859,-0.0864,0.1289,-0.0176,-0.0093,-0.0035,-2.5580,1.4131,-3.0775
2024-10-11T12:18:39.508Z,-0.0112,-0.9621,0.1316,0.0096,-0.1945,0.2250,-0.0176,-0.0093,-0.0035,-2.5577,1.4138,-3.0784
2024-10-11T12:18:39.519Z,-0.0098,-0.9600,0.1313,0.0096,-0.1945,0.2250,-0.0102,-0.0099,-0.0032,-2.5577,1.4138,-3.0784
2024-10-11T12:18:39.529Z,-0.0122,-0.9611,0.1311,0.0096,-0.1945,0.2250,-0.0068,-0.0046,0.0004,-2.5577,1.4138,-3.0784
2024-10-11T12:18:39.539Z,-0.0101,-0.9613,0.1298,0.0080,-0.2654,0.2415,-0.0068,-0.0046,0.0004,-2.5577,1.4141,-3.0788
2024-10-11T12:18:39.549Z,-0.0115,-0.9623,0.1302,0.0080,-0.2654,0.2415,0.0008,-0.0002,0.0007,-2.5577,1.4141,-3.0788
2024-10-11T12:18:39.559Z,-0.0107,-0.9646,0.1328,0.0080,-0.2654,0.2415,0.0023,-0.0012,0.0012,-2.5577,1.4141,-3.0788
2024-10-11T12:18:39.569Z,-0.0107,-0.9635,0.1344,0.0114,-0.2324,0.2330,0.0058,-0.0004,0.0028,-2.5582,1.4142,-3.0787
2024-10-11T12:18:39.579Z,-0.0105,-0.9630,0.1391,0.0114,-0.2324,0.2330,0.0095,-0.0014,0.0010,-2.5582,1.4142,-3.0787
2024-10-11T12:18:39.591Z,-0.0116,-0.9644,0.1417,-0.0018,-0.2334,0.1453,0.0095,-0.0014,0.0010,-2.5587,1.4139,-3.0785
2024-10-11T12:18:39.599Z,-0.0133,-0.9645,0.1447,-0.0018,-0.2334,0.1453,0.0175,-0.0012,0.0021,-2.5587,1.4139,-3.0785
2024-10-11T12:18:39.609Z,-0.0128,-0.9667,0.1497,-0.0018,-0.2334,0.1453,0.0190,-0.0014,0.0009,-2.5587,1.4139,-3.0785
2024-10-11T12:18:39.619Z,-0.0150,-0.9658,0.1513,-0.0018,-0.2334,0.1453,0.0188,-0.0004,0.0021,-2.5587,1.4139,-3.0785
2024-10-11T12:18:39.629Z,-0.0158,-0.9649,0.1545,0.0448,-0.2100,0.0506,0.0182,0.0012,0.0020,-2.5594,1.4135,-3.0781
2024-10-11T12:18:39.640Z,-0.0167,-0.9666,0.1572,0.0448,-0.2100,0.0506,0.0182,0.0012,0.0020,-2.5594,1.4135,-3.0781
2024-10-11T12:18:39.648Z,-0.0154,-0.9664,0.1591,0.0448,-0.2100,0.0506,0.0237,0.0018,0.0019,-2.5594,1.4135,-3.0781
2024-10-11T12:18:39.659Z,-0.0132,-0.9680,0.1617,0.0691,-0.2138,-0.0087,0.0252,-0.0013,0.0014,-2.5597,1.4129,-3.0780
2024-10-11T12:18:39.669Z,-0.0132,-0.9718,0.1624,0.0691,-0.2138,-0.0087,0.0283,-0.0011,0.0026,-2.5597,1.4129,-3.0780
2024-10-11T12:18:39.679Z,-0.0128,-0.9743,0.1632,0.0691,-0.2138,-0.0087,0.0279,-0.0014,0.0003,-2.5597,1.4129,-3.0780
2024-10-11T12:18:39.692Z,-0.0118,-0.9783,0.1611,0.0279,-0.1379,-0.0588,0.0302,0.0013,-0.0013,-2.5598,1.4121,-3.0782
2024-10-11T12:18:39.698Z,-0.0112,-0.9827,0.1613,0.0279,-0.1379,-0.0588,0.0298,0.0007,-0.0000,-2.5598,1.4121,-3.0782
2024-10-11T12:18:39.708Z,-0.0096,-0.9866,0.1638,0.0279,-0.1379,-0.0588,0.0298,0.0007,-0.0000,-2.5598,1.4121,-3.0782
2024-10-11T12:18:39.719Z,-0.0093,-0.9887,0.1634,0.0009,-0.0160,-0.0394,0.0325,0.0046,0.0027,-2.5599,1.4111,-3.0783
2024-10-11T12:18:39.729Z,-0.0076,-0.9906,0.1638,0.0009,-0.0160,-0.0394,0.0320,0.0027,0.0030,-2.5599,1.4111,-3.0783
2024-10-11T12:18:39.742Z,-0.0072,-0.9907,0.1650,-0.0332,0.0370,-0.0515,0.0316,0.0061,0.0038,-2.5602,1.4101,-3.0781
2024-10-11T12:18:39.749Z,-0.0054,-0.9917,0.1651,-0.0332,0.0370,-0.0515,0.0360,0.0028,0.0053,-2.5602,1.4101,-3.0781
2024-10-11T12:18:39.759Z,-0.0037,-0.9917,0.1679,-0.0332,0.0370,-0.0515,0.0300,0.0081,0.0046,-2.5602,1.4101,-3.0781
2024-10-11T12:18:39.769Z,-0.0067,-0.9935,0.1682,-0.0332,0.0370,-0.0515,0.0307,0.0089,0.0055,-2.5602,1.4101,-3.0781
2024-10-11T12:18:39.778Z,-0.0058,-0.9951,0.1662,-0.0454,0.0603,-0.0774,0.0310,0.0112,0.0054,-2.5608,1.4091,-3.0776
2024-10-11T12:18:39.789Z,-0.0082,-0.9951,0.1661,-0.0454,0.0603,-0.0774,0.0314,0.0131,0.0070,-2.5608,1.4091,-3.0776
2024-10-11T12:18:39.799Z,-0.0082,-0.9949,0.1678,-0.0454,0.0603,-0.0774,0.0310,0.0162,0.0073,-2.5608,1.4091,-3.0776
2024-10-11T12:18:39.808Z,-0.0083,-0.9951,0.1691,-0.0165,0.0842,-0.0460,0.0305,0.0169,0.0067,-2.5617,1.4081,-3.0766
2024-10-11T12:18:39.818Z,-0.0098,-0.9957,0.1703,-0.0165,0.0842,-0.0460,0.0278,0.0133,0.0071,-2.5617,1.4081,-3.0766
2024-10-11T12:18:39.830Z,-0.0085,-0.9955,0.1728,-0.0135,0.0986,-0.0928,0.0260,0.0132,0.0072,-2.5627,1.4072,-3.0755
2024-10-11T12:18:39.840Z,-0.0073,-0.9975,0.1734,-0.0135,0.0986,-0.0928,0.0241,0.0126,0.0080,-2.5627,1.4072,-3.0755
2024-10-11T12:18:39.849Z,-0.0087,-0.9990,0.1740,-0.0135,0.0986,-0.0928,0.0220,0.0127,0.0057,-2.5627,1.4072,-3.0755
2024-10-11T12:18:39.859Z,-0.0089,-0.9965,0.1781,-0.0135,0.0986,-0.0928,0.0210,0.0097,0.0037,-2.5627,1.4072,-3.0755
2024-10-11T12:18:39.869Z,-0.0133,-0.9951,0.1774,-0.0198,0.1079,-0.1269,0.0206,0.0073,0.0030,-2.5636,1.4064,-3.0746
2024-10-11T12:18:39.879Z,-0.0142,-0.9942,0.1764,-0.0198,0.1079,-0.1269,0.0190,0.0075,0.0029,-2.5636,1.4064,-3.0746
2024-10-11T12:18:39.892Z,-0.0135,-0.9941,0.1784,0.0291,0.0785,-0.1302,0.0171,0.0055,0.0034,-2.5639,1.4058,-3.0742
2024-10-11T12:18:39.899Z,-0.0112,-0.9935,0.1773,0.0291,0.0785,-0.1302,0.0159,-0.0001,0.0008,-2.5639,1.4058,-3.0742
2024-10-11T12:18:39.909Z,-0.0101,-0.9929,0.1740,0.0291,0.0785,-0.1302,0.0158,-0.0026,0.0020,-2.5639,1.4058,-3.0742
2024-10-11T12:18:39.919Z,-0.0100,-0.9899,0.1750,0.0291,0.0785,-0.1302,0.0152,-0.0051,0.0007,-2.5639,1.4058,-3.0742
2024-10-11T12:18:39.928Z,-0.0093,-0.9902,0.1767,-0.0044,0.0387,-0.0947,0.0118,-0.0083,-0.0006,-2.5639,1.4052,-3.0745
2024-10-11T12:18:39.939Z,-0.0121,-0.9907,0.1760,-0.0044,0.0387,-0.0947,0.0120,-0.0108,-0.0003,-2.5639,1.4052,-3.0745
2024-10-11T12:18:39.950Z,-0.0099,-0.9933,0.1774,0.0031,0.0643,-0.1062,0.0096,-0.0110,-0.0017,-2.5638,1.4047,-3.0751
2024-10-11T12:18:39.958Z,-0.0097,-0.9933,0.1776,0.0031,0.0643,-0.1062,0.0070,-0.0147,-0.0041,-2.5638,1.4047,-3.0751
2024-10-11T12:18:39.968Z,-0.0093,-0.9953,0.1786,0.0031,0.0643,-0.1062,0.0081,-0.0126,-0.0039,-2.5638,1.4047,-3.0751
2024-10-11T12:18:39.980Z,-0.0109,-0.9945,0.1778,-0.0140,0.0893,-0.1290,0.0085,-0.0141,-0.0020,-2.5635,1.4042,-3.0761
2024-10-11T12:18:39.989Z,-0.0114,-0.9915,0.1802,-0.0140,0.0893,-0.1290,0.0073,-0.0145,-0.0039,-2.5635,1.4042,-3.0761
2024-10-11T12:18:39.998Z,-0.0109,-0.9942,0.1778,-0.0140,0.0893,-0.1290,0.0034,-0.0155,-0.0047,-2.5635,1.4042,-3.0761
2024-10-11T12:18:40.009Z,-0.0123,-0.9946,0.1778,-0.0140,0.0893,-0.1290,0.0011,-0.0147,-0.0033,-2.5635,1.4042,-3.0761
2024-10-11T12:18:40.018Z,-0.0129,-0.9910,0.1759,0.0159,0.0918,-0.1106,-0.0019,-0.0135,-0.0044,-2.5624,1.4036,-3.0779
2024-10-11T12:18:40.028Z,-0.0123,-0.9918,0.1734,0.0159,0.0918,-0.1106,-0.0024,-0.0129,-0.0047,-2.5624,1.4036,-3.0779
2024-10-11T12:18:40.041Z,-0.0143,-0.9912,0.1743,0.0306,0.0524,-0.0634,-0.0045,-0.0087,-0.0068,-2.5613,1.4025,-3.0797
2024-10-11T12:18:40.048Z,-0.0148,-0.9918,0.1753,0.0306,0.0524,-0.0634,-0.0042,-0.0080,-0.0023,-2.5613,1.4025,-3.0797
2024-10-11T12:18:40.059Z,-0.0163,-0.9914,0.1729,0.0306,0.0524,-0.0634,-0.0057,-0.0056,-0.0079,-2.5613,1.4025,-3.0797
2024-10-11T12:18:40.070Z,-0.0181,-0.9920,0.1745,0.0667,0.0593,-0.0523,-0.0066,-0.0050,-0.0056,-2.5601,1.4020,-3.0813
2024-10-11T12:18:40.078Z,-0.0187,-0.9934,0.1746,0.0667,0.0593,-0.0523,-0.0098,-0.0027,-0.0091,-2.5601,1.4020,-3.0813
2024-10-11T12:18:40.089Z,-0.0193,-0.9945,0.1746,0.0667,0.0593,-0.0523,-0.0084,-0.0045,-0.0100,-2.5601,1.4020,-3.0813
2024-10-11T12:18:40.098Z,-0.0187,-0.9939,0.1765,0.0667,0.0593,-0.0523,-0.0112,-0.0026,-0.0100,-2.5601,1.4020,-3.0813
2024-10-11T12:18:40.108Z,-0.0188,-0.9931,0.1763,0.0794,0.0848,-0.0708,-0.0119,-0.0019,-0.0073,-2.5591,1.4022,-3.0827
2024-10-11T12:18:40.118Z,-0.0193,-0.9929,0.1763,0.0794,0.0848,-0.0708,-0.0114,-0.0020,-0.0073,-2.5591,1.4022,-3.0827
2024-10-11T12:18:40.131Z,-0.0192,-0.9918,0.1763,0.0973,0.0725,-0.0848,-0.0132,-0.0020,-0.0094,-2.5578,1.4024,-3.0843
2024-10-11T12:18:40.138Z,-0.0188,-0.9898,0.1766,0.0973,0.0725,-0.0848,-0.0153,0.0007,-0.0113,-2.5578,1.4024,-3.0843
2024-10-11T12:18:40.148Z,-0.0197,-0.9879,0.1758,0.0973,0.0725,-0.0848,-0.0157,0.0038,-0.0142,-2.5578,1.4024,-3.0843
2024-10-11T12:18:40.160Z,-0.0177,-0.9888,0.1767,0.0955,0.0220,-0.0890,-0.0197,0.0045,-0.0143,-2.5569,1.4028,-3.0855
2024-10-11T12:18:40.168Z,-0.0166,-0.9870,0.1803,0.0955,0.0220,-0.0890,-0.0195,0.0052,-0.0119,-2.5569,1.4028,-3.0855
2024-10-11T12:18:40.178Z,-0.0162,-0.9868,0.1786,0.0955,0.0220,-0.0890,-0.0189,0.0091,-0.0124,-2.5569,1.4028,-3.0855
2024-10-11T12:18:40.189Z,-0.0172,-0.9862,0.1800,0.0759,0.0105,-0.1103,-0.0230,0.0130,-0.0133,-2.5566,1.4031,-3.0858
2024-10-11T12:18:40.198Z,-0.0127,-0.9876,0.1837,0.0759,0.0105,-0.1103,-0.0252,0.0178,-0.0129,-2.5566,1.4031,-3.0858
2024-10-11T12:18:40.208Z,-0.0141,-0.9863,0.1820,0.0759,0.0105,-0.1103,-0.0267,0.0182,-0.0093,-2.5566,1.4031,-3.0858
2024-10-11T12:18:40.219Z,-0.0135,-0.9850,0.1823,0.0479,-0.0081,-0.1612,-0.0305,0.0189,-0.0088,-2.5558,1.4038,-3.0863
2024-10-11T12:18:40.228Z,-0.0142,-0.9845,0.1830,0.0479,-0.0081,-0.1612,-0.0305,0.0206,-0.0096,-2.5558,1.4038,-3.0863
2024-10-11T12:18:40.238Z,-0.0158,-0.9832,0.1816,0.0479,-0.0081,-0.1612,-0.0286,0.0257,-0.0076,-2.5558,1.4038,-3.0863
2024-10-11T12:18:40.249Z,-0.0145,-0.9820,0.1798,0.0467,-0.0338,-0.1530,-0.0303,0.0301,-0.0069,-2.5552,1.4045,-3.0864
2024-10-11T12:18:40.258Z,-0.0169,-0.9810,0.1810,0.0467,-0.0338,-0.1530,-0.0303,0.0301,-0.0069,-2.5552,1.4045,-3.0864
2024-10-11T12:18:40.268Z,-0.0161,-0.9804,0.1817,0.0467,-0.0338,-0.1530,-0.0326,0.0388,-0.0065,-2.5552,1.4045,-3.0864
2024-10-11T12:18:40.281Z,-0.0189,-0.9790,0.1778,0.0802,-0.0725,-0.1407,-0.0295,0.0412,-0.0050,-2.5546,1.4053,-3.0862
2024-10-11T12:18:40.289Z,-0.0194,-0.9785,0.1753,0.0802,-0.0725,-0.1407,-0.0315,0.0457,-0.0062,-2.5546,1.4053,-3.0862
2024-10-11T12:18:40.298Z,-0.0204,-0.9781,0.1704,0.0802,-0.0725,-0.1407,-0.0278,0.0479,-0.0031,-2.5546,1.4053,-3.0862
2024-10-11T12:18:40.309Z,-0.0219,-0.9801,0.1666,0.1219,-0.0679,-0.0355,-0.0278,0.0479,-0.0031,-2.5542,1.4060,-3.0854
2024-10-11T12:18:40.319Z,-0.0225,-0.9797,0.1639,0.1219,-0.0679,-0.0355,-0.0279,0.0541,-0.0048,-2.5542,1.4060,-3.0854
2024-10-11T12:18:40.329Z,-0.0228,-0.9812,0.1573,0.1219,-0.0679,-0.0355,-0.0220,0.0569,-0.0025,-2.5542,1.4060,-3.0854
2024-10-11T12:18:40.339Z,-0.0254,-0.9817,0.1526,0.1503,-0.0533,0.0927,-0.0212,0.0594,-0.0044,-2.5539,1.4068,-3.0843
2024-10-11T12:18:40.348Z,-0.0246,-0.9808,0.1487,0.1503,-0.0533,0.0927,-0.0167,0.0606,-0.0058,-2.5539,1.4068,-3.0843
2024-10-11T12:18:40.358Z,-0.0224,-0.9821,0.1445,0.1503,-0.0533,0.0927,-0.0186,0.0639,-0.0041,-2.5539,1.4068,-3.0843
2024-10-11T12:18:40.368Z,-0.0188,-0.9819,0.1410,0.1043,-0.0397,0.1937,-0.0160,0.0681,-0.0023,-2.5536,1.4072,-3.0830
2024-10-11T12:18:40.378Z,-0.0170,-0.9812,0.1378,0.1043,-0.0397,0.1937,-0.0108,0.0654,-0.0032,-2.5536,1.4072,-3.0830
2024-10-11T12:18:40.388Z,-0.0154,-0.9817,0.1374,0.1043,-0.0397,0.1937,-0.0092,0.0659,-0.0019,-2.5536,1.4072,-3.0830
2024-10-11T12:18:40.398Z,-0.0148,-0.9817,0.1366,0.1043,-0.0397,0.1937,-0.0051,0.0651,0.0004,-2.5536,1.4072,-3.0830
2024-10-11T12:18:40.409Z,-0.0141,-0.9788,0.1350,0.0439,-0.0468,0.2394,-0.0037,0.0611,-0.0014,-2.5535,1.4075,-3.0814
2024-10-11T12:18:40.418Z,-0.0143,-0.9801,0.1366,0.0439,-0.0468,0.2394,-0.0026,0.0586,0.0010,-2.5535,1.4075,-3.0814
2024-10-11T12:18:40.429Z,-0.0134,-0.9797,0.1362,0.0431,-0.0714,0.2551,0.0023,0.0560,-0.0020,-2.5533,1.4077,-3.0800
2024-10-11T12:18:40.438Z,-0.0130,-0.9785,0.1362,0.0431,-0.0714,0.2551,0.0025,0.0530,-0.0020,-2.5533,1.4077,-3.0800
2024-10-11T12:18:40.448Z,-0.0127,-0.9783,0.1368,0.0431,-0.0714,0.2551,0.0060,0.0501,-0.0033,-2.5533,1.4077,-3.0800
2024-10-11T12:18:40.459Z,-0.0091,-0.9782,0.1389,0.0034,-0.0844,0.2389,0.0060,0.0501,-0.0033,-2.5532,1.4076,-3.0788
2024-10-11T12:18:40.468Z,-0.0065,-0.9772,0.1423,0.0034,-0.0844,0.2389,0.0083,0.0413,-0.0033,-2.5532,1.4076,-3.0788
2024-10-11T12:18:40.478Z,-0.0068,-0.9769,0.1425,0.0034,-0.0844,0.2389,0.0098,0.0371,-0.0014,-2.5532,1.4076,-3.0788
2024-10-11T12:18:40.489Z,-0.0056,-0.9768,0.1470,-0.0412,-0.0964,0.1739,0.0115,0.0332,-0.0010,-2.5532,1.4073,-3.0779
2024-10-11T12:18:40.498Z,-0.0057,-0.9768,0.1470,-0.0412,-0.0964,0.1739,0.0120,0.0292,-0.0023,-2.5532,1.4073,-3.0779
2024-10-11T12:18:40.509Z,-0.0039,-0.9756,0.1519,-0.0412,-0.0964,0.1739,0.0127,0.0244,0.0011,-2.5532,1.4073,-3.0779
2024-10-11T12:18:40.519Z,-0.0030,-0.9761,0.1562,-0.0710,-0.1113,0.0785,0.0094,0.0183,-0.0013,-2.5531,1.4071,-3.0775
2024-10-11T12:18:40.528Z,-0.0014,-0.9761,0.1578,-0.0710,-0.1113,0.0785,0.0102,0.0159,-0.0006,-2.5531,1.4071,-3.0775
2024-10-11T12:18:40.539Z,-0.0000,-0.9766,0.1596,-0.0710,-0.1113,0.0785,0.0071,0.0109,-0.0000,-2.5531,1.4071,-3.0775
2024-10-11T12:18:40.548Z,0.0020,-0.9789,0.1617,-0.1189,-0.0873,0.0253,0.0064,0.0073,0.0013,-2.5531,1.4068,-3.0773
2024-10-11T12:18:40.558Z,0.0006,-0.9805,0.1629,-0.1189,-0.0873,0.0253,0.0067,0.0055,0.0005,-2.5531,1.4068,-3.0773
2024-10-11T12:18:40.568Z,0.0023,-0.9806,0.1653,-0.1189,-0.0873,0.0253,0.0083,0.0013,0.0011,-2.5531,1.4068,-3.0773
2024-10-11T12:18:40.579Z,0.0020,-0.9833,0.1655,-0.1236,-0.0516,-0.0316,0.0065,-0.0005,0.0004,-2.5533,1.4066,-3.0773
2024-10-11T12:18:40.588Z,0.0015,-0.9865,0.1645,-0.1236,-0.0516,-0.0316,0.0053,-0.0018,-0.0000,-2.5533,1.4066,-3.0773
2024-10-11T12:18:40.598Z,0.0026,-0.9903,0.1653,-0.1236,-0.0516,-0.0316,0.0050,-0.0023,0.0000,-2.5533,1.4066,-3.0773
2024-10-11T12:18:40.610Z,0.0033,-0.9927,0.1679,-0.1336,0.0624,-0.0363,0.0065,-0.0056,0.0007,-2.5534,1.4065,-3.0775
2024-10-11T12:18:40.618Z,0.0060,-0.9944,0.1686,-0.1336,0.0624,-0.0363,0.0063,-0.0077,-0.0000,-2.5534,1.4065,-3.0775
2024-10-11T12:18:40.628Z,0.0054,-0.9963,0.1700,-0.1336,0.0624,-0.0363,0.0048,-0.0118,0.0003,-2.5534,1.4065,-3.0775
2024-10-11T12:18:40.638Z,0.0057,-0.9958,0.1710,-0.1540,0.0824,-0.0740,0.0024,-0.0130,0.0012,-2.5535,1.4063,-3.0779
2024-10-11T12:18:40.648Z,0.0039,-0.9978,0.1708,-0.1540,0.0824,-0.0740,0.0009,-0.0163,0.0027,-2.5535,1.4063,-3.0779
2024-10-11T12:18:40.658Z,0.0055,-0.9978,0.1730,-0.1540,0.0824,-0.0740,-0.0007,-0.0172,0.0037,-2.5535,1.4063,-3.0779
2024-10-11T12:18:40.668Z,0.0043,-0.9966,0.1741,-0.1521,0.1037,-0.1063,0.0003,-0.0227,0.0022,-2.5536,1.4063,-3.0786
2024-10-11T12:18:40.678Z,0.0042,-0.9980,0.1740,-0.1521,0.1037,-0.1063,-0.0005,-0.0224,0.0024,-2.5536,1.4063,-3.0786
2024-10-11T12:18:40.687Z,0.0045,-0.9969,0.1736,-0.1521,0.1037,-0.1063,-0.0041,-0.0224,0.0036,-2.5536,1.4063,-3.0786
2024-10-11T12:18:40.698Z,0.0032,-0.9972,0.1753,-0.1380,0.1018,-0.1059,-0.0060,-0.0232,0.0018,-2.5540,1.4063,-3.0791
2024-10-11T12:18:40.709Z,0.0036,-0.9983,0.1779,-0.1380,0.1018,-0.1059,-0.0064,-0.0256,0.0024,-2.5540,1.4063,-3.0791
2024-10-11T12:18:40.718Z,0.0015,-0.9953,0.1777,-0.1380,0.1018,-0.1059,-0.0062,-0.0290,0.0002,-2.5540,1.4063,-3.0791
2024-10-11T12:18:40.729Z,0.0033,-0.9940,0.1794,-0.1215,0.0722,-0.1538,-0.0080,-0.0323,0.0021,-2.5541,1.4065,-3.0801
2024-10-11T12:18:40.738Z,0.0021,-0.9962,0.1801,-0.1215,0.0722,-0.1538,-0.0127,-0.0337,0.0012,-2.5541,1.4065,-3.0801
2024-10-11T12:18:40.748Z,0.0013,-0.9934,0.1808,-0.1215,0.0722,-0.1538,-0.0136,-0.0332,0.0025,-2.5541,1.4065,-3.0801
2024-10-11T12:18:40.760Z,0.0005,-0.9922,0.1807,-0.1083,0.0633,-0.1740,-0.0164,-0.0332,0.0020,-2.5543,1.4068,-3.0811
2024-10-11T12:18:40.768Z,0.0005,-0.9943,0.1795,-0.1083,0.0633,-0.1740,-0.0160,-0.0347,0.0013,-2.5543,1.4068,-3.0811
2024-10-11T12:18:40.778Z,0.0000,-0.9924,0.1766,-0.1083,0.0633,-0.1740,-0.0208,-0.0366,-0.0005,-2.5543,1.4068,-3.0811
2024-10-11T12:18:40.788Z,-0.0025,-0.9934,0.1739,-0.0804,0.0604,-0.1184,-0.0186,-0.0385,0.0025,-2.5545,1.4073,-3.0823
2024-10-11T12:18:40.798Z,-0.0024,-0.9935,0.1707,-0.0804,0.0604,-0.1184,-0.0231,-0.0376,0.0020,-2.5545,1.4073,-3.0823
2024-10-11T12:18:40.808Z,-0.0026,-0.9942,0.1670,-0.0804,0.0604,-0.1184,-0.0250,-0.0362,-0.0004,-2.5545,1.4073,-3.0823
2024-10-11T12:18:40.818Z,-0.0029,-0.9954,0.1652,-0.0652,0.0834,-0.0354,-0.0253,-0.0361,0.0012,-2.5544,1.4078,-3.0838
2024-10-11T12:18:40.828Z,-0.0053,-0.9952,0.1630,-0.0652,0.0834,-0.0354,-0.0262,-0.0359,0.0001,-2.5544,1.4078,-3.0838
2024-10-11T12:18:40.838Z,-0.0051,-0.9947,0.1605,-0.0652,0.0834,-0.0354,-0.0266,-0.0315,0.0009,-2.5544,1.4078,-3.0838
2024-10-11T12:18:40.848Z,-0.0073,-0.9922,0.1584,-0.0343,0.0574,0.0201,-0.0242,-0.0319,0.0020,-2.5547,1.4084,-3.0848
2024-10-11T12:18:40.858Z,-0.0066,-0.9916,0.1573,-0.0343,0.0574,0.0201,-0.0257,-0.0307,-0.0003,-2.5547,1.4084,-3.0848
2024-10-11T12:18:40.868Z,-0.0053,-0.9930,0.1555,-0.0343,0.0574,0.0201,-0.0238,-0.0290,0.0029,-2.5547,1.4084,-3.0848
2024-10-11T12:18:40.879Z,-0.0055,-0.9918,0.1569,-0.0318,0.0501,0.0443,-0.0257,-0.0242,0.0018,-2.5552,1.4091,-3.0854
2024-10-11T12:18:40.888Z,-0.0057,-0.9920,0.1544,-0.0318,0.0501,0.0443,-0.0262,-0.0234,0.0015,-2.5552,1.4091,-3.0854
2024-10-11T12:18:40.898Z,-0.0073,-0.9923,0.1526,-0.0318,0.0501,0.0443,-0.0214,-0.0204,0.0017,-2.5552,1.4091,-3.0854
2024-10-11T12:18:40.909Z,-0.0075,-0.9919,0.1492,-0.0125,0.0485,0.1005,-0.0223,-0.0176,0.0041,-2.5560,1.4098,-3.0856
2024-10-11T12:18:40.918Z,-0.0092,-0.9915,0.1471,-0.0125,0.0485,0.1005,-0.0209,-0.0168,0.0026,-2.5560,1.4098,-3.0856
2024-10-11T12:18:40.928Z,-0.0090,-0.9890,0.1458,-0.0125,0.0485,0.1005,-0.0205,-0.0157,0.0031,-2.5560,1.4098,-3.0856
2024-10-11T12:18:40.938Z,-0.0094,-0.9884,0.1456,0.0011,0.0157,0.1237,-0.0175,-0.0128,0.0059,-2.5569,1.4104,-3.0854
2024-10-11T12:18:40.948Z,-0.0121,-0.9875,0.1446,0.0011,0.0157,0.1237,-0.0190,-0.0104,0.0032,-2.5569,1.4104,-3.0854
2024-10-11T12:18:40.960Z,-0.0102,-0.9849,0.1452,0.0011,0.0157,0.1237,-0.0171,-0.0079,0.0037,-2.5569,1.4104,-3.0854
2024-10-11T12:18:40.969Z,-0.0109,-0.9836,0.1454,0.0198,-0.0251,0.1403,-0.0165,-0.0049,0.0066,-2.5580,1.4109,-3.0848
2024-10-11T12:18:40.979Z,-0.0108,-0.9818,0.1451,0.0198,-0.0251,0.1403,-0.0132,-0.0029,0.0051,-2.5580,1.4109,-3.0848
2024-10-11T12:18:40.988Z,-0.0129,-0.9817,0.1425,0.0198,-0.0251,0.1403,-0.0143,-0.0046,0.0026,-2.5580,1.4109,-3.0848
2024-10-11T12:18:40.998Z,-0.0153,-0.9820,0.1397,0.0489,-0.0502,0.1809,-0.0145,-0.0015,0.0041,-2.5592,1.4114,-3.0841
2024-10-11T12:18:41.008Z,-0.0151,-0.9809,0.1402,0.0489,-0.0502,0.1809,-0.0147,0.0002,0.0032,-2.5592,1.4114,-3.0841
2024-10-11T12:18:41.018Z,-0.0179,-0.9793,0.1379,0.0489,-0.0502,0.1809,-0.0120,0.0022,-0.0006,-2.5592,1.4114,-3.0841
2024-10-11T12:18:41.028Z,-0.0175,-0.9788,0.1387,0.0978,-0.0787,0.1940,-0.0109,0.0019,-0.0003,-2.5598,1.4118,-3.0837
2024-10-11T12:18:41.038Z,-0.0161,-0.9767,0.1369,0.0978,-0.0787,0.1940,-0.0093,0.0089,-0.0020,-2.5598,1.4118,-3.0837
2024-10-11T12:18:41.048Z,-0.0159,-0.9758,0.1369,0.0978,-0.0787,0.1940,-0.0082,0.0064,0.0001,-2.5598,1.4118,-3.0837
2024-10-11T12:18:41.058Z,-0.0154,-0.9746,0.1370,0.0661,-0.1255,0.1946,-0.0079,0.0087,-0.0004,-2.5601,1.4121,-3.0834
2024-10-11T12:18:41.068Z,-0.0140,-0.9746,0.1376,0.0661,-0.1255,0.1946,-0.0088,0.0083,-0.0006,-2.5601,1.4121,-3.0834
2024-10-11T12:18:41.077Z,-0.0132,-0.9730,0.1384,0.0661,-0.1255,0.1946,-0.0057,0.0063,-0.0003,-2.5601,1.4121,-3.0834
2024-10-11T12:18:41.088Z,-0.0135,-0.9734,0.1400,0.0457,-0.1464,0.1729,-0.0030,0.0079,-0.0012,-2.5604,1.4123,-3.0832
2024-10-11T12:18:41.097Z,-0.0130,-0.9725,0.1424,0.0457,-0.1464,0.1729,-0.0034,0.0098,0.0005,-2.5604,1.4123,-3.0832
2024-10-11T12:18:41.108Z,-0.0112,-0.9731,0.1432,0.0457,-0.1464,0.1729,-0.0006,0.0099,-0.0000,-2.5604,1.4123,-3.0832
2024-10-11T12:18:41.118Z,-0.0114,-0.9723,0.1430,0.0184,-0.1469,0.1488,0.0002,0.0076,-0.0015,-2.5606,1.4125,-3.0829
2024-10-11T12:18:41.127Z,-0.0104,-0.9727,0.1419,0.0184,-0.1469,0.1488,0.0007,0.0080,0.0032,-2.5606,1.4125,-3.0829
2024-10-11T12:18:41.138Z,-0.0081,-0.9747,0.1420,0.0184,-0.1469,0.1488,0.0024,0.0105,0.0030,-2.5606,1.4125,-3.0829
2024-10-11T12:18:41.148Z,-0.0081,-0.9727,0.1418,-0.0111,-0.1364,0.1562,0.0033,0.0111,0.0007,-2.5616,1.4126,-3.0819
2024-10-11T12:18:41.158Z,-0.0070,-0.9756,0.1426,-0.0111,-0.1364,0.1562,0.0063,0.0096,0.0019,-2.5616,1.4126,-3.0819
2024-10-11T12:18:41.168Z,-0.0097,-0.9776,0.1440,-0.0111,-0.1364,0.1562,0.0062,0.0110,0.0031,-2.5616,1.4126,-3.0819
2024-10-11T12:18:41.178Z,-0.0094,-0.9784,0.1419,-0.0013,-0.0929,0.1407,0.0098,0.0125,0.0026,-2.5624,1.4125,-3.0811
2024-10-11T12:18:41.188Z,-0.0102,-0.9806,0.1422,-0.0013,-0.0929,0.1407,0.0132,0.0103,0.0017,-2.5624,1.4125,-3.0811
2024-10-11T12:18:41.199Z,-0.0122,-0.9825,0.1412,-0.0013,-0.0929,0.1407,0.0105,0.0127,-0.0008,-2.5624,1.4125,-3.0811
2024-10-11T12:18:41.209Z,-0.0123,-0.9852,0.1374,0.0282,-0.0299,0.1882,0.0142,0.0087,0.0005,-2.5627,1.4123,-3.0807
2024-10-11T12:18:41.218Z,-0.0106,-0.9839,0.1391,0.0282,-0.0299,0.1882,0.0145,0.0091,-0.0007,-2.5627,1.4123,-3.0807
2024-10-11T12:18:41.228Z,-0.0106,-0.9840,0.1384,0.0282,-0.0299,0.1882,0.0158,0.0068,0.0011,-2.5627,1.4123,-3.0807
2024-10-11T12:18:41.238Z,-0.0104,-0.9859,0.1355,-0.0008,-0.0228,0.2069,0.0193,0.0066,-0.0022,-2.5626,1.4119,-3.0808
2024-10-11T12:18:41.248Z,-0.0117,-0.9874,0.1371,-0.0008,-0.0228,0.2069,0.0208,0.0033,-0.0025,-2.5626,1.4119,-3.0808
2024-10-11T12:18:41.258Z,-0.0127,-0.9875,0.1388,-0.0008,-0.0228,0.2069,0.0213,0.0046,-0.0025,-2.5626,1.4119,-3.0808
2024-10-11T12:18:41.268Z,-0.0144,-0.9880,0.1379,0.0443,-0.0001,0.2012,0.0244,0.0035,-0.0054,-2.5621,1.4112,-3.0814
2024-10-11T12:18:41.278Z,-0.0160,-0.9884,0.1380,0.0443,-0.0001,0.2012,0.0259,0.0045,-0.0059,-2.5621,1.4112,-3.0814
2024-10-11T12:18:41.288Z,-0.0171,-0.9902,0.1398,0.0443,-0.0001,0.2012,0.0295,0.0007,-0.0075,-2.5621,1.4112,-3.0814
2024-10-11T12:18:41.298Z,-0.0178,-0.9897,0.1417,0.0794,0.0228,0.1826,0.0308,-0.0015,-0.0065,-2.5609,1.4105,-3.0828
2024-10-11T12:18:41.309Z,-0.0167,-0.9910,0.1440,0.0794,0.0228,0.1826,0.0276,-0.0046,-0.0097,-2.5609,1.4105,-3.0828
2024-10-11T12:18:41.318Z,-0.0172,-0.9913,0.1470,0.0794,0.0228,0.1826,0.0340,-0.0031,-0.0116,-2.5609,1.4105,-3.0828
2024-10-11T12:18:41.329Z,-0.0172,-0.9916,0.1482,0.0850,0.0425,0.1209,0.0337,-0.0044,-0.0121,-2.5588,1.4097,-3.0852
2024-10-11T12:18:41.338Z,-0.0177,-0.9924,0.1521,0.0850,0.0425,0.1209,0.0368,-0.0056,-0.0130,-2.5588,1.4097,-3.0852
2024-10-11T12:18:41.348Z,-0.0154,-0.9908,0.1548,0.0850,0.0425,0.1209,0.0355,-0.0059,-0.0124,-2.5588,1.4097,-3.0852
2024-10-11T12:18:41.358Z,-0.0133,-0.9891,0.1587,0.0476,0.0289,0.0413,0.0369,-0.0072,-0.0110,-2.5563,1.4087,-3.0882
2024-10-11T12:18:41.368Z,-0.0150,-0.9895,0.1595,0.0476,0.0289,0.0413,0.0363,-0.0089,-0.0114,-2.5563,1.4087,-3.0882
2024-10-11T12:18:41.378Z,-0.0127,-0.9894,0.1620,0.0476,0.0289,0.0413,0.0343,-0.0072,-0.0155,-2.5563,1.4087,-3.0882
2024-10-11T12:18:41.388Z,-0.0124,-0.9882,0.1628,0.0356,0.0119,-0.0042,0.0319,-0.0041,-0.0142,-2.5539,1.4077,-3.0909
2024-10-11T12:18:41.398Z,-0.0114,-0.9895,0.1663,0.0356,0.0119,-0.0042,0.0322,-0.0013,-0.0124,-2.5539,1.4077,-3.0909
2024-10-11T12:18:41.409Z,-0.0085,-0.9870,0.1673,0.0356,0.0119,-0.0042,0.0301,-0.0015,-0.0091,-2.5539,1.4077,-3.0909
2024-10-11T12:18:41.419Z,-0.0066,-0.9902,0.1699,-0.0105,0.0281,-0.0606,0.0288,0.0026,-0.0064,-2.5519,1.4068,-3.0932
2024-10-11T12:18:41.428Z,-0.0074,-0.9932,0.1698,-0.0105,0.0281,-0.0606,0.0244,0.0037,-0.0072,-2.5519,1.4068,-3.0932
2024-10-11T12:18:41.438Z,-0.0060,-0.9930,0.1696,-0.0105,0.0281,-0.0606,0.0224,0.0097,-0.0037,-2.5519,1.4068,-3.0932
2024-10-11T12:18:41.448Z,-0.0067,-0.9926,0.1699,-0.0088,0.0665,-0.0646,0.0201,0.0091,-0.0069,-2.5507,1.4061,-3.0945
2024-10-11T12:18:41.459Z,-0.0075,-0.9941,0.1687,-0.0088,0.0665,-0.0646,0.0192,0.0135,-0.0064,-2.5507,1.4061,-3.0945
2024-10-11T12:18:41.468Z,-0.0081,-0.9938,0.1692,-0.0088,0.0665,-0.0646,0.0147,0.0165,-0.0039,-2.5507,1.4061,-3.0945
2024-10-11T12:18:41.478Z,-0.0057,-0.9933,0.1672,-0.0045,0.0691,-0.0349,0.0140,0.0203,-0.0044,-2.5499,1.4056,-3.0951
2024-10-11T12:18:41.488Z,-0.0078,-0.9950,0.1657,-0.0045,0.0691,-0.0349,0.0122,0.0226,-0.0030,-2.5499,1.4056,-3.0951
2024-10-11T12:18:41.498Z,-0.0092,-0.9940,0.1646,-0.0045,0.0691,-0.0349,0.0084,0.0223,-0.0047,-2.5499,1.4056,-3.0951
2024-10-11T12:18:41.509Z,-0.0095,-0.9938,0.1648,0.0096,0.0625,0.0024,0.0088,0.0251,-0.0038,-2.5493,1.4052,-3.0953
2024-10-11T12:18:41.518Z,-0.0093,-0.9949,0.1641,0.0096,0.0625,0.0024,0.0050,0.0284,-0.0062,-2.5493,1.4052,-3.0953
2024-10-11T12:18:41.529Z,-0.0101,-0.9948,0.1664,0.0096,0.0625,0.0024,0.0063,0.0310,-0.0032,-2.5493,1.4052,-3.0953
2024-10-11T12:18:41.538Z,-0.0111,-0.9954,0.1671,0.0302,0.0831,-0.0179,0.0067,0.0326,-0.0029,-2.5487,1.4049,-3.0953
2024-10-11T12:18:41.548Z,-0.0117,-0.9976,0.1683,0.0302,0.0831,-0.0179,0.0042,0.0344,-0.0012,-2.5487,1.4049,-3.0953
2024-10-11T12:18:41.559Z,-0.0116,-0.9984,0.1688,0.0302,0.0831,-0.0179,0.0019,0.0358,-0.0016,-2.5487,1.4049,-3.0953
2024-10-11T12:18:41.568Z,-0.0102,-0.9973,0.1709,0.0319,0.1138,-0.0621,0.0007,0.0362,-0.0016,-2.5482,1.4047,-3.0951
2024-10-11T12:18:41.578Z,-0.0094,-0.9984,0.1733,0.0319,0.1138,-0.0621,-0.0014,0.0378,-0.0006,-2.5482,1.4047,-3.0951
2024-10-11T12:18:41.589Z,-0.0074,-0.9998,0.1741,0.0319,0.1138,-0.0621,-0.0027,0.0396,0.0001,-2.5482,1.4047,-3.0951
2024-10-11T12:18:41.598Z,-0.0074,-0.9998,0.1741,0.0112,0.1325,-0.0812,-0.0016,0.0382,-0.0015,-2.5481,1.4048,-3.0943
2024-10-11T12:18:41.609Z,-0.0062,-0.9982,0.1729,0.0112,0.1325,-0.0812,-0.0059,0.0386,0.0006,-2.5481,1.4048,-3.0943
2024-10-11T12:18:41.620Z,-0.0072,-0.9937,0.1755,0.0112,0.1325,-0.0812,-0.0049,0.0384,0.0013,-2.5481,1.4048,-3.0943
2024-10-11T12:18:41.629Z,-0.0072,-0.9937,0.1755,-0.0197,0.0782,-0.1011,-0.0084,0.0413,0.0023,-2.5487,1.4049,-3.0927
2024-10-11T12:18:41.639Z,-0.0085,-0.9928,0.1783,-0.0197,0.0782,-0.1011,-0.0081,0.0401,0.0017,-2.5487,1.4049,-3.0927
2024-10-11T12:18:41.649Z,-0.0073,-0.9925,0.1767,-0.0197,0.0782,-0.1011,-0.0101,0.0397,0.0042,-2.5487,1.4049,-3.0927
2024-10-11T12:18:41.659Z,-0.0073,-0.9925,0.1767,-0.0128,0.0568,-0.1344,-0.0105,0.0396,0.0037,-2.5495,1.4051,-3.0910
2024-10-11T12:18:41.670Z,-0.0050,-0.9909,0.1765,-0.0128,0.0568,-0.1344,-0.0089,0.0398,0.0047,-2.5495,1.4051,-3.0910
2024-10-11T12:18:41.678Z,-0.0050,-0.9909,0.1765,-0.0128,0.0568,-0.1344,-0.0093,0.0406,0.0061,-2.5495,1.4051,-3.0910
2024-10-11T12:18:41.689Z,-0.0027,-0.9882,0.1755,-0.0465,0.0385,-0.1154,-0.0107,0.0344,0.0073,-2.5508,1.4053,-3.0889
2024-10-11T12:18:41.698Z,-0.0027,-0.9882,0.1755,-0.0465,0.0385,-0.1154,-0.0083,0.0349,0.0077,-2.5508,1.4053,-3.0889
2024-10-11T12:18:41.709Z,-0.0045,-0.9868,0.1741,-0.0465,0.0385,-0.1154,-0.0086,0.0355,0.0090,-2.5508,1.4053,-3.0889
2024-10-11T12:18:41.718Z,-0.0055,-0.9866,0.1736,-0.0356,0.0069,-0.1017,-0.0084,0.0306,0.0072,-2.5525,1.4055,-3.0865
2024-10-11T12:18:41.729Z,-0.0074,-0.9802,0.1703,-0.0356,0.0069,-0.1017,-0.0076,0.0307,0.0069,-2.5525,1.4055,-3.0865
2024-10-11T12:18:41.739Z,-0.0074,-0.9784,0.1720,-0.0356,0.0069,-0.1017,-0.0079,0.0274,0.0076,-2.5525,1.4055,-3.0865
2024-10-11T12:18:41.749Z,-0.0090,-0.9771,0.1729,-0.0191,-0.0766,-0.0718,-0.0078,0.0283,0.0098,-2.5539,1.4057,-3.0844
2024-10-11T12:18:41.759Z,-0.0090,-0.9771,0.1729,-0.0191,-0.0766,-0.0718,-0.0080,0.0256,0.0079,-2.5539,1.4057,-3.0844
2024-10-11T12:18:41.768Z,-0.0099,-0.9762,0.1706,-0.0191,-0.0766,-0.0718,-0.0079,0.0214,0.0081,-2.5539,1.4057,-3.0844
2024-10-11T12:18:41.779Z,-0.0136,-0.9777,0.1709,0.0036,-0.0911,-0.0495,-0.0040,0.0169,0.0092,-2.5554,1.4058,-3.0824
2024-10-11T12:18:41.789Z,-0.0142,-0.9781,0.1697,0.0036,-0.0911,-0.0495,-0.0062,0.0195,0.0059,-2.5554,1.4058,-3.0824
2024-10-11T12:18:41.797Z,-0.0142,-0.9781,0.1697,0.0036,-0.0911,-0.0495,-0.0056,0.0130,0.0086,-2.5554,1.4058,-3.0824
2024-10-11T12:18:41.809Z,-0.0145,-0.9794,0.1684,0.0308,-0.0754,-0.0507,-0.0053,0.0110,0.0065,-2.5568,1.4059,-3.0808
2024-10-11T12:18:41.819Z,-0.0138,-0.9811,0.1659,0.0308,-0.0754,-0.0507,-0.0044,0.0107,0.0066,-2.5568,1.4059,-3.0808
2024-10-11T12:18:41.829Z,-0.0118,-0.9814,0.1646,0.0308,-0.0754,-0.0507,-0.0008,0.0061,0.0064,-2.5568,1.4059,-3.0808
2024-10-11T12:18:41.839Z,-0.0120,-0.9817,0.1634,0.0246,-0.0471,0.0007,-0.0007,0.0061,0.0037,-2.5581,1.4059,-3.0796
2024-10-11T12:18:41.849Z,-0.0120,-0.9817,0.1634,0.0246,-0.0471,0.0007,-0.0003,0.0050,0.0074,-2.5581,1.4059,-3.0796
2024-10-11T12:18:41.861Z,-0.0176,-0.9785,0.1627,0.0246,-0.0471,0.0007,0.0021,0.0027,0.0047,-2.5581,1.4059,-3.0796
2024-10-11T12:18:41.869Z,-0.0170,-0.9775,0.1641,0.0615,-0.0688,0.0165,0.0034,0.0032,0.0042,-2.5593,1.4057,-3.0786
2024-10-11T12:18:41.879Z,-0.0185,-0.9758,0.1628,0.0615,-0.0688,0.0165,0.0058,0.0023,0.0038,-2.5593,1.4057,-3.0786
2024-10-11T12:18:41.889Z,-0.0166,-0.9745,0.1636,0.0615,-0.0688,0.0165,0.0022,0.0011,0.0017,-2.5593,1.4057,-3.0786
2024-10-11T12:18:41.899Z,-0.0146,-0.9728,0.1617,0.0729,-0.1125,0.0044,0.0036,-0.0021,0.0033,-2.5602,1.4056,-3.0779
2024-10-11T12:18:41.912Z,-0.0143,-0.9745,0.1616,0.0729,-0.1125,0.0044,0.0032,-0.0031,0.0028,-2.5602,1.4056,-3.0779
2024-10-11T12:18:41.919Z,-0.0138,-0.9740,0.1610,0.0729,-0.1125,0.0044,0.0062,-0.0062,0.0030,-2.5602,1.4056,-3.0779
2024-10-11T12:18:41.929Z,-0.0160,-0.9744,0.1610,0.0300,-0.1172,0.0248,0.0018,-0.0035,-0.0023,-2.5607,1.4054,-3.0777
2024-10-11T12:18:41.939Z,-0.0179,-0.9769,0.1598,0.0300,-0.1172,0.0248,0.0075,-0.0051,-0.0012,-2.5607,1.4054,-3.0777
2024-10-11T12:18:41.948Z,-0.0174,-0.9783,0.1590,0.0300,-0.1172,0.0248,0.0076,-0.0037,-0.0026,-2.5607,1.4054,-3.0777
2024-10-11T12:18:41.960Z,-0.0150,-0.9774,0.1604,0.0757,-0.0857,0.0526,0.0101,-0.0036,-0.0019,-2.5609,1.4052,-3.0778
2024-10-11T12:18:41.969Z,-0.0150,-0.9787,0.1606,0.0757,-0.0857,0.0526,0.0105,-0.0077,-0.0025,-2.5609,1.4052,-3.0778
2024-10-11T12:18:41.979Z,-0.0151,-0.9806,0.1609,0.0757,-0.0857,0.0526,0.0087,-0.0054,-0.0030,-2.5609,1.4052,-3.0778
2024-10-11T12:18:41.989Z,-0.0143,-0.9793,0.1618,0.0505,-0.0613,0.0457,0.0095,-0.0058,-0.0046,-2.5611,1.4049,-3.0780
2024-10-11T12:18:41.998Z,-0.0147,-0.9786,0.1619,0.0505,-0.0613,0.0457,0.0104,-0.0052,-0.0026,-2.5611,1.4049,-3.0780
2024-10-11T12:18:42.009Z,-0.0127,-0.9810,0.1613,0.0505,-0.0613,0.0457,0.0131,-0.0062,-0.0063,-2.5611,1.4049,-3.0780
2024-10-11T12:18:42.018Z,-0.0125,-0.9830,0.1595,0.0303,-0.0650,0.0250,0.0100,-0.0052,-0.0078,-2.5612,1.4045,-3.0783
2024-10-11T12:18:42.028Z,-0.0116,-0.9825,0.1598,0.0303,-0.0650,0.0250,0.0133,-0.0043,-0.0075,-2.5612,1.4045,-3.0783
2024-10-11T12:18:42.038Z,-0.0118,-0.9822,0.1595,0.0303,-0.0650,0.0250,0.0103,-0.0075,-0.0077,-2.5612,1.4045,-3.0783
2024-10-11T12:18:42.048Z,-0.0113,-0.9821,0.1611,0.0086,-0.0419,0.0604,0.0102,-0.0079,-0.0066,-2.5608,1.4042,-3.0791
2024-10-11T12:18:42.060Z,-0.0128,-0.9842,0.1600,0.0086,-0.0419,0.0604,0.0096,-0.0064,-0.0058,-2.5608,1.4042,-3.0791
2024-10-11T12:18:42.069Z,-0.0114,-0.9870,0.1589,0.0086,-0.0419,0.0604,0.0091,-0.0057,-0.0043,-2.5608,1.4042,-3.0791
2024-10-11T12:18:42.079Z,-0.0115,-0.9898,0.1588,0.0212,-0.0040,0.0688,0.0094,-0.0050,-0.0051,-2.5601,1.4040,-3.0802
2024-10-11T12:18:42.089Z,-0.0104,-0.9899,0.1601,0.0212,-0.0040,0.0688,0.0110,-0.0030,-0.0065,-2.5601,1.4040,-3.0802
2024-10-11T12:18:42.098Z,-0.0112,-0.9912,0.1619,0.0212,-0.0040,0.0688,0.0085,-0.0014,-0.0049,-2.5601,1.4040,-3.0802
2024-10-11T12:18:42.111Z,-0.0125,-0.9926,0.1635,-0.0016,0.0431,0.0479,0.0102,0.0047,-0.0050,-2.5596,1.4037,-3.0810
2024-10-11T12:18:42.118Z,-0.0138,-0.9909,0.1669,-0.0016,0.0431,0.0479,0.0092,0.0074,-0.0028,-2.5596,1.4037,-3.0810
2024-10-11T12:18:42.129Z,-0.0146,-0.9888,0.1667,-0.0016,0.0431,0.0479,0.0072,0.0128,-0.0052,-2.5596,1.4037,-3.0810
2024-10-11T12:18:42.139Z,-0.0151,-0.9924,0.1663,0.0470,0.0300,-0.0016,0.0054,0.0153,-0.0027,-2.5590,1.4034,-3.0816
2024-10-11T12:18:42.148Z,-0.0166,-0.9925,0.1667,0.0470,0.0300,-0.0016,0.0029,0.0168,-0.0052,-2.5590,1.4034,-3.0816
2024-10-11T12:18:42.159Z,-0.0182,-0.9937,0.1664,0.0470,0.0300,-0.0016,0.0027,0.0188,-0.0048,-2.5590,1.4034,-3.0816
2024-10-11T12:18:42.168Z,-0.0193,-0.9945,0.1677,0.0779,0.0665,0.0018,0.0040,0.0221,-0.0073,-2.5582,1.4033,-3.0821
2024-10-11T12:18:42.178Z,-0.0202,-0.9945,0.1697,0.0779,0.0665,0.0018,0.0051,0.0267,-0.0093,-2.5582,1.4033,-3.0821
2024-10-11T12:18:42.188Z,-0.0205,-0.9963,0.1705,0.0779,0.0665,0.0018,0.0011,0.0295,-0.0106,-2.5582,1.4033,-3.0821
2024-10-11T12:18:42.198Z,-0.0206,-0.9974,0.1718,0.1022,0.0926,-0.0399,0.0033,0.0335,-0.0103,-2.5566,1.4033,-3.0831
2024-10-11T12:18:42.210Z,-0.0188,-0.9935,0.1766,0.1022,0.0926,-0.0399,-0.0001,0.0339,-0.0127,-2.5566,1.4033,-3.0831
2024-10-11T12:18:42.218Z,-0.0189,-0.9957,0.1795,0.1022,0.0926,-0.0399,-0.0028,0.0414,-0.0149,-2.5566,1.4033,-3.0831
2024-10-11T12:18:42.228Z,-0.0191,-0.9973,0.1820,0.0878,0.0788,-0.1148,-0.0053,0.0431,-0.0135,-2.5547,1.4033,-3.0840
2024-10-11T12:18:42.238Z,-0.0165,-0.9994,0.1837,0.0878,0.0788,-0.1148,-0.0052,0.0471,-0.0150,-2.5547,1.4033,-3.0840
2024-10-11T12:18:42.248Z,-0.0139,-0.9973,0.1850,0.0878,0.0788,-0.1148,-0.0053,0.0491,-0.0143,-2.5547,1.4033,-3.0840
2024-10-11T12:18:42.260Z,-0.0136,-0.9968,0.1855,0.0449,0.1210,-0.1885,-0.0057,0.0540,-0.0149,-2.5523,1.4035,-3.0853
2024-10-11T12:18:42.268Z,-0.0108,-0.9970,0.1852,0.0449,0.1210,-0.1885,-0.0075,0.0566,-0.0146,-2.5523,1.4035,-3.0853
2024-10-11T12:18:42.279Z,-0.0087,-0.9990,0.1871,0.0449,0.1210,-0.1885,-0.0093,0.0610,-0.0142,-2.5523,1.4035,-3.0853
2024-10-11T12:18:42.289Z,-0.0069,-0.9989,0.1861,-0.0013,0.1242,-0.2028,-0.0131,0.0610,-0.0165,-2.5499,1.4037,-3.0863
2024-10-11T12:18:42.299Z,-0.0052,-0.9979,0.1853,-0.0013,0.1242,-0.2028,-0.0106,0.0651,-0.0165,-2.5499,1.4037,-3.0863
2024-10-11T12:18:42.309Z,-0.0041,-0.9966,0.1865,-0.0013,0.1242,-0.2028,-0.0134,0.0643,-0.0116,-2.5499,1.4037,-3.0863
2024-10-11T12:18:42.318Z,-0.0030,-0.9963,0.1844,-0.0452,0.1027,-0.1998,-0.0142,0.0647,-0.0133,-2.5476,1.4041,-3.0868
2024-10-11T12:18:42.328Z,-0.0021,-0.9964,0.1834,-0.0452,0.1027,-0.1998,-0.0186,0.0624,-0.0090,-2.5476,1.4041,-3.0868
2024-10-11T12:18:42.338Z,-0.0007,-0.9937,0.1831,-0.0452,0.1027,-0.1998,-0.0204,0.0622,-0.0100,-2.5476,1.4041,-3.0868
2024-10-11T12:18:42.348Z,-0.0027,-0.9920,0.1806,-0.0858,0.0862,-0.1793,-0.0226,0.0598,-0.0064,-2.5463,1.4046,-3.0865
2024-10-11T12:18:42.358Z,-0.0012,-0.9906,0.1807,-0.0858,0.0862,-0.1793,-0.0245,0.0581,-0.0071,-2.5463,1.4046,-3.0865
2024-10-11T12:18:42.368Z,-0.0023,-0.9885,0.1767,-0.0858,0.0862,-0.1793,-0.0273,0.0563,-0.0061,-2.5463,1.4046,-3.0865
2024-10-11T12:18:42.379Z,-0.0033,-0.9841,0.1748,-0.0800,0.0285,-0.1405,-0.0290,0.0535,-0.0091,-2.5453,1.4054,-3.0860
2024-10-11T12:18:42.388Z,-0.0014,-0.9820,0.1716,-0.0800,0.0285,-0.1405,-0.0280,0.0503,-0.0064,-2.5453,1.4054,-3.0860
2024-10-11T12:18:42.398Z,-0.0015,-0.9801,0.1693,-0.0800,0.0285,-0.1405,-0.0291,0.0487,-0.0043,-2.5453,1.4054,-3.0860
2024-10-11T12:18:42.408Z,-0.0033,-0.9786,0.1664,-0.0816,-0.0538,-0.0699,-0.0288,0.0444,-0.0077,-2.5443,1.4063,-3.0858
2024-10-11T12:18:42.418Z,-0.0011,-0.9803,0.1660,-0.0816,-0.0538,-0.0699,-0.0317,0.0369,-0.0057,-2.5443,1.4063,-3.0858
2024-10-11T12:18:42.428Z,-0.0005,-0.9804,0.1653,-0.0816,-0.0538,-0.0699,-0.0268,0.0331,-0.0060,-2.5443,1.4063,-3.0858
2024-10-11T12:18:42.438Z,-0.0031,-0.9784,0.1663,-0.0775,-0.0633,-0.0226,-0.0254,0.0298,-0.0042,-2.5434,1.4072,-3.0858
2024-10-11T12:18:42.448Z,-0.0037,-0.9785,0.1642,-0.0775,-0.0633,-0.0226,-0.0260,0.0220,-0.0034,-2.5434,1.4072,-3.0858
2024-10-11T12:18:42.458Z,-0.0029,-0.9802,0.1621,-0.0775,-0.0633,-0.0226,-0.0272,0.0174,-0.0035,-2.5434,1.4072,-3.0858
2024-10-11T12:18:42.468Z,-0.0044,-0.9806,0.1628,-0.0532,-0.0663,-0.0147,-0.0281,0.0129,-0.0048,-2.5428,1.4080,-3.0861
2024-10-11T12:18:42.478Z,-0.0044,-0.9806,0.1628,-0.0532,-0.0663,-0.0147,-0.0233,0.0078,-0.0054,-2.5428,1.4080,-3.0861
2024-10-11T12:18:42.489Z,-0.0036,-0.9823,0.1582,-0.0532,-0.0663,-0.0147,-0.0242,0.0068,-0.0069,-2.5428,1.4080,-3.0861
2024-10-11T12:18:42.498Z,-0.0033,-0.9826,0.1560,-0.0558,-0.0532,0.0362,-0.0244,0.0010,-0.0043,-2.5423,1.4087,-3.0866
2024-10-11T12:18:42.508Z,-0.0029,-0.9794,0.1574,-0.0558,-0.0532,0.0362,-0.0243,-0.0032,-0.0019,-2.5423,1.4087,-3.0866
2024-10-11T12:18:42.519Z,-0.0012,-0.9781,0.1579,-0.0558,-0.0532,0.0362,-0.0250,-0.0076,-0.0027,-2.5423,1.4087,-3.0866
2024-10-11T12:18:42.529Z,0.0008,-0.9779,0.1551,-0.0653,-0.0888,0.0248,-0.0238,-0.0111,-0.0014,-2.5421,1.4093,-3.0873
2024-10-11T12:18:42.538Z,-0.0007,-0.9766,0.1566,-0.0653,-0.0888,0.0248,-0.0237,-0.0110,0.0008,-2.5421,1.4093,-3.0873
2024-10-11T12:18:42.548Z,0.0006,-0.9794,0.1544,-0.0653,-0.0888,0.0248,-0.0252,-0.0133,-0.0007,-2.5421,1.4093,-3.0873
2024-10-11T12:18:42.558Z,-0.0016,-0.9771,0.1552,-0.0929,-0.0903,0.0473,-0.0217,-0.0163,0.0003,-2.5423,1.4099,-3.0877
2024-10-11T12:18:42.568Z,-0.0030,-0.9763,0.1533,-0.0929,-0.0903,0.0473,-0.0211,-0.0151,0.0000,-2.5423,1.4099,-3.0877
2024-10-11T12:18:42.578Z,-0.0021,-0.9784,0.1528,-0.0929,-0.0903,0.0473,-0.0194,-0.0163,0.0024,-2.5423,1.4099,-3.0877
2024-10-11T12:18:42.588Z,-0.0025,-0.9813,0.1501,-0.0530,-0.0989,0.0625,-0.0201,-0.0165,0.0012,-2.5428,1.4105,-3.0879
2024-10-11T12:18:42.598Z,-0.0035,-0.9826,0.1504,-0.0530,-0.0989,0.0625,-0.0134,-0.0213,0.0009,-2.5428,1.4105,-3.0879
2024-10-11T12:18:42.608Z,-0.0037,-0.9821,0.1484,-0.0530,-0.0989,0.0625,-0.0123,-0.0222,0.0038,-2.5428,1.4105,-3.0879
2024-10-11T12:18:42.618Z,-0.0048,-0.9848,0.1485,-0.0560,-0.0443,0.0945,-0.0124,-0.0217,0.0010,-2.5432,1.4109,-3.0884
2024-10-11T12:18:42.628Z,-0.0061,-0.9826,0.1479,-0.0560,-0.0443,0.0945,-0.0103,-0.0219,0.0016,-2.5432,1.4109,-3.0884
2024-10-11T12:18:42.638Z,-0.0095,-0.9825,0.1465,-0.0560,-0.0443,0.0945,-0.0094,-0.0221,-0.0003,-2.5432,1.4109,-3.0884
2024-10-11T12:18:42.648Z,-0.0079,-0.9831,0.1457,0.0133,-0.0571,0.1098,-0.0093,-0.0222,-0.0003,-2.5435,1.4112,-3.0890
2024-10-11T12:18:42.658Z,-0.0082,-0.9847,0.1474,0.0133,-0.0571,0.1098,-0.0083,-0.0258,0.0003,-2.5435,1.4112,-3.0890
2024-10-11T12:18:42.668Z,-0.0085,-0.9865,0.1479,0.0133,-0.0571,0.1098,-0.0090,-0.0240,0.0009,-2.5435,1.4112,-3.0890
2024-10-11T12:18:42.679Z,-0.0082,-0.9871,0.1473,0.0017,-0.0153,0.1010,-0.0064,-0.0290,0.0022,-2.5434,1.4115,-3.0901
2024-10-11T12:18:42.688Z,-0.0092,-0.9851,0.1487,0.0017,-0.0153,0.1010,-0.0097,-0.0279,0.0001,-2.5434,1.4115,-3.0901
2024-10-11T12:18:42.698Z,-0.0083,-0.9882,0.1486,0.0017,-0.0153,0.1010,-0.0067,-0.0241,-0.0014,-2.5434,1.4115,-3.0901
2024-10-11T12:18:42.708Z,-0.0119,-0.9916,0.1453,0.0025,-0.0036,0.0998,-0.0056,-0.0242,-0.0029,-2.5432,1.4117,-3.0913
2024-10-11T12:18:42.718Z,-0.0106,-0.9945,0.1468,0.0025,-0.0036,0.0998,-0.0039,-0.0187,-0.0000,-2.5432,1.4117,-3.0913
2024-10-11T12:18:42.729Z,-0.0096,-0.9950,0.1467,0.0025,-0.0036,0.0998,-0.0010,-0.0185,-0.0046,-2.5432,1.4117,-3.0913
2024-10-11T12:18:42.739Z,-0.0116,-0.9960,0.1472,0.0275,0.0775,0.1038,0.0026,-0.0176,-0.0018,-2.5429,1.4119,-3.0925
2024-10-11T12:18:42.748Z,-0.0099,-0.9960,0.1491,0.0275,0.0775,0.1038,0.0045,-0.0133,-0.0029,-2.5429,1.4119,-3.0925
2024-10-11T12:18:42.758Z,-0.0088,-0.9934,0.1503,0.0275,0.0775,0.1038,0.0046,-0.0126,-0.0033,-2.5429,1.4119,-3.0925
2024-10-11T12:18:42.768Z,-0.0094,-0.9935,0.1503,0.0105,0.0625,0.0816,0.0062,-0.0113,-0.0032,-2.5425,1.4118,-3.0937
2024-10-11T12:18:42.778Z,-0.0083,-0.9897,0.1523,0.0105,0.0625,0.0816,0.0069,-0.0102,-0.0033,-2.5425,1.4118,-3.0937
2024-10-11T12:18:42.788Z,-0.0087,-0.9871,0.1548,0.0105,0.0625,0.0816,0.0101,-0.0067,-0.0021,-2.5425,1.4118,-3.0937
2024-10-11T12:18:42.798Z,-0.0087,-0.9845,0.1545,0.0093,0.0104,0.0497,0.0084,-0.0018,-0.0032,-2.5423,1.4116,-3.0943
2024-10-11T12:18:42.808Z,-0.0109,-0.9837,0.1561,0.0093,0.0104,0.0497,0.0090,-0.0006,-0.0025,-2.5423,1.4116,-3.0943
2024-10-11T12:18:42.818Z,-0.0078,-0.9820,0.1568,0.0093,0.0104,0.0497,0.0090,0.0028,-0.0016,-2.5423,1.4116,-3.0943
2024-10-11T12:18:42.829Z,-0.0099,-0.9834,0.1568,0.0112,-0.0541,0.0097,0.0064,0.0068,0.0006,-2.5422,1.4114,-3.0946
2024-10-11T12:18:42.838Z,-0.0089,-0.9825,0.1561,0.0112,-0.0541,0.0097,0.0080,0.0066,-0.0003,-2.5422,1.4114,-3.0946
2024-10-11T12:18:42.848Z,-0.0106,-0.9827,0.1556,0.0112,-0.0541,0.0097,0.0055,0.0079,-0.0013,-2.5422,1.4114,-3.0946
2024-10-11T12:18:42.858Z,-0.0099,-0.9816,0.1549,0.0292,-0.0429,0.0207,0.0067,0.0142,-0.0033,-2.5423,1.4112,-3.0945
2024-10-11T12:18:42.868Z,-0.0076,-0.9814,0.1583,0.0292,-0.0429,0.0207,0.0061,0.0139,-0.0030,-2.5423,1.4112,-3.0945
2024-10-11T12:18:42.878Z,-0.0076,-0.9836,0.1582,0.0292,-0.0429,0.0207,0.0039,0.0157,-0.0008,-2.5423,1.4112,-3.0945
2024-10-11T12:18:42.888Z,-0.0081,-0.9841,0.1561,-0.0018,-0.0488,0.0001,0.0072,0.0129,0.0014,-2.5421,1.4111,-3.0946
2024-10-11T12:18:42.898Z,-0.0056,-0.9846,0.1547,-0.0018,-0.0488,0.0001,0.0034,0.0162,0.0012,-2.5421,1.4111,-3.0946
2024-10-11T12:18:42.908Z,-0.0087,-0.9857,0.1539,-0.0018,-0.0488,0.0001,0.0065,0.0163,0.0004,-2.5421,1.4111,-3.0946
2024-10-11T12:18:42.918Z,-0.0089,-0.9843,0.1525,-0.0034,-0.0172,0.0428,0.0047,0.0196,-0.0003,-2.5423,1.4109,-3.0942
2024-10-11T12:18:42.929Z,-0.0081,-0.9846,0.1530,-0.0034,-0.0172,0.0428,0.0062,0.0226,-0.0008,-2.5423,1.4109,-3.0942
2024-10-11T12:18:42.938Z,-0.0061,-0.9841,0.1538,-0.0034,-0.0172,0.0428,0.0045,0.0252,-0.0007,-2.5423,1.4109,-3.0942
2024-10-11T12:18:42.948Z,-0.0036,-0.9823,0.1514,-0.0125,-0.0311,0.0458,0.0045,0.0272,-0.0030,-2.5429,1.4109,-3.0932
2024-10-11T12:18:42.959Z,-0.0031,-0.9836,0.1530,-0.0125,-0.0311,0.0458,0.0063,0.0285,-0.0003,-2.5429,1.4109,-3.0932
2024-10-11T12:18:42.969Z,-0.0025,-0.9836,0.1516,-0.0125,-0.0311,0.0458,0.0058,0.0304,-0.0015,-2.5429,1.4109,-3.0932
2024-10-11T12:18:42.978Z,-0.0042,-0.9841,0.1529,-0.0442,-0.0342,0.0704,0.0060,0.0331,0.0011,-2.5432,1.4107,-3.0922
2024-10-11T12:18:42.988Z,-0.0044,-0.9842,0.1547,-0.0442,-0.0342,0.0704,0.0094,0.0305,0.0038,-2.5432,1.4107,-3.0922
2024-10-11T12:18:42.998Z,-0.0055,-0.9848,0.1564,-0.0442,-0.0342,0.0704,0.0081,0.0383,0.0041,-2.5432,1.4107,-3.0922
2024-10-11T12:18:43.008Z,-0.0084,-0.9856,0.1571,-0.0359,-0.0211,0.0300,0.0069,0.0392,0.0046,-2.5440,1.4106,-3.0906
2024-10-11T12:18:43.018Z,-0.0101,-0.9845,0.1584,-0.0359,-0.0211,0.0300,0.0112,0.0410,0.0089,-2.5440,1.4106,-3.0906
2024-10-11T12:18:43.028Z,-0.0118,-0.9842,0.1602,-0.0359,-0.0211,0.0300,0.0084,0.0412,0.0089,-2.5440,1.4106,-3.0906
2024-10-11T12:18:43.038Z,-0.0143,-0.9818,0.1592,0.0266,-0.0183,0.0035,0.0099,0.0430,0.0067,-2.5452,1.4104,-3.0884
2024-10-11T12:18:43.048Z,-0.0151,-0.9821,0.1606,0.0266,-0.0183,0.0035,0.0063,0.0419,0.0088,-2.5452,1.4104,-3.0884
2024-10-11T12:18:43.058Z,-0.0184,-0.9832,0.1600,0.0266,-0.0183,0.0035,0.0059,0.0442,0.0071,-2.5452,1.4104,-3.0884
2024-10-11T12:18:43.068Z,-0.0186,-0.9829,0.1593,0.0745,-0.0417,-0.0024,0.0090,0.0436,0.0059,-2.5465,1.4102,-3.0861
2024-10-11T12:18:43.078Z,-0.0184,-0.9826,0.1581,0.0745,-0.0417,-0.0024,0.0063,0.0432,0.0043,-2.5465,1.4102,-3.0861
2024-10-11T12:18:43.087Z,-0.0168,-0.9831,0.1595,0.0745,-0.0417,-0.0024,0.0061,0.0454,0.0040,-2.5465,1.4102,-3.0861
2024-10-11T12:18:43.098Z,-0.0172,-0.9840,0.1603,0.0818,-0.0425,0.0014,0.0049,0.0452,0.0055,-2.5476,1.4100,-3.0839
2024-10-11T12:18:43.108Z,-0.0142,-0.9852,0.1614,0.0818,-0.0425,0.0014,0.0029,0.0433,0.0033,-2.5476,1.4100,-3.0839
2024-10-11T12:18:43.118Z,-0.0115,-0.9847,0.1624,0.0818,-0.0425,0.0014,0.0035,0.0409,0.0036,-2.5476,1.4100,-3.0839
2024-10-11T12:18:43.129Z,-0.0087,-0.9862,0.1633,0.0299,-0.0255,-0.0235,-0.0009,0.0431,-0.0014,-2.5481,1.4099,-3.0824
2024-10-11T12:18:43.138Z,-0.0110,-0.9882,0.1607,0.0299,-0.0255,-0.0235,0.0013,0.0414,-0.0012,-2.5481,1.4099,-3.0824
2024-10-11T12:18:43.148Z,-0.0093,-0.9895,0.1607,0.0299,-0.0255,-0.0235,-0.0050,0.0377,-0.0006,-2.5481,1.4099,-3.0824
2024-10-11T12:18:43.158Z,-0.0078,-0.9897,0.1607,0.0011,0.0183,-0.0033,-0.0061,0.0364,-0.0032,-2.5485,1.4099,-3.0811
2024-10-11T12:18:43.168Z,-0.0049,-0.9920,0.1582,0.0011,0.0183,-0.0033,-0.0055,0.0309,-0.0010,-2.5485,1.4099,-3.0811
2024-10-11T12:18:43.179Z,-0.0052,-0.9940,0.1561,0.0011,0.0183,-0.0033,-0.0055,0.0309,-0.0009,-2.5485,1.4099,-3.0811
2024-10-11T12:18:43.189Z,-0.0046,-0.9954,0.1544,-0.0467,0.0583,0.0317,-0.0063,0.0289,-0.0037,-2.5486,1.4101,-3.0803
2024-10-11T12:18:43.198Z,-0.0026,-0.9969,0.1540,-0.0467,0.0583,0.0317,-0.0058,0.0241,0.0001,-2.5486,1.4101,-3.0803
2024-10-11T12:18:43.208Z,-0.0031,-0.9974,0.1574,-0.0467,0.0583,0.0317,-0.0025,0.0221,-0.0013,-2.5486,1.4101,-3.0803
2024-10-11T12:18:43.218Z,-0.0018,-0.9995,0.1604,-0.0697,0.0920,0.0354,-0.0024,0.0225,-0.0020,-2.5484,1.4102,-3.0801
2024-10-11T12:18:43.228Z,-0.0025,-0.9991,0.1606,-0.0697,0.0920,0.0354,-0.0013,0.0209,-0.0017,-2.5484,1.4102,-3.0801
2024-10-11T12:18:43.238Z,-0.0033,-1.0026,0.1587,-0.0697,0.0920,0.0354,0.0005,0.0190,-0.0012,-2.5484,1.4102,-3.0801
2024-10-11T12:18:43.248Z,-0.0049,-1.0031,0.1597,-0.0627,0.1395,0.0084,0.0016,0.0185,0.0004,-2.5481,1.4102,-3.0800
2024-10-11T12:18:43.258Z,-0.0057,-1.0002,0.1613,-0.0627,0.1395,0.0084,0.0013,0.0149,0.0005,-2.5481,1.4102,-3.0800
2024-10-11T12:18:43.268Z,-0.0065,-0.9993,0.1586,-0.0627,0.1395,0.0084,0.0020,0.0131,0.0004,-2.5481,1.4102,-3.0800
2024-10-11T12:18:43.278Z,-0.0056,-0.9964,0.1594,-0.0309,0.1259,-0.0019,0.0017,0.0113,0.0008,-2.5483,1.4101,-3.0796
2024-10-11T12:18:43.288Z,-0.0070,-0.9917,0.1576,-0.0309,0.1259,-0.0019,0.0003,0.0129,0.0001,-2.5483,1.4101,-3.0796
2024-10-11T12:18:43.297Z,-0.0077,-0.9908,0.1539,-0.0309,0.1259,-0.0019,0.0033,0.0116,0.0008,-2.5483,1.4101,-3.0796
2024-10-11T12:18:43.308Z,-0.0063,-0.9889,0.1537,-0.0210,0.0362,0.0335,-0.0003,0.0045,0.0035,-2.5483,1.4101,-3.0796
2024-10-11T12:18:43.318Z,-0.0074,-0.9857,0.1554,-0.0210,0.0362,0.0335,-0.0004,0.0034,0.0014,-2.5483,1.4101,-3.0796
2024-10-11T12:18:43.328Z,-0.0070,-0.9822,0.1555,-0.0210,0.0362,0.0335,0.0014,0.0007,-0.0002,-2.5483,1.4101,-3.0796
2024-10-11T12:18:43.338Z,-0.0086,-0.9806,0.1566,-0.0263,-0.0387,0.0371,0.0016,-0.0012,-0.0008,-2.5484,1.4101,-3.0797
2024-10-11T12:18:43.348Z,-0.0080,-0.9779,0.1574,-0.0263,-0.0387,0.0371,-0.0008,-0.0052,-0.0004,-2.5484,1.4101,-3.0797
2024-10-11T12:18:43.358Z,-0.0097,-0.9781,0.1551,-0.0263,-0.0387,0.0371,0.0034,-0.0049,-0.0012,-2.5484,1.4101,-3.0797
2024-10-11T12:18:43.368Z,-0.0092,-0.9774,0.1548,-0.0004,-0.0935,0.0384,0.0033,-0.0087,-0.0008,-2.5481,1.4100,-3.0803
2024-10-11T12:18:43.379Z,-0.0084,-0.9761,0.1549,-0.0004,-0.0935,0.0384,0.0057,-0.0095,-0.0054,-2.5481,1.4100,-3.0803
2024-10-11T12:18:43.389Z,-0.0056,-0.9779,0.1559,-0.0004,-0.0935,0.0384,0.0061,-0.0106,-0.0026,-2.5481,1.4100,-3.0803
2024-10-11T12:18:43.398Z,-0.0050,-0.9770,0.1520,-0.0251,-0.0973,0.0454,0.0088,-0.0112,-0.0030,-2.5477,1.4098,-3.0813
2024-10-11T12:18:43.409Z,-0.0046,-0.9791,0.1542,-0.0251,-0.0973,0.0454,0.0122,-0.0163,-0.0011,-2.5477,1.4098,-3.0813
2024-10-11T12:18:43.419Z,-0.0024,-0.9799,0.1545,-0.0251,-0.0973,0.0454,0.0125,-0.0180,-0.0007,-2.5477,1.4098,-3.0813
2024-10-11T12:18:43.428Z,-0.0031,-0.9820,0.1531,-0.0540,-0.0810,0.0618,0.0132,-0.0198,-0.0007,-2.5473,1.4095,-3.0824
2024-10-11T12:18:43.438Z,-0.0028,-0.9823,0.1531,-0.0540,-0.0810,0.0618,0.0125,-0.0203,-0.0002,-2.5473,1.4095,-3.0824
2024-10-11T12:18:43.448Z,-0.0014,-0.9841,0.1548,-0.0540,-0.0810,0.0618,0.0104,-0.0219,0.0006,-2.5473,1.4095,-3.0824
2024-10-11T12:18:43.458Z,-0.0018,-0.9851,0.1548,-0.0747,-0.0360,0.0698,0.0098,-0.0248,0.0024,-2.5472,1.4091,-3.0833
2024-10-11T12:18:43.468Z,-0.0011,-0.9870,0.1545,-0.0747,-0.0360,0.0698,0.0113,-0.0216,0.0030,-2.5472,1.4091,-3.0833
2024-10-11T12:18:43.478Z,-0.0012,-0.9882,0.1545,-0.0747,-0.0360,0.0698,0.0092,-0.0217,0.0019,-2.5472,1.4091,-3.0833
2024-10-11T12:18:43.488Z,-0.0028,-0.9890,0.1540,-0.0832,0.0117,0.0625,0.0106,-0.0208,0.0027,-2.5476,1.4088,-3.0839
2024-10-11T12:18:43.498Z,-0.0061,-0.9908,0.1540,-0.0832,0.0117,0.0625,0.0117,-0.0212,0.0058,-2.5476,1.4088,-3.0839
2024-10-11T12:18:43.508Z,-0.0045,-0.9888,0.1553,-0.0832,0.0117,0.0625,0.0115,-0.0221,0.0031,-2.5476,1.4088,-3.0839
2024-10-11T12:18:43.518Z,-0.0064,-0.9898,0.1557,-0.0445,0.0177,0.0675,0.0096,-0.0207,0.0041,-2.5482,1.4085,-3.0842
2024-10-11T12:18:43.528Z,-0.0082,-0.9880,0.1543,-0.0445,0.0177,0.0675,0.0081,-0.0181,0.0055,-2.5482,1.4085,-3.0842
2024-10-11T12:18:43.538Z,-0.0071,-0.9861,0.1556,-0.0445,0.0177,0.0675,0.0120,-0.0195,0.0064,-2.5482,1.4085,-3.0842
2024-10-11T12:18:43.548Z,-0.0090,-0.9850,0.1543,-0.0118,0.0065,0.0547,0.0110,-0.0139,0.0085,-2.5493,1.4081,-3.0839
2024-10-11T12:18:43.558Z,-0.0116,-0.9828,0.1553,-0.0118,0.0065,0.0547,0.0150,-0.0151,0.0070,-2.5493,1.4081,-3.0839
2024-10-11T12:18:43.568Z,-0.0117,-0.9779,0.1598,-0.0118,0.0065,0.0547,0.0127,-0.0124,0.0071,-2.5493,1.4081,-3.0839
2024-10-11T12:18:43.578Z,-0.0132,-0.9785,0.1604,0.0306,-0.0808,0.0371,0.0113,-0.0108,0.0057,-2.5502,1.4077,-3.0837
2024-10-11T12:18:43.588Z,-0.0144,-0.9783,0.1608,0.0306,-0.0808,0.0371,0.0112,-0.0051,0.0060,-2.5502,1.4077,-3.0837
2024-10-11T12:18:43.598Z,-0.0138,-0.9796,0.1617,0.0306,-0.0808,0.0371,0.0129,-0.0062,0.0042,-2.5502,1.4077,-3.0837
2024-10-11T12:18:43.608Z,-0.0165,-0.9828,0.1614,0.0489,-0.0770,0.0164,0.0126,0.0011,0.0075,-2.5513,1.4074,-3.0831
2024-10-11T12:18:43.619Z,-0.0177,-0.9839,0.1625,0.0489,-0.0770,0.0164,0.0106,0.0011,0.0052,-2.5513,1.4074,-3.0831
2024-10-11T12:18:43.630Z,-0.0152,-0.9864,0.1646,0.0489,-0.0770,0.0164,0.0106,0.0035,0.0054,-2.5513,1.4074,-3.0831
2024-10-11T12:18:43.638Z,-0.0155,-0.9879,0.1657,0.0575,-0.0119,-0.0088,0.0062,0.0049,0.0023,-2.5520,1.4071,-3.0826
2024-10-11T12:18:43.648Z,-0.0145,-0.9887,0.1647,0.0575,-0.0119,-0.0088,0.0056,0.0082,0.0030,-2.5520,1.4071,-3.0826
2024-10-11T12:18:43.658Z,-0.0141,-0.9899,0.1672,0.0575,-0.0119,-0.0088,0.0080,0.0102,0.0041,-2.5520,1.4071,-3.0826
2024-10-11T12:18:43.668Z,-0.0138,-0.9915,0.1692,0.0407,0.0257,-0.0253,0.0050,0.0077,0.0018,-2.5530,1.4069,-3.0817
2024-10-11T12:18:43.678Z,-0.0153,-0.9916,0.1693,0.0407,0.0257,-0.0253,0.0056,0.0118,0.0018,-2.5530,1.4069,-3.0817
2024-10-11T12:18:43.688Z,-0.0152,-0.9899,0.1717,0.0407,0.0257,-0.0253,0.0032,0.0115,0.0035,-2.5530,1.4069,-3.0817
2024-10-11T12:18:43.700Z,-0.0140,-0.9903,0.1735,0.0664,0.0402,-0.0788,0.0020,0.0178,-0.0003,-2.5537,1.4067,-3.0808
2024-10-11T12:18:43.708Z,-0.0142,-0.9903,0.1709,0.0664,0.0402,-0.0788,0.0020,0.0178,-0.0003,-2.5537,1.4067,-3.0808
2024-10-11T12:18:43.718Z,-0.0135,-0.9902,0.1724,0.0664,0.0402,-0.0788,0.0002,0.0169,-0.0016,-2.5537,1.4067,-3.0808
2024-10-11T12:18:43.729Z,-0.0110,-0.9888,0.1732,0.0438,0.0440,-0.0821,-0.0014,0.0196,0.0016,-2.5543,1.4067,-3.0800
2024-10-11T12:18:43.738Z,-0.0135,-0.9897,0.1706,0.0438,0.0440,-0.0821,-0.0041,0.0184,0.0020,-2.5543,1.4067,-3.0800
2024-10-11T12:18:43.748Z,-0.0143,-0.9911,0.1720,0.0438,0.0440,-0.0821,-0.0035,0.0202,-0.0005,-2.5543,1.4067,-3.0800
2024-10-11T12:18:43.758Z,-0.0130,-0.9935,0.1711,0.0330,0.0344,-0.0761,-0.0017,0.0190,-0.0015,-2.5546,1.4067,-3.0794
2024-10-11T12:18:43.770Z,-0.0122,-0.9948,0.1665,0.0330,0.0344,-0.0761,-0.0006,0.0209,-0.0025,-2.5546,1.4067,-3.0794
2024-10-11T12:18:43.780Z,-0.0143,-0.9940,0.1690,0.0295,0.0717,-0.0484,-0.0006,0.0209,-0.0025,-2.5546,1.4066,-3.0791
2024-10-11T12:18:43.788Z,-0.0153,-0.9933,0.1685,0.0295,0.0717,-0.0484,-0.0040,0.0226,-0.0045,-2.5546,1.4066,-3.0791
2024-10-11T12:18:43.798Z,-0.0137,-0.9899,0.1676,0.0295,0.0717,-0.0484,-0.0055,0.0197,-0.0031,-2.5546,1.4066,-3.0791
2024-10-11T12:18:43.808Z,-0.0121,-0.9904,0.1680,0.0295,0.0717,-0.0484,-0.0040,0.0235,-0.0043,-2.5546,1.4066,-3.0791
2024-10-11T12:18:43.818Z,-0.0111,-0.9892,0.1688,0.0288,0.0347,-0.0491,-0.0068,0.0239,-0.0040,-2.5545,1.4065,-3.0788
2024-10-11T12:18:43.829Z,-0.0099,-0.9863,0.1670,0.0288,0.0347,-0.0491,-0.0062,0.0214,-0.0038,-2.5545,1.4065,-3.0788
2024-10-11T12:18:43.839Z,-0.0101,-0.9861,0.1683,0.0288,0.0347,-0.0491,-0.0121,0.0230,-0.0041,-2.5545,1.4065,-3.0788
2024-10-11T12:18:43.847Z,-0.0093,-0.9846,0.1673,-0.0038,-0.0129,-0.0495,-0.0092,0.0209,-0.0055,-2.5546,1.4064,-3.0782
2024-10-11T12:18:43.859Z,-0.0108,-0.9861,0.1655,-0.0038,-0.0129,-0.0495,-0.0115,0.0216,-0.0026,-2.5546,1.4064,-3.0782
2024-10-11T12:18:43.870Z,-0.0102,-0.9863,0.1669,-0.0038,-0.0129,-0.0495,-0.0125,0.0214,-0.0071,-2.5546,1.4064,-3.0782
2024-10-11T12:18:43.879Z,-0.0108,-0.9860,0.1665,0.0046,0.0010,-0.0358,-0.0125,0.0214,-0.0071,-2.5544,1.4066,-3.0780
2024-10-11T12:18:43.889Z,-0.0101,-0.9896,0.1637,0.0046,0.0010,-0.0358,-0.0108,0.0201,-0.0044,-2.5544,1.4066,-3.0780
2024-10-11T12:18:43.900Z,-0.0100,-0.9923,0.1631,0.0017,0.0558,-0.0002,-0.0110,0.0169,-0.0057,-2.5539,1.4069,-3.0782
2024-10-11T12:18:43.908Z,-0.0103,-0.9897,0.1650,0.0017,0.0558,-0.0002,-0.0110,0.0169,-0.0057,-2.5539,1.4069,-3.0782
2024-10-11T12:18:43.918Z,-0.0130,-0.9911,0.1630,0.0017,0.0558,-0.0002,-0.0085,0.0136,-0.0058,-2.5539,1.4069,-3.0782
2024-10-11T12:18:43.930Z,-0.0129,-0.9907,0.1621,0.0318,0.0431,-0.0057,-0.0089,0.0125,-0.0057,-2.5531,1.4071,-3.0789
2024-10-11T12:18:43.939Z,-0.0117,-0.9907,0.1630,0.0318,0.0431,-0.0057,-0.0069,0.0033,-0.0070,-2.5531,1.4071,-3.0789
2024-10-11T12:18:43.949Z,-0.0162,-0.9901,0.1623,0.0318,0.0431,-0.0057,-0.0071,0.0005,-0.0079,-2.5531,1.4071,-3.0789
2024-10-11T12:18:43.959Z,-0.0142,-0.9906,0.1586,0.0318,0.0431,-0.0057,-0.0072,-0.0022,-0.0101,-2.5531,1.4071,-3.0789
2024-10-11T12:18:43.969Z,-0.0125,-0.9901,0.1596,0.0514,0.0388,0.0300,-0.0018,-0.0068,-0.0073,-2.5521,1.4072,-3.0800
2024-10-11T12:18:43.979Z,-0.0109,-0.9886,0.1606,0.0514,0.0388,0.0300,-0.0018,-0.0068,-0.0073,-2.5521,1.4072,-3.0800
2024-10-11T12:18:43.989Z,-0.0108,-0.9887,0.1622,0.0514,0.0388,0.0300,-0.0035,-0.0135,-0.0086,-2.5521,1.4072,-3.0800
2024-10-11T12:18:43.999Z,-0.0105,-0.9872,0.1626,0.0101,0.0143,0.0085,-0.0059,-0.0162,-0.0077,-2.5508,1.4073,-3.0818
2024-10-11T12:18:44.009Z,-0.0069,-0.9875,0.1611,0.0101,0.0143,0.0085,-0.0013,-0.0174,-0.0075,-2.5508,1.4073,-3.0818
2024-10-11T12:18:44.019Z,-0.0082,-0.9876,0.1593,0.0101,0.0143,0.0085,-0.0031,-0.0179,-0.0075,-2.5508,1.4073,-3.0818
2024-10-11T12:18:44.029Z,-0.0081,-0.9853,0.1615,-0.0261,0.0155,0.0293,-0.0031,-0.0179,-0.0075,-2.5501,1.4073,-3.0832
2024-10-11T12:18:44.038Z,-0.0085,-0.9805,0.1630,-0.0261,0.0155,0.0293,-0.0008,-0.0158,-0.0077,-2.5501,1.4073,-3.0832
2024-10-11T12:18:44.049Z,-0.0103,-0.9795,0.1631,-0.0261,0.0155,0.0293,-0.0014,-0.0152,-0.0068,-2.5501,1.4073,-3.0832
2024-10-11T12:18:44.059Z,-0.0079,-0.9767,0.1617,0.0053,-0.0595,-0.0063,0.0000,-0.0127,-0.0069,-2.5498,1.4073,-3.0842
2024-10-11T12:18:44.069Z,-0.0071,-0.9760,0.1622,0.0053,-0.0595,-0.0063,0.0012,-0.0132,-0.0031,-2.5498,1.4073,-3.0842
2024-10-11T12:18:44.081Z,-0.0054,-0.9742,0.1627,-0.0295,-0.1174,-0.0069,-0.0011,-0.0107,-0.0079,-2.5489,1.4073,-3.0858
2024-10-11T12:18:44.088Z,-0.0055,-0.9736,0.1614,-0.0295,-0.1174,-0.0069,-0.0022,-0.0092,-0.0052,-2.5489,1.4073,-3.0858
2024-10-11T12:18:44.098Z,-0.0059,-0.9743,0.1626,-0.0295,-0.1174,-0.0069,-0.0022,-0.0092,-0.0052,-2.5489,1.4073,-3.0858
2024-10-11T12:18:44.109Z,-0.0075,-0.9758,0.1621,-0.0295,-0.1174,-0.0069,-0.0005,-0.0046,-0.0030,-2.5489,1.4073,-3.0858
2024-10-11T12:18:44.119Z,-0.0078,-0.9773,0.1645,-0.0199,-0.1128,-0.0047,0.0009,-0.0054,-0.0012,-2.5483,1.4073,-3.0869
2024-10-11T12:18:44.130Z,-0.0078,-0.9776,0.1647,-0.0199,-0.1128,-0.0047,-0.0020,-0.0020,-0.0035,-2.5483,1.4073,-3.0869
2024-10-11T12:18:44.139Z,-0.0023,-0.9802,0.1638,-0.0199,-0.1128,-0.0047,-0.0038,0.0010,-0.0027,-2.5483,1.4073,-3.0869
2024-10-11T12:18:44.149Z,-0.0048,-0.9809,0.1655,-0.0310,-0.0706,-0.0156,-0.0009,0.0032,-0.0006,-2.5478,1.4073,-3.0877
2024-10-11T12:18:44.158Z,-0.0042,-0.9820,0.1676,-0.0310,-0.0706,-0.0156,-0.0013,0.0036,-0.0004,-2.5478,1.4073,-3.0877
2024-10-11T12:18:44.169Z,-0.0054,-0.9811,0.1677,-0.0310,-0.0706,-0.0156,-0.0014,0.0072,0.0014,-2.5478,1.4073,-3.0877
2024-10-11T12:18:44.180Z,-0.0063,-0.9844,0.1644,-0.0401,-0.0544,-0.0627,-0.0022,0.0061,0.0014,-2.5479,1.4074,-3.0877
2024-10-11T12:18:44.189Z,-0.0066,-0.9850,0.1649,-0.0401,-0.0544,-0.0627,-0.0001,0.0078,-0.0007,-2.5479,1.4074,-3.0877
2024-10-11T12:18:44.199Z,-0.0085,-0.9872,0.1646,-0.0401,-0.0544,-0.0627,0.0025,0.0067,-0.0003,-2.5479,1.4074,-3.0877
2024-10-11T12:18:44.209Z,-0.0116,-0.9874,0.1656,-0.0102,0.0054,-0.0184,0.0021,0.0058,0.0005,-2.5480,1.4073,-3.0877
2024-10-11T12:18:44.219Z,-0.0092,-0.9896,0.1669,-0.0102,0.0054,-0.0184,0.0008,0.0070,-0.0014,-2.5480,1.4073,-3.0877
2024-10-11T12:18:44.231Z,-0.0087,-0.9917,0.1662,0.0056,0.0442,-0.0372,0.0023,0.0113,-0.0004,-2.5481,1.4072,-3.0877
2024-10-11T12:18:44.238Z,-0.0095,-0.9934,0.1630,0.0056,0.0442,-0.0372,0.0036,0.0060,-0.0005,-2.5481,1.4072,-3.0877
2024-10-11T12:18:44.249Z,-0.0092,-0.9957,0.1649,0.0056,0.0442,-0.0372,0.0025,0.0087,-0.0023,-2.5481,1.4072,-3.0877
2024-10-11T12:18:44.259Z,-0.0089,-0.9958,0.1639,-0.0011,0.0879,-0.0043,0.0025,0.0087,-0.0023,-2.5481,1.4071,-3.0876
2024-10-11T12:18:44.268Z,-0.0078,-0.9970,0.1653,-0.0011,0.0879,-0.0043,0.0026,0.0122,-0.0023,-2.5481,1.4071,-3.0876
2024-10-11T12:18:44.281Z,-0.0086,-0.9955,0.1667,-0.0011,0.0879,-0.0043,0.0013,0.0123,-0.0004,-2.5481,1.4071,-3.0876
2024-10-11T12:18:44.289Z,-0.0072,-0.9934,0.1675,-0.0102,0.0790,-0.0446,0.0005,0.0129,0.0012,-2.5480,1.4071,-3.0876
2024-10-11T12:18:44.299Z,-0.0078,-0.9915,0.1665,-0.0102,0.0790,-0.0446,-0.0021,0.0132,-0.0010,-2.5480,1.4071,-3.0876
2024-10-11T12:18:44.308Z,-0.0071,-0.9902,0.1671,-0.0102,0.0790,-0.0446,-0.0045,0.0153,0.0021,-2.5480,1.4071,-3.0876
2024-10-11T12:18:44.320Z,-0.0066,-0.9877,0.1674,-0.0147,0.0211,-0.0427,-0.0010,0.0152,0.0022,-2.5483,1.4070,-3.0872
2024-10-11T12:18:44.329Z,-0.0070,-0.9851,0.1673,-0.0147,0.0211,-0.0427,-0.0037,0.0173,0.0033,-2.5483,1.4070,-3.0872
2024-10-11T12:18:44.338Z,-0.0069,-0.9830,0.1692,-0.0147,0.0211,-0.0427,-0.0028,0.0164,0.0022,-2.5483,1.4070,-3.0872
2024-10-11T12:18:44.348Z,-0.0066,-0.9823,0.1676,-0.0147,0.0211,-0.0427,-0.0025,0.0186,0.0007,-2.5483,1.4070,-3.0872
2024-10-11T12:18:44.358Z,-0.0047,-0.9846,0.1700,-0.0222,-0.0385,-0.0424,-0.0057,0.0194,0.0045,-2.5488,1.4071,-3.0865
2024-10-11T12:18:44.368Z,-0.0073,-0.9829,0.1678,-0.0222,-0.0385,-0.0424,-0.0063,0.0204,0.0065,-2.5488,1.4071,-3.0865
2024-10-11T12:18:44.381Z,-0.0049,-0.9826,0.1671,-0.0332,-0.0427,-0.0547,-0.0074,0.0214,0.0070,-2.5499,1.4072,-3.0851
2024-10-11T12:18:44.388Z,-0.0032,-0.9828,0.1656,-0.0332,-0.0427,-0.0547,-0.0076,0.0234,0.0073,-2.5499,1.4072,-3.0851
2024-10-11T12:18:44.399Z,-0.0032,-0.9832,0.1648,-0.0332,-0.0427,-0.0547,-0.0095,0.0257,0.0067,-2.5499,1.4072,-3.0851
2024-10-11T12:18:44.410Z,-0.0054,-0.9870,0.1602,-0.0509,-0.0158,0.0036,-0.0091,0.0243,0.0083,-2.5515,1.4074,-3.0830
2024-10-11T12:18:44.418Z,-0.0057,-0.9876,0.1596,-0.0509,-0.0158,0.0036,-0.0104,0.0262,0.0106,-2.5515,1.4074,-3.0830
2024-10-11T12:18:44.429Z,-0.0072,-0.9864,0.1582,-0.0509,-0.0158,0.0036,-0.0092,0.0262,0.0087,-2.5515,1.4074,-3.0830
2024-10-11T12:18:44.439Z,-0.0070,-0.9860,0.1533,-0.0259,-0.0014,0.0695,-0.0068,0.0253,0.0086,-2.5532,1.4076,-3.0808
2024-10-11T12:18:44.448Z,-0.0074,-0.9853,0.1529,-0.0259,-0.0014,0.0695,-0.0068,0.0253,0.0086,-2.5532,1.4076,-3.0808
2024-10-11T12:18:44.458Z,-0.0094,-0.9863,0.1527,-0.0259,-0.0014,0.0695,-0.0077,0.0255,0.0072,-2.5532,1.4076,-3.0808
2024-10-11T12:18:44.468Z,-0.0101,-0.9874,0.1495,0.0002,0.0115,0.1098,-0.0077,0.0255,0.0072,-2.5550,1.4078,-3.0786
2024-10-11T12:18:44.481Z,-0.0084,-0.9885,0.1469,0.0002,0.0115,0.1098,-0.0038,0.0183,0.0084,-2.5550,1.4078,-3.0786
2024-10-11T12:18:44.488Z,-0.0087,-0.9896,0.1465,0.0002,0.0115,0.1098,-0.0058,0.0183,0.0090,-2.5550,1.4078,-3.0786
2024-10-11T12:18:44.499Z,-0.0130,-0.9896,0.1473,0.0089,0.0331,0.1523,-0.0058,0.0183,0.0090,-2.5565,1.4079,-3.0768
2024-10-11T12:18:44.509Z,-0.0131,-0.9895,0.1513,0.0089,0.0331,0.1523,-0.0015,0.0140,0.0068,-2.5565,1.4079,-3.0768
2024-10-11T12:18:44.518Z,-0.0142,-0.9874,0.1541,0.0089,0.0331,0.1523,-0.0006,0.0112,0.0038,-2.5565,1.4079,-3.0768
2024-10-11T12:18:44.532Z,-0.0155,-0.9886,0.1554,0.0373,0.0146,0.0703,0.0014,0.0104,0.0006,-2.5574,1.4079,-3.0757
2024-10-11T12:18:44.538Z,-0.0131,-0.9893,0.1574,0.0373,0.0146,0.0703,-0.0005,0.0058,0.0017,-2.5574,1.4079,-3.0757
2024-10-11T12:18:44.548Z,-0.0142,-0.9885,0.1595,0.0373,0.0146,0.0703,0.0023,0.0032,0.0009,-2.5574,1.4079,-3.0757
2024-10-11T12:18:44.559Z,-0.0136,-0.9871,0.1616,0.0410,0.0095,0.0089,-0.0005,0.0037,0.0024,-2.5581,1.4079,-3.0751
2024-10-11T12:18:44.568Z,-0.0105,-0.9832,0.1651,0.0410,0.0095,0.0089,0.0007,0.0002,0.0004,-2.5581,1.4079,-3.0751
2024-10-11T12:18:44.578Z,-0.0121,-0.9818,0.1701,0.0410,0.0095,0.0089,0.0013,0.0001,0.0005,-2.5581,1.4079,-3.0751
2024-10-11T12:18:44.588Z,-0.0106,-0.9812,0.1692,0.0410,0.0095,0.0089,-0.0011,-0.0027,-0.0008,-2.5581,1.4079,-3.0751
2024-10-11T12:18:44.599Z,-0.0090,-0.9817,0.1680,0.0063,-0.0597,-0.0743,-0.0027,-0.0042,0.0015,-2.5582,1.4079,-3.0753
2024-10-11T12:18:44.608Z,-0.0083,-0.9829,0.1685,0.0063,-0.0597,-0.0743,0.0000,-0.0072,0.0006,-2.5582,1.4079,-3.0753
2024-10-11T12:18:44.619Z,-0.0058,-0.9846,0.1683,-0.0296,-0.0219,-0.0666,0.0013,-0.0078,-0.0013,-2.5583,1.4080,-3.0756
2024-10-11T12:18:44.628Z,-0.0070,-0.9844,0.1717,-0.0296,-0.0219,-0.0666,-0.0004,-0.0082,-0.0011,-2.5583,1.4080,-3.0756
2024-10-11T12:18:44.638Z,-0.0087,-0.9880,0.1694,-0.0296,-0.0219,-0.0666,-0.0031,-0.0099,-0.0024,-2.5583,1.4080,-3.0756
2024-10-11T12:18:44.648Z,-0.0055,-0.9899,0.1676,-0.0377,0.0271,-0.0661,-0.0004,-0.0107,-0.0020,-2.5583,1.4079,-3.0761
2024-10-11T12:18:44.658Z,-0.0060,-0.9905,0.1663,-0.0377,0.0271,-0.0661,0.0009,-0.0090,0.0013,-2.5583,1.4079,-3.0761
2024-10-11T12:18:44.668Z,-0.0037,-0.9919,0.1681,-0.0377,0.0271,-0.0661,-0.0003,-0.0108,0.0010,-2.5583,1.4079,-3.0761
2024-10-11T12:18:44.680Z,-0.0053,-0.9922,0.1660,-0.0592,0.0570,-0.0404,0.0022,-0.0095,0.0010,-2.5585,1.4079,-3.0765
2024-10-11T12:18:44.688Z,-0.0043,-0.9903,0.1683,-0.0592,0.0570,-0.0404,0.0021,-0.0070,0.0010,-2.5585,1.4079,-3.0765
2024-10-11T12:18:44.698Z,-0.0034,-0.9880,0.1687,-0.0592,0.0570,-0.0404,0.0007,-0.0088,-0.0014,-2.5585,1.4079,-3.0765
2024-10-11T12:18:44.709Z,-0.0074,-0.9867,0.1672,-0.0529,0.0072,-0.0562,-0.0009,-0.0097,0.0015,-2.5587,1.4078,-3.0768
2024-10-11T12:18:44.718Z,-0.0086,-0.9848,0.1689,-0.0529,0.0072,-0.0562,-0.0031,-0.0092,0.0013,-2.5587,1.4078,-3.0768
2024-10-11T12:18:44.729Z,-0.0083,-0.9846,0.1681,-0.0529,0.0072,-0.0562,-0.0003,-0.0095,0.0013,-2.5587,1.4078,-3.0768
2024-10-11T12:18:44.739Z,-0.0089,-0.9818,0.1685,-0.0100,-0.0410,-0.0529,-0.0028,-0.0088,-0.0003,-2.5587,1.4078,-3.0773
2024-10-11T12:18:44.748Z,-0.0098,-0.9824,0.1663,-0.0100,-0.0410,-0.0529,-0.0018,-0.0057,0.0007,-2.5587,1.4078,-3.0773
2024-10-11T12:18:44.758Z,-0.0121,-0.9837,0.1664,-0.0100,-0.0410,-0.0529,-0.0034,-0.0047,-0.0008,-2.5587,1.4078,-3.0773
2024-10-11T12:18:44.768Z,-0.0140,-0.9841,0.1649,0.0223,-0.0295,-0.0367,-0.0020,-0.0032,-0.0043,-2.5583,1.4078,-3.0781
2024-10-11T12:18:44.778Z,-0.0151,-0.9875,0.1645,0.0223,-0.0295,-0.0367,-0.0026,-0.0028,-0.0020,-2.5583,1.4078,-3.0781
2024-10-11T12:18:44.788Z,-0.0134,-0.9888,0.1637,0.0223,-0.0295,-0.0367,-0.0035,-0.0014,-0.0045,-2.5583,1.4078,-3.0781
2024-10-11T12:18:44.799Z,-0.0161,-0.9888,0.1639,0.0480,0.0320,-0.0144,-0.0035,-0.0014,-0.0045,-2.5575,1.4078,-3.0792
