time,gFx,gFy,gFz,ax,ay,az,wx,wy,wz,yaw,pitch,roll
2024-10-11T13:35:30.291Z,0.0343,-0.9747,0.2075,-0.0154,-0.0861,-0.0430,-0.0160,-0.0249,0.0041,-2.9729,1.3643,2.9968
2024-10-11T13:35:30.300Z,0.0347,-0.9668,0.2091,-0.0154,-0.0861,-0.0430,-0.0149,-0.0266,0.0018,-2.9729,1.3643,2.9968
2024-10-11T13:35:30.310Z,0.0305,-0.9692,0.2069,-0.0154,-0.0861,-0.0430,-0.0166,-0.0306,0.0042,-2.9729,1.3643,2.9968
2024-10-11T13:35:30.320Z,0.0359,-0.9660,0.2092,-0.0616,-0.1260,-0.0675,-0.0148,-0.0334,0.0041,-2.9732,1.3648,2.9960
2024-10-11T13:35:30.330Z,0.0294,-0.9701,0.2101,-0.0616,-0.1260,-0.0675,-0.0185,-0.0339,0.0009,-2.9732,1.3648,2.9960
2024-10-11T13:35:30.340Z,0.0321,-0.9683,0.2098,-0.0616,-0.1260,-0.0675,-0.0164,-0.0395,0.0030,-2.9732,1.3648,2.9960
2024-10-11T13:35:30.350Z,0.0414,-0.9696,0.2062,-0.1135,-0.0919,-0.0425,-0.0158,-0.0388,0.0039,-2.9734,1.3653,2.9948
2024-10-11T13:35:30.359Z,0.0384,-0.9685,0.2052,-0.1135,-0.0919,-0.0425,-0.0143,-0.0411,0.0031,-2.9734,1.3653,2.9948
2024-10-11T13:35:30.370Z,0.0439,-0.9676,0.2024,-0.1135,-0.0919,-0.0425,-0.0163,-0.0432,0.0047,-2.9734,1.3653,2.9948
2024-10-11T13:35:30.379Z,0.0397,-0.9689,0.2024,-0.0958,-0.0995,-0.0097,-0.0128,-0.0454,0.0066,-2.9740,1.3657,2.9938
2024-10-11T13:35:30.390Z,0.0395,-0.9731,0.1998,-0.0958,-0.0995,-0.0097,-0.0127,-0.0476,0.0065,-2.9740,1.3657,2.9938
2024-10-11T13:35:30.399Z,0.0377,-0.9741,0.2010,-0.0958,-0.0995,-0.0097,-0.0138,-0.0481,0.0059,-2.9740,1.3657,2.9938
2024-10-11T13:35:30.410Z,0.0377,-0.9715,0.1998,-0.0744,-0.0743,0.0127,-0.0128,-0.0533,0.0071,-2.9748,1.3660,2.9929
2024-10-11T13:35:30.420Z,0.0397,-0.9690,0.1972,-0.0744,-0.0743,0.0127,-0.0101,-0.0529,0.0060,-2.9748,1.3660,2.9929
2024-10-11T13:35:30.430Z,0.0382,-0.9703,0.1982,-0.0744,-0.0743,0.0127,-0.0089,-0.0556,0.0078,-2.9748,1.3660,2.9929
2024-10-11T13:35:30.440Z,0.0353,-0.9700,0.1980,-0.0507,-0.0899,0.0271,-0.0062,-0.0575,0.0081,-2.9763,1.3663,2.9925
2024-10-11T13:35:30.449Z,0.0315,-0.9728,0.1973,-0.0507,-0.0899,0.0271,-0.0069,-0.0554,0.0075,-2.9763,1.3663,2.9925
2024-10-11T13:35:30.460Z,0.0296,-0.9762,0.1972,-0.0507,-0.0899,0.0271,-0.0050,-0.0562,0.0086,-2.9763,1.3663,2.9925
2024-10-11T13:35:30.470Z,0.0297,-0.9771,0.1967,0.0048,-0.0208,0.0379,-0.0049,-0.0544,0.0085,-2.9780,1.3665,2.9923
2024-10-11T13:35:30.480Z,0.0272,-0.9778,0.1979,0.0048,-0.0208,0.0379,-0.0041,-0.0535,0.0092,-2.9780,1.3665,2.9923
2024-10-11T13:35:30.490Z,0.0245,-0.9749,0.1999,0.0048,-0.0208,0.0379,-0.0052,-0.0508,0.0084,-2.9780,1.3665,2.9923
2024-10-11T13:35:30.499Z,0.0252,-0.9748,0.1980,0.0485,-0.0432,0.0246,-0.0067,-0.0476,0.0099,-2.9799,1.3667,2.9924
2024-10-11T13:35:30.510Z,0.0236,-0.9788,0.1946,0.0485,-0.0432,0.0246,-0.0063,-0.0469,0.0083,-2.9799,1.3667,2.9924
2024-10-11T13:35:30.520Z,0.0238,-0.9823,0.1931,0.0485,-0.0432,0.0246,-0.0065,-0.0364,0.0086,-2.9799,1.3667,2.9924
2024-10-11T13:35:30.530Z,0.0235,-0.9822,0.1936,0.0635,0.0285,0.0653,-0.0058,-0.0359,0.0085,-2.9819,1.3668,2.9928
2024-10-11T13:35:30.540Z,0.0242,-0.9815,0.1939,0.0635,0.0285,0.0653,-0.0017,-0.0294,0.0106,-2.9819,1.3668,2.9928
2024-10-11T13:35:30.550Z,0.0228,-0.9814,0.1951,0.0635,0.0285,0.0653,-0.0047,-0.0266,0.0105,-2.9819,1.3668,2.9928
2024-10-11T13:35:30.560Z,0.0229,-0.9817,0.1983,0.0673,0.0235,0.0182,-0.0043,-0.0236,0.0108,-2.9840,1.3670,2.9939
2024-10-11T13:35:30.570Z,0.0206,-0.9824,0.1950,0.0673,0.0235,0.0182,-0.0032,-0.0195,0.0102,-2.9840,1.3670,2.9939
2024-10-11T13:35:30.579Z,0.0185,-0.9818,0.1927,0.0673,0.0235,0.0182,-0.0028,-0.0177,0.0092,-2.9840,1.3670,2.9939
2024-10-11T13:35:30.590Z,0.0143,-0.9823,0.1913,0.1489,0.0287,0.0855,-0.0027,-0.0122,0.0085,-2.9861,1.3672,2.9952
2024-10-11T13:35:30.600Z,0.0158,-0.9825,0.1893,0.1489,0.0287,0.0855,-0.0026,-0.0098,0.0087,-2.9861,1.3672,2.9952
2024-10-11T13:35:30.610Z,0.0178,-0.9820,0.1871,0.1489,0.0287,0.0855,-0.0040,-0.0081,0.0090,-2.9861,1.3672,2.9952
2024-10-11T13:35:30.620Z,0.0184,-0.9806,0.1843,0.1071,0.0125,0.1533,-0.0032,-0.0073,0.0086,-2.9876,1.3673,2.9961
2024-10-11T13:35:30.630Z,0.0162,-0.9802,0.1862,0.1071,0.0125,0.1533,-0.0020,-0.0069,0.0081,-2.9876,1.3673,2.9961
2024-10-11T13:35:30.640Z,0.0175,-0.9811,0.1851,0.1071,0.0125,0.1533,-0.0016,-0.0024,0.0061,-2.9876,1.3673,2.9961
2024-10-11T13:35:30.650Z,0.0197,-0.9807,0.1838,0.0915,0.0128,0.1584,-0.0001,-0.0047,0.0061,-2.9891,1.3674,2.9973
2024-10-11T13:35:30.660Z,0.0219,-0.9783,0.1833,0.0915,0.0128,0.1584,-0.0015,-0.0005,0.0053,-2.9891,1.3674,2.9973
2024-10-11T13:35:30.671Z,0.0208,-0.9761,0.1820,0.0915,0.0128,0.1584,-0.0013,0.0019,0.0054,-2.9891,1.3674,2.9973
2024-10-11T13:35:30.681Z,0.0150,-0.9745,0.1821,0.1354,-0.0477,0.1749,-0.0013,0.0019,0.0054,-2.9905,1.3674,2.9984
2024-10-11T13:35:30.690Z,0.0144,-0.9750,0.1833,0.1354,-0.0477,0.1749,-0.0013,0.0026,0.0030,-2.9905,1.3674,2.9984
2024-10-11T13:35:30.701Z,0.0128,-0.9757,0.1812,0.1354,-0.0477,0.1749,0.0009,0.0056,0.0032,-2.9905,1.3674,2.9984
2024-10-11T13:35:30.710Z,0.0101,-0.9779,0.1797,0.1819,-0.0142,0.1986,0.0023,0.0032,-0.0002,-2.9915,1.3674,2.9992
2024-10-11T13:35:30.720Z,0.0106,-0.9796,0.1745,0.1819,-0.0142,0.1986,0.0053,0.0034,-0.0002,-2.9915,1.3674,2.9992
2024-10-11T13:35:30.732Z,0.0114,-0.9840,0.1718,0.1434,0.0461,0.3020,0.0034,0.0043,0.0012,-2.9920,1.3672,2.9996
2024-10-11T13:35:30.740Z,0.0140,-0.9841,0.1693,0.1434,0.0461,0.3020,0.0075,0.0080,-0.0023,-2.9920,1.3672,2.9996
2024-10-11T13:35:30.749Z,0.0160,-0.9828,0.1711,0.1434,0.0461,0.3020,0.0101,0.0071,-0.0000,-2.9920,1.3672,2.9996
2024-10-11T13:35:30.761Z,0.0155,-0.9853,0.1723,0.1434,0.0461,0.3020,0.0093,0.0166,-0.0026,-2.9920,1.3672,2.9996
2024-10-11T13:35:30.770Z,0.0151,-0.9861,0.1743,0.1326,0.0670,0.2557,0.0105,0.0153,-0.0028,-2.9922,1.3670,2.9999
2024-10-11T13:35:30.780Z,0.0171,-0.9889,0.1789,0.1326,0.0670,0.2557,0.0105,0.0153,-0.0028,-2.9922,1.3670,2.9999
2024-10-11T13:35:30.791Z,0.0208,-0.9885,0.1820,0.1326,0.0670,0.2557,0.0120,0.0190,0.0002,-2.9922,1.3670,2.9999
2024-10-11T13:35:30.799Z,0.0213,-0.9890,0.1815,0.0699,0.0960,0.1892,0.0120,0.0190,0.0002,-2.9927,1.3666,3.0007
2024-10-11T13:35:30.811Z,0.0243,-0.9861,0.1838,0.0699,0.0960,0.1892,0.0109,0.0269,0.0025,-2.9927,1.3666,3.0007
2024-10-11T13:35:30.820Z,0.0248,-0.9840,0.1869,0.0699,0.0960,0.1892,0.0101,0.0267,0.0022,-2.9927,1.3666,3.0007
2024-10-11T13:35:30.831Z,0.0240,-0.9831,0.1872,0.0420,0.0383,0.1359,0.0101,0.0267,0.0022,-2.9935,1.3664,3.0020
2024-10-11T13:35:30.840Z,0.0229,-0.9818,0.1843,0.0420,0.0383,0.1359,0.0099,0.0288,0.0014,-2.9935,1.3664,3.0020
2024-10-11T13:35:30.850Z,0.0205,-0.9823,0.1832,0.0420,0.0383,0.1359,0.0120,0.0314,0.0017,-2.9935,1.3664,3.0020
2024-10-11T13:35:30.860Z,0.0207,-0.9822,0.1829,0.0720,0.0302,0.1817,0.0135,0.0337,0.0001,-2.9942,1.3660,3.0033
2024-10-11T13:35:30.871Z,0.0226,-0.9785,0.1841,0.0720,0.0302,0.1817,0.0116,0.0359,-0.0012,-2.9942,1.3660,3.0033
2024-10-11T13:35:30.882Z,0.0225,-0.9752,0.1875,0.0789,-0.0480,0.1166,0.0116,0.0359,-0.0012,-2.9947,1.3657,3.0046
2024-10-11T13:35:30.890Z,0.0198,-0.9742,0.1898,0.0789,-0.0480,0.1166,0.0141,0.0386,-0.0010,-2.9947,1.3657,3.0046
2024-10-11T13:35:30.900Z,0.0149,-0.9754,0.1905,0.0789,-0.0480,0.1166,0.0141,0.0386,-0.0010,-2.9947,1.3657,3.0046
2024-10-11T13:35:30.910Z,0.0204,-0.9764,0.1919,0.0789,-0.0480,0.1166,0.0111,0.0416,-0.0020,-2.9947,1.3657,3.0046
2024-10-11T13:35:30.921Z,0.0205,-0.9754,0.1902,0.0695,-0.0355,0.1171,0.0113,0.0418,-0.0058,-2.9949,1.3654,3.0058
2024-10-11T13:35:30.930Z,0.0192,-0.9727,0.1928,0.0695,-0.0355,0.1171,0.0113,0.0418,-0.0058,-2.9949,1.3654,3.0058
2024-10-11T13:35:30.940Z,0.0181,-0.9729,0.1951,0.0695,-0.0355,0.1171,0.0130,0.0400,-0.0065,-2.9949,1.3654,3.0058
2024-10-11T13:35:30.949Z,0.0192,-0.9735,0.1963,0.0813,-0.0529,0.0602,0.0130,0.0400,-0.0065,-2.9948,1.3650,3.0067
2024-10-11T13:35:30.960Z,0.0200,-0.9775,0.1945,0.0813,-0.0529,0.0602,0.0101,0.0409,-0.0077,-2.9948,1.3650,3.0067
2024-10-11T13:35:30.971Z,0.0189,-0.9803,0.1972,0.0813,-0.0529,0.0602,0.0116,0.0432,-0.0096,-2.9948,1.3650,3.0067
2024-10-11T13:35:30.982Z,0.0174,-0.9841,0.1975,0.0985,0.0521,0.0527,0.0105,0.0448,-0.0121,-2.9941,1.3646,3.0071
2024-10-11T13:35:30.990Z,0.0183,-0.9864,0.2006,0.0985,0.0521,0.0527,0.0108,0.0450,-0.0118,-2.9941,1.3646,3.0071
2024-10-11T13:35:31.000Z,0.0195,-0.9886,0.2031,0.0985,0.0521,0.0527,0.0091,0.0465,-0.0130,-2.9941,1.3646,3.0071
2024-10-11T13:35:31.010Z,0.0204,-0.9900,0.2056,0.0702,0.1101,-0.0236,0.0075,0.0490,-0.0134,-2.9929,1.3643,3.0069
2024-10-11T13:35:31.020Z,0.0196,-0.9944,0.2126,0.0702,0.1101,-0.0236,0.0051,0.0508,-0.0128,-2.9929,1.3643,3.0069
2024-10-11T13:35:31.033Z,0.0255,-0.9958,0.2173,0.0378,0.1533,-0.1110,0.0019,0.0535,-0.0128,-2.9915,1.3640,3.0068
2024-10-11T13:35:31.040Z,0.0237,-0.9943,0.2148,0.0378,0.1533,-0.1110,0.0031,0.0536,-0.0141,-2.9915,1.3640,3.0068
2024-10-11T13:35:31.051Z,0.0283,-0.9943,0.2156,0.0378,0.1533,-0.1110,0.0011,0.0556,-0.0113,-2.9915,1.3640,3.0068
2024-10-11T13:35:31.060Z,0.0267,-0.9891,0.2142,0.0378,0.1533,-0.1110,-0.0025,0.0556,-0.0128,-2.9915,1.3640,3.0068
2024-10-11T13:35:31.071Z,0.0269,-0.9836,0.2146,0.0189,0.0803,-0.1013,-0.0014,0.0567,-0.0130,-2.9898,1.3639,3.0066
2024-10-11T13:35:31.081Z,0.0269,-0.9836,0.2146,0.0189,0.0803,-0.1013,-0.0005,0.0532,-0.0115,-2.9898,1.3639,3.0066
2024-10-11T13:35:31.090Z,0.0249,-0.9827,0.2117,0.0189,0.0803,-0.1013,-0.0025,0.0536,-0.0153,-2.9898,1.3639,3.0066
2024-10-11T13:35:31.100Z,0.0246,-0.9814,0.2111,0.0304,0.0271,-0.0740,0.0001,0.0553,-0.0156,-2.9882,1.3639,3.0064
2024-10-11T13:35:31.110Z,0.0245,-0.9810,0.2103,0.0304,0.0271,-0.0740,-0.0010,0.0555,-0.0164,-2.9882,1.3639,3.0064
2024-10-11T13:35:31.121Z,0.0259,-0.9798,0.2092,0.0291,0.0006,-0.0724,-0.0010,0.0555,-0.0164,-2.9860,1.3638,3.0057
2024-10-11T13:35:31.131Z,0.0249,-0.9787,0.2110,0.0291,0.0006,-0.0724,-0.0019,0.0553,-0.0170,-2.9860,1.3638,3.0057
2024-10-11T13:35:31.140Z,0.0266,-0.9754,0.2118,0.0291,0.0006,-0.0724,-0.0034,0.0527,-0.0168,-2.9860,1.3638,3.0057
2024-10-11T13:35:31.150Z,0.0303,-0.9753,0.2087,0.0291,0.0006,-0.0724,-0.0023,0.0532,-0.0167,-2.9860,1.3638,3.0057
2024-10-11T13:35:31.160Z,0.0311,-0.9772,0.2104,-0.0302,-0.0145,-0.0668,-0.0066,0.0525,-0.0176,-2.9837,1.3638,3.0048
2024-10-11T13:35:31.170Z,0.0338,-0.9783,0.2101,-0.0302,-0.0145,-0.0668,-0.0066,0.0534,-0.0164,-2.9837,1.3638,3.0048
2024-10-11T13:35:31.182Z,0.0311,-0.9771,0.2120,-0.0120,-0.0289,-0.0589,-0.0066,0.0515,-0.0169,-2.9814,1.3638,3.0038
2024-10-11T13:35:31.190Z,0.0294,-0.9757,0.2096,-0.0120,-0.0289,-0.0589,-0.0040,0.0546,-0.0162,-2.9814,1.3638,3.0038
2024-10-11T13:35:31.200Z,0.0313,-0.9769,0.2106,-0.0120,-0.0289,-0.0589,-0.0044,0.0546,-0.0155,-2.9814,1.3638,3.0038
2024-10-11T13:35:31.211Z,0.0277,-0.9761,0.2090,0.0075,-0.0069,-0.0622,-0.0042,0.0563,-0.0153,-2.9793,1.3639,3.0031
2024-10-11T13:35:31.220Z,0.0276,-0.9780,0.2098,0.0075,-0.0069,-0.0622,-0.0059,0.0557,-0.0157,-2.9793,1.3639,3.0031
2024-10-11T13:35:31.231Z,0.0264,-0.9766,0.2086,0.0075,-0.0069,-0.0622,-0.0070,0.0588,-0.0166,-2.9793,1.3639,3.0031
2024-10-11T13:35:31.240Z,0.0264,-0.9766,0.2086,0.0075,-0.0069,-0.0622,-0.0068,0.0571,-0.0124,-2.9793,1.3639,3.0031
2024-10-11T13:35:31.250Z,0.0271,-0.9762,0.2065,0.0195,-0.0031,-0.0306,-0.0057,0.0638,-0.0135,-2.9769,1.3639,3.0022
2024-10-11T13:35:31.260Z,0.0271,-0.9762,0.2065,0.0195,-0.0031,-0.0306,-0.0044,0.0628,-0.0162,-2.9769,1.3639,3.0022
2024-10-11T13:35:31.270Z,0.0309,-0.9738,0.2068,0.0195,-0.0031,-0.0306,-0.0033,0.0640,-0.0147,-2.9769,1.3639,3.0022
2024-10-11T13:35:31.282Z,0.0267,-0.9765,0.2036,0.0263,-0.0384,-0.0158,-0.0035,0.0631,-0.0146,-2.9748,1.3638,3.0017
2024-10-11T13:35:31.290Z,0.0267,-0.9765,0.2036,0.0263,-0.0384,-0.0158,-0.0010,0.0672,-0.0131,-2.9748,1.3638,3.0017
2024-10-11T13:35:31.301Z,0.0261,-0.9765,0.2020,0.0000,-0.0403,0.0164,-0.0009,0.0686,-0.0142,-2.9734,1.3637,3.0021
2024-10-11T13:35:31.310Z,0.0322,-0.9735,0.2018,0.0000,-0.0403,0.0164,-0.0000,0.0684,-0.0146,-2.9734,1.3637,3.0021
2024-10-11T13:35:31.320Z,0.0322,-0.9735,0.2018,0.0000,-0.0403,0.0164,0.0037,0.0724,-0.0128,-2.9734,1.3637,3.0021
2024-10-11T13:35:31.330Z,0.0288,-0.9755,0.2015,-0.0029,-0.0523,-0.0005,0.0037,0.0724,-0.0128,-2.9721,1.3636,3.0027
2024-10-11T13:35:31.340Z,0.0266,-0.9715,0.2025,-0.0029,-0.0523,-0.0005,0.0036,0.0724,-0.0142,-2.9721,1.3636,3.0027
2024-10-11T13:35:31.350Z,0.0251,-0.9697,0.2032,-0.0029,-0.0523,-0.0005,0.0047,0.0696,-0.0124,-2.9721,1.3636,3.0027
2024-10-11T13:35:31.360Z,0.0251,-0.9697,0.2032,-0.0029,-0.0523,-0.0005,0.0054,0.0686,-0.0114,-2.9721,1.3636,3.0027
2024-10-11T13:35:31.370Z,0.0257,-0.9693,0.2017,0.0267,-0.0907,0.0219,0.0041,0.0699,-0.0145,-2.9707,1.3634,3.0032
2024-10-11T13:35:31.380Z,0.0273,-0.9692,0.2048,0.0267,-0.0907,0.0219,0.0040,0.0689,-0.0160,-2.9707,1.3634,3.0032
2024-10-11T13:35:31.391Z,0.0260,-0.9671,0.2083,0.0090,-0.1255,-0.0464,0.0039,0.0660,-0.0134,-2.9689,1.3632,3.0032
2024-10-11T13:35:31.400Z,0.0309,-0.9656,0.2100,0.0090,-0.1255,-0.0464,0.0059,0.0625,-0.0153,-2.9689,1.3632,3.0032
2024-10-11T13:35:31.410Z,0.0329,-0.9674,0.2116,0.0090,-0.1255,-0.0464,0.0054,0.0621,-0.0156,-2.9689,1.3632,3.0032
2024-10-11T13:35:31.420Z,0.0329,-0.9674,0.2116,0.0090,-0.1255,-0.0464,0.0033,0.0637,-0.0134,-2.9689,1.3632,3.0032
2024-10-11T13:35:31.430Z,0.0380,-0.9693,0.2120,-0.0698,-0.0870,-0.0766,0.0051,0.0599,-0.0142,-2.9673,1.3630,3.0033
2024-10-11T13:35:31.441Z,0.0388,-0.9692,0.2101,-0.0698,-0.0870,-0.0766,0.0046,0.0623,-0.0133,-2.9673,1.3630,3.0033
2024-10-11T13:35:31.451Z,0.0406,-0.9700,0.2083,-0.1193,-0.0825,-0.0371,0.0046,0.0623,-0.0133,-2.9657,1.3628,3.0033
2024-10-11T13:35:31.460Z,0.0396,-0.9699,0.2074,-0.1193,-0.0825,-0.0371,0.0059,0.0591,-0.0108,-2.9657,1.3628,3.0033
2024-10-11T13:35:31.470Z,0.0396,-0.9699,0.2074,-0.1193,-0.0825,-0.0371,0.0035,0.0580,-0.0128,-2.9657,1.3628,3.0033
2024-10-11T13:35:31.481Z,0.0382,-0.9715,0.2065,-0.0756,-0.0643,0.0169,0.0058,0.0589,-0.0137,-2.9645,1.3626,3.0036
2024-10-11T13:35:31.490Z,0.0303,-0.9737,0.2014,-0.0756,-0.0643,0.0169,0.0054,0.0559,-0.0131,-2.9645,1.3626,3.0036
2024-10-11T13:35:31.499Z,0.0303,-0.9737,0.2014,-0.0756,-0.0643,0.0169,0.0076,0.0530,-0.0137,-2.9645,1.3626,3.0036
2024-10-11T13:35:31.510Z,0.0257,-0.9760,0.2050,0.0375,-0.0281,0.0025,0.0086,0.0559,-0.0163,-2.9629,1.3623,3.0035
2024-10-11T13:35:31.520Z,0.0242,-0.9743,0.2052,0.0375,-0.0281,0.0025,0.0095,0.0548,-0.0145,-2.9629,1.3623,3.0035
2024-10-11T13:35:31.530Z,0.0246,-0.9768,0.2052,0.0375,-0.0281,0.0025,0.0086,0.0573,-0.0160,-2.9629,1.3623,3.0035
2024-10-11T13:35:31.540Z,0.0246,-0.9768,0.2052,0.0402,0.0244,0.0213,0.0086,0.0573,-0.0160,-2.9611,1.3619,3.0032
2024-10-11T13:35:31.550Z,0.0245,-0.9808,0.2032,0.0402,0.0244,0.0213,0.0109,0.0629,-0.0175,-2.9611,1.3619,3.0032
2024-10-11T13:35:31.560Z,0.0261,-0.9855,0.2032,0.0402,0.0244,0.0213,0.0146,0.0634,-0.0158,-2.9611,1.3619,3.0032
2024-10-11T13:35:31.571Z,0.0261,-0.9855,0.2032,0.0328,0.0750,0.0175,0.0117,0.0659,-0.0158,-2.9594,1.3615,3.0032
2024-10-11T13:35:31.580Z,0.0218,-0.9859,0.2066,0.0328,0.0750,0.0175,0.0119,0.0626,-0.0171,-2.9594,1.3615,3.0032
2024-10-11T13:35:31.590Z,0.0191,-0.9853,0.2089,0.0328,0.0750,0.0175,0.0133,0.0630,-0.0189,-2.9594,1.3615,3.0032
2024-10-11T13:35:31.599Z,0.0191,-0.9853,0.2089,0.0328,0.0750,0.0175,0.0122,0.0659,-0.0189,-2.9594,1.3615,3.0032
2024-10-11T13:35:31.610Z,0.0221,-0.9830,0.2123,0.0757,0.0587,-0.0430,0.0107,0.0638,-0.0225,-2.9574,1.3610,3.0028
2024-10-11T13:35:31.620Z,0.0254,-0.9844,0.2105,0.0757,0.0587,-0.0430,0.0105,0.0634,-0.0215,-2.9574,1.3610,3.0028
2024-10-11T13:35:31.630Z,0.0254,-0.9844,0.2105,0.0082,0.0572,-0.0523,0.0070,0.0651,-0.0225,-2.9549,1.3606,3.0021
2024-10-11T13:35:31.640Z,0.0294,-0.9847,0.2124,0.0082,0.0572,-0.0523,0.0101,0.0643,-0.0234,-2.9549,1.3606,3.0021
2024-10-11T13:35:31.649Z,0.0294,-0.9847,0.2124,0.0082,0.0572,-0.0523,0.0097,0.0645,-0.0224,-2.9549,1.3606,3.0021
2024-10-11T13:35:31.660Z,0.0318,-0.9817,0.2145,-0.0060,0.0054,-0.0778,0.0062,0.0649,-0.0220,-2.9523,1.3603,3.0012
2024-10-11T13:35:31.670Z,0.0329,-0.9829,0.2148,-0.0060,0.0054,-0.0778,0.0057,0.0669,-0.0218,-2.9523,1.3603,3.0012
2024-10-11T13:35:31.680Z,0.0355,-0.9835,0.2137,-0.0060,0.0054,-0.0778,0.0049,0.0685,-0.0212,-2.9523,1.3603,3.0012
2024-10-11T13:35:31.690Z,0.0373,-0.9806,0.2093,-0.0776,0.0264,-0.0217,0.0049,0.0685,-0.0212,-2.9497,1.3601,3.0005
2024-10-11T13:35:31.699Z,0.0373,-0.9806,0.2093,-0.0776,0.0264,-0.0217,0.0038,0.0723,-0.0182,-2.9497,1.3601,3.0005
2024-10-11T13:35:31.710Z,0.0344,-0.9800,0.2080,-0.0776,0.0264,-0.0217,0.0021,0.0705,-0.0168,-2.9497,1.3601,3.0005
2024-10-11T13:35:31.720Z,0.0344,-0.9800,0.2080,-0.0442,0.0260,-0.0170,0.0011,0.0724,-0.0165,-2.9475,1.3599,3.0002
2024-10-11T13:35:31.730Z,0.0353,-0.9808,0.2067,-0.0442,0.0260,-0.0170,0.0005,0.0708,-0.0187,-2.9475,1.3599,3.0002
2024-10-11T13:35:31.740Z,0.0353,-0.9830,0.2059,-0.0442,0.0260,-0.0170,0.0003,0.0731,-0.0177,-2.9475,1.3599,3.0002
2024-10-11T13:35:31.751Z,0.0353,-0.9830,0.2059,-0.0897,0.0402,0.0206,0.0003,0.0731,-0.0177,-2.9453,1.3598,3.0000
2024-10-11T13:35:31.760Z,0.0415,-0.9830,0.2073,-0.0897,0.0402,0.0206,-0.0030,0.0707,-0.0156,-2.9453,1.3598,3.0000
2024-10-11T13:35:31.770Z,0.0415,-0.9834,0.2079,-0.0897,0.0402,0.0206,-0.0036,0.0691,-0.0149,-2.9453,1.3598,3.0000
2024-10-11T13:35:31.780Z,0.0415,-0.9834,0.2079,-0.1172,0.0462,-0.0185,-0.0067,0.0671,-0.0149,-2.9436,1.3598,3.0001
2024-10-11T13:35:31.790Z,0.0401,-0.9859,0.2073,-0.1172,0.0462,-0.0185,-0.0058,0.0626,-0.0148,-2.9436,1.3598,3.0001
2024-10-11T13:35:31.800Z,0.0401,-0.9859,0.2073,-0.1172,0.0462,-0.0185,-0.0045,0.0627,-0.0161,-2.9436,1.3598,3.0001
2024-10-11T13:35:31.810Z,0.0395,-0.9886,0.2071,-0.1144,0.1096,0.0068,-0.0029,0.0586,-0.0141,-2.9417,1.3599,2.9999
2024-10-11T13:35:31.820Z,0.0415,-0.9890,0.2046,-0.1144,0.1096,0.0068,-0.0058,0.0586,-0.0134,-2.9417,1.3599,2.9999
2024-10-11T13:35:31.830Z,0.0411,-0.9872,0.2049,-0.1144,0.1096,0.0068,-0.0092,0.0546,-0.0164,-2.9417,1.3599,2.9999
2024-10-11T13:35:31.841Z,0.0414,-0.9855,0.2061,-0.1152,0.0745,0.0092,-0.0086,0.0525,-0.0153,-2.9398,1.3601,2.9994
2024-10-11T13:35:31.850Z,0.0414,-0.9855,0.2061,-0.1152,0.0745,0.0092,-0.0120,0.0502,-0.0145,-2.9398,1.3601,2.9994
2024-10-11T13:35:31.859Z,0.0383,-0.9819,0.2064,-0.1152,0.0745,0.0092,-0.0114,0.0456,-0.0144,-2.9398,1.3601,2.9994
2024-10-11T13:35:31.870Z,0.0383,-0.9819,0.2064,-0.0744,0.0360,-0.0224,-0.0136,0.0430,-0.0168,-2.9376,1.3603,2.9985
2024-10-11T13:35:31.880Z,0.0372,-0.9799,0.2104,-0.0744,0.0360,-0.0224,-0.0106,0.0380,-0.0168,-2.9376,1.3603,2.9985
2024-10-11T13:35:31.890Z,0.0408,-0.9799,0.2122,-0.0744,0.0360,-0.0224,-0.0128,0.0363,-0.0164,-2.9376,1.3603,2.9985
2024-10-11T13:35:31.901Z,0.0408,-0.9799,0.2122,-0.1089,0.0178,-0.0614,-0.0140,0.0342,-0.0164,-2.9353,1.3606,2.9971
2024-10-11T13:35:31.910Z,0.0452,-0.9782,0.2121,-0.1089,0.0178,-0.0614,-0.0191,0.0302,-0.0184,-2.9353,1.3606,2.9971
2024-10-11T13:35:31.920Z,0.0476,-0.9815,0.2158,-0.1089,0.0178,-0.0614,-0.0161,0.0300,-0.0160,-2.9353,1.3606,2.9971
2024-10-11T13:35:31.930Z,0.0476,-0.9815,0.2158,-0.1209,0.0379,-0.1055,-0.0184,0.0267,-0.0153,-2.9325,1.3610,2.9949
2024-10-11T13:35:31.940Z,0.0425,-0.9803,0.2169,-0.1209,0.0379,-0.1055,-0.0189,0.0277,-0.0157,-2.9325,1.3610,2.9949
2024-10-11T13:35:31.950Z,0.0425,-0.9803,0.2169,-0.1209,0.0379,-0.1055,-0.0220,0.0268,-0.0141,-2.9325,1.3610,2.9949
2024-10-11T13:35:31.960Z,0.0399,-0.9814,0.2171,-0.0899,0.0317,-0.1139,-0.0204,0.0252,-0.0124,-2.9300,1.3615,2.9931
2024-10-11T13:35:31.970Z,0.0400,-0.9803,0.2174,-0.0899,0.0317,-0.1139,-0.0224,0.0263,-0.0132,-2.9300,1.3615,2.9931
2024-10-11T13:35:31.980Z,0.0404,-0.9804,0.2150,-0.0899,0.0317,-0.1139,-0.0258,0.0271,-0.0117,-2.9300,1.3615,2.9931
2024-10-11T13:35:31.990Z,0.0421,-0.9803,0.2094,-0.1092,0.0195,-0.0453,-0.0280,0.0255,-0.0146,-2.9278,1.3622,2.9914
2024-10-11T13:35:32.002Z,0.0452,-0.9795,0.2068,-0.1092,0.0195,-0.0453,-0.0267,0.0244,-0.0084,-2.9278,1.3622,2.9914
2024-10-11T13:35:32.009Z,0.0457,-0.9798,0.2050,-0.1092,0.0195,-0.0453,-0.0284,0.0226,-0.0115,-2.9278,1.3622,2.9914
2024-10-11T13:35:32.020Z,0.0455,-0.9800,0.2043,-0.1399,0.0152,-0.0024,-0.0284,0.0220,-0.0105,-2.9256,1.3629,2.9897
2024-10-11T13:35:32.029Z,0.0456,-0.9801,0.2019,-0.1399,0.0152,-0.0024,-0.0283,0.0191,-0.0095,-2.9256,1.3629,2.9897
2024-10-11T13:35:32.040Z,0.0463,-0.9810,0.2022,-0.1399,0.0152,-0.0024,-0.0236,0.0157,-0.0100,-2.9256,1.3629,2.9897
2024-10-11T13:35:32.051Z,0.0463,-0.9810,0.2022,-0.1814,0.0385,0.0341,-0.0239,0.0140,-0.0090,-2.9237,1.3635,2.9881
2024-10-11T13:35:32.060Z,0.0539,-0.9851,0.1967,-0.1814,0.0385,0.0341,-0.0251,0.0113,-0.0076,-2.9237,1.3635,2.9881
2024-10-11T13:35:32.070Z,0.0589,-0.9842,0.1968,-0.1814,0.0385,0.0341,-0.0257,0.0110,-0.0050,-2.9237,1.3635,2.9881
2024-10-11T13:35:32.080Z,0.0601,-0.9839,0.1971,-0.2792,0.0508,0.0546,-0.0220,0.0101,-0.0059,-2.9223,1.3642,2.9869
2024-10-11T13:35:32.090Z,0.0605,-0.9831,0.1966,-0.2792,0.0508,0.0546,-0.0250,0.0090,-0.0011,-2.9223,1.3642,2.9869
2024-10-11T13:35:32.100Z,0.0596,-0.9814,0.1982,-0.2792,0.0508,0.0546,-0.0228,0.0090,-0.0020,-2.9223,1.3642,2.9869
2024-10-11T13:35:32.110Z,0.0575,-0.9789,0.2006,-0.2535,0.0007,0.0134,-0.0229,0.0065,0.0018,-2.9217,1.3649,2.9863
2024-10-11T13:35:32.120Z,0.0583,-0.9762,0.1999,-0.2535,0.0007,0.0134,-0.0254,0.0051,0.0045,-2.9217,1.3649,2.9863
2024-10-11T13:35:32.130Z,0.0564,-0.9770,0.1992,-0.2535,0.0007,0.0134,-0.0238,0.0051,0.0035,-2.9217,1.3649,2.9863
2024-10-11T13:35:32.141Z,0.0574,-0.9785,0.2017,-0.2540,-0.0054,-0.0039,-0.0251,0.0024,0.0054,-2.9218,1.3656,2.9863
2024-10-11T13:35:32.151Z,0.0547,-0.9755,0.2026,-0.2540,-0.0054,-0.0039,-0.0232,0.0022,0.0046,-2.9218,1.3656,2.9863
2024-10-11T13:35:32.160Z,0.0532,-0.9735,0.2012,-0.2540,-0.0054,-0.0039,-0.0217,-0.0016,0.0067,-2.9218,1.3656,2.9863
2024-10-11T13:35:32.170Z,0.0532,-0.9735,0.2012,-0.1934,-0.0855,0.0128,-0.0230,-0.0058,0.0072,-2.9222,1.3663,2.9864
2024-10-11T13:35:32.180Z,0.0495,-0.9669,0.1967,-0.1934,-0.0855,0.0128,-0.0205,-0.0038,0.0067,-2.9222,1.3663,2.9864
2024-10-11T13:35:32.190Z,0.0471,-0.9696,0.1952,-0.1934,-0.0855,0.0128,-0.0178,-0.0037,0.0088,-2.9222,1.3663,2.9864
2024-10-11T13:35:32.201Z,0.0471,-0.9696,0.1952,-0.1432,-0.0803,0.0574,-0.0172,-0.0056,0.0096,-2.9231,1.3669,2.9868
2024-10-11T13:35:32.210Z,0.0453,-0.9735,0.1924,-0.1432,-0.0803,0.0574,-0.0178,-0.0005,0.0104,-2.9231,1.3669,2.9868
2024-10-11T13:35:32.220Z,0.0449,-0.9731,0.1951,-0.1432,-0.0803,0.0574,-0.0196,-0.0056,0.0111,-2.9231,1.3669,2.9868
2024-10-11T13:35:32.231Z,0.0427,-0.9742,0.1935,-0.1146,-0.0509,0.0597,-0.0174,-0.0008,0.0102,-2.9241,1.3674,2.9874
2024-10-11T13:35:32.240Z,0.0393,-0.9729,0.1949,-0.1146,-0.0509,0.0597,-0.0136,-0.0006,0.0131,-2.9241,1.3674,2.9874
2024-10-11T13:35:32.251Z,0.0378,-0.9739,0.1922,-0.1146,-0.0509,0.0597,-0.0127,0.0036,0.0128,-2.9241,1.3674,2.9874
2024-10-11T13:35:32.260Z,0.0351,-0.9733,0.1921,-0.0431,-0.0606,0.0699,-0.0118,0.0017,0.0122,-2.9255,1.3678,2.9885
2024-10-11T13:35:32.270Z,0.0332,-0.9737,0.1905,-0.0431,-0.0606,0.0699,-0.0105,0.0016,0.0134,-2.9255,1.3678,2.9885
2024-10-11T13:35:32.280Z,0.0315,-0.9736,0.1915,-0.0431,-0.0606,0.0699,-0.0099,0.0017,0.0121,-2.9255,1.3678,2.9885
2024-10-11T13:35:32.290Z,0.0308,-0.9706,0.1917,-0.0037,-0.0878,0.0717,-0.0080,0.0019,0.0112,-2.9272,1.3681,2.9901
2024-10-11T13:35:32.300Z,0.0301,-0.9692,0.1912,-0.0037,-0.0878,0.0717,-0.0064,0.0009,0.0112,-2.9272,1.3681,2.9901
2024-10-11T13:35:32.310Z,0.0296,-0.9697,0.1898,-0.0037,-0.0878,0.0717,-0.0052,0.0023,0.0096,-2.9272,1.3681,2.9901
2024-10-11T13:35:32.320Z,0.0296,-0.9697,0.1898,-0.0088,-0.1006,0.0833,-0.0024,0.0024,0.0100,-2.9289,1.3683,2.9915
2024-10-11T13:35:32.330Z,0.0311,-0.9689,0.1898,-0.0088,-0.1006,0.0833,-0.0005,0.0011,0.0107,-2.9289,1.3683,2.9915
2024-10-11T13:35:32.340Z,0.0337,-0.9685,0.1890,-0.0088,-0.1006,0.0833,-0.0020,0.0026,0.0110,-2.9289,1.3683,2.9915
2024-10-11T13:35:32.350Z,0.0337,-0.9685,0.1890,-0.0502,-0.1260,0.0936,0.0033,0.0018,0.0096,-2.9306,1.3684,2.9931
2024-10-11T13:35:32.360Z,0.0362,-0.9658,0.1883,-0.0502,-0.1260,0.0936,0.0013,0.0063,0.0096,-2.9306,1.3684,2.9931
2024-10-11T13:35:32.370Z,0.0370,-0.9657,0.1877,-0.0502,-0.1260,0.0936,-0.0010,0.0038,0.0090,-2.9306,1.3684,2.9931
2024-10-11T13:35:32.380Z,0.0389,-0.9665,0.1868,-0.0927,-0.1280,0.1191,0.0023,0.0032,0.0119,-2.9324,1.3683,2.9947
2024-10-11T13:35:32.390Z,0.0374,-0.9673,0.1854,-0.0927,-0.1280,0.1191,0.0057,0.0023,0.0127,-2.9324,1.3683,2.9947
2024-10-11T13:35:32.401Z,0.0354,-0.9681,0.1872,-0.0927,-0.1280,0.1191,0.0093,-0.0010,0.0133,-2.9324,1.3683,2.9947
2024-10-11T13:35:32.410Z,0.0365,-0.9686,0.1872,-0.0724,-0.1076,0.1177,0.0087,-0.0033,0.0117,-2.9346,1.3681,2.9966
2024-10-11T13:35:32.419Z,0.0362,-0.9692,0.1871,-0.0724,-0.1076,0.1177,0.0126,-0.0062,0.0122,-2.9346,1.3681,2.9966
2024-10-11T13:35:32.430Z,0.0361,-0.9686,0.1865,-0.0724,-0.1076,0.1177,0.0138,-0.0085,0.0085,-2.9346,1.3681,2.9966
2024-10-11T13:35:32.440Z,0.0390,-0.9707,0.1862,-0.0987,-0.0855,0.1309,0.0143,-0.0096,0.0108,-2.9363,1.3678,2.9978
2024-10-11T13:35:32.451Z,0.0407,-0.9722,0.1877,-0.0987,-0.0855,0.1309,0.0179,-0.0146,0.0123,-2.9363,1.3678,2.9978
2024-10-11T13:35:32.460Z,0.0415,-0.9737,0.1895,-0.0987,-0.0855,0.1309,0.0170,-0.0194,0.0103,-2.9363,1.3678,2.9978
2024-10-11T13:35:32.469Z,0.0440,-0.9725,0.1926,-0.1492,-0.0678,0.0723,0.0183,-0.0222,0.0088,-2.9380,1.3674,2.9986
2024-10-11T13:35:32.480Z,0.0435,-0.9732,0.1958,-0.1492,-0.0678,0.0723,0.0213,-0.0274,0.0090,-2.9380,1.3674,2.9986
2024-10-11T13:35:32.490Z,0.0453,-0.9734,0.1971,-0.1492,-0.0678,0.0723,0.0223,-0.0311,0.0102,-2.9380,1.3674,2.9986
2024-10-11T13:35:32.501Z,0.0446,-0.9740,0.1990,-0.1555,-0.0516,0.0147,0.0229,-0.0402,0.0105,-2.9398,1.3668,2.9991
2024-10-11T13:35:32.510Z,0.0476,-0.9743,0.2001,-0.1555,-0.0516,0.0147,0.0211,-0.0462,0.0085,-2.9398,1.3668,2.9991
2024-10-11T13:35:32.519Z,0.0434,-0.9774,0.1995,-0.1555,-0.0516,0.0147,0.0226,-0.0439,0.0060,-2.9398,1.3668,2.9991
2024-10-11T13:35:32.529Z,0.0287,-0.9792,0.1990,0.0008,0.0009,0.0208,0.0232,-0.0423,0.0093,-2.9415,1.3662,2.9992
2024-10-11T13:35:32.539Z,0.0281,-0.9774,0.1966,0.0008,0.0009,0.0208,0.0235,-0.0367,0.0078,-2.9415,1.3662,2.9992
2024-10-11T13:35:32.550Z,0.0231,-0.9795,0.1988,0.0008,0.0009,0.0208,0.0237,-0.0340,0.0097,-2.9415,1.3662,2.9992
2024-10-11T13:35:32.560Z,0.0212,-0.9768,0.1980,0.0753,-0.0219,0.0369,0.0238,-0.0284,0.0081,-2.9430,1.3655,2.9995
2024-10-11T13:35:32.569Z,0.0226,-0.9796,0.1973,0.0753,-0.0219,0.0369,0.0210,-0.0251,0.0096,-2.9430,1.3655,2.9995
2024-10-11T13:35:32.580Z,0.0206,-0.9821,0.1977,0.0753,-0.0219,0.0369,0.0202,-0.0173,0.0108,-2.9430,1.3655,2.9995
2024-10-11T13:35:32.590Z,0.0209,-0.9865,0.2004,0.0772,0.0747,0.0197,0.0215,-0.0136,0.0119,-2.9449,1.3649,3.0004
2024-10-11T13:35:32.601Z,0.0185,-0.9885,0.2031,0.0772,0.0747,0.0197,0.0189,-0.0085,0.0110,-2.9449,1.3649,3.0004
2024-10-11T13:35:32.610Z,0.0230,-0.9896,0.2047,0.0772,0.0747,0.0197,0.0190,-0.0071,0.0113,-2.9449,1.3649,3.0004
2024-10-11T13:35:32.619Z,0.0230,-0.9896,0.2047,-0.0201,0.1083,-0.0264,0.0168,-0.0068,0.0116,-2.9470,1.3644,3.0020
2024-10-11T13:35:32.630Z,0.0357,-0.9916,0.2050,-0.0201,0.1083,-0.0264,0.0177,-0.0138,0.0117,-2.9470,1.3644,3.0020
2024-10-11T13:35:32.640Z,0.0400,-0.9924,0.2033,-0.0201,0.1083,-0.0264,0.0183,-0.0154,0.0118,-2.9470,1.3644,3.0020
2024-10-11T13:35:32.650Z,0.0404,-0.9919,0.2019,-0.1192,0.1296,0.0152,0.0176,-0.0174,0.0140,-2.9493,1.3639,3.0035
2024-10-11T13:35:32.660Z,0.0371,-0.9907,0.1996,-0.1192,0.1296,0.0152,0.0174,-0.0197,0.0120,-2.9493,1.3639,3.0035
2024-10-11T13:35:32.669Z,0.0401,-0.9896,0.1967,-0.1192,0.1296,0.0152,0.0157,-0.0207,0.0101,-2.9493,1.3639,3.0035
2024-10-11T13:35:32.680Z,0.0415,-0.9872,0.1938,-0.1317,0.0848,0.1000,0.0157,-0.0232,0.0133,-2.9516,1.3634,3.0048
2024-10-11T13:35:32.689Z,0.0416,-0.9830,0.1908,-0.1317,0.0848,0.1000,0.0183,-0.0253,0.0123,-2.9516,1.3634,3.0048
2024-10-11T13:35:32.700Z,0.0422,-0.9811,0.1916,-0.1317,0.0848,0.1000,0.0161,-0.0258,0.0118,-2.9516,1.3634,3.0048
2024-10-11T13:35:32.710Z,0.0450,-0.9826,0.1906,-0.1677,0.0405,0.1360,0.0185,-0.0288,0.0133,-2.9538,1.3630,3.0059
2024-10-11T13:35:32.720Z,0.0433,-0.9828,0.1915,-0.1677,0.0405,0.1360,0.0153,-0.0330,0.0126,-2.9538,1.3630,3.0059
2024-10-11T13:35:32.730Z,0.0486,-0.9840,0.1967,-0.1677,0.0405,0.1360,0.0143,-0.0359,0.0134,-2.9538,1.3630,3.0059
2024-10-11T13:35:32.740Z,0.0484,-0.9822,0.2000,-0.2031,0.0370,0.0475,0.0122,-0.0377,0.0153,-2.9562,1.3626,3.0070
2024-10-11T13:35:32.750Z,0.0476,-0.9817,0.2005,-0.2031,0.0370,0.0475,0.0140,-0.0404,0.0154,-2.9562,1.3626,3.0070
2024-10-11T13:35:32.759Z,0.0471,-0.9806,0.2034,-0.2031,0.0370,0.0475,0.0120,-0.0460,0.0170,-2.9562,1.3626,3.0070
2024-10-11T13:35:32.770Z,0.0430,-0.9805,0.2044,-0.1515,0.0215,0.0068,0.0106,-0.0491,0.0162,-2.9588,1.3623,3.0080
2024-10-11T13:35:32.780Z,0.0434,-0.9799,0.2036,-0.1515,0.0215,0.0068,0.0122,-0.0527,0.0176,-2.9588,1.3623,3.0080
2024-10-11T13:35:32.790Z,0.0403,-0.9806,0.2020,-0.1515,0.0215,0.0068,0.0116,-0.0525,0.0186,-2.9588,1.3623,3.0080
2024-10-11T13:35:32.800Z,0.0388,-0.9800,0.2001,-0.1107,0.0169,0.0512,0.0130,-0.0559,0.0173,-2.9613,1.3621,3.0086
2024-10-11T13:35:32.810Z,0.0405,-0.9792,0.1989,-0.1107,0.0169,0.0512,0.0122,-0.0580,0.0152,-2.9613,1.3621,3.0086
2024-10-11T13:35:32.820Z,0.0409,-0.9795,0.1984,-0.1107,0.0169,0.0512,0.0070,-0.0592,0.0175,-2.9613,1.3621,3.0086
2024-10-11T13:35:32.830Z,0.0388,-0.9802,0.2004,-0.1120,0.0195,0.0517,0.0095,-0.0606,0.0180,-2.9641,1.3618,3.0093
2024-10-11T13:35:32.840Z,0.0373,-0.9847,0.2010,-0.1120,0.0195,0.0517,0.0084,-0.0621,0.0170,-2.9641,1.3618,3.0093
2024-10-11T13:35:32.850Z,0.0376,-0.9873,0.2041,-0.1120,0.0195,0.0517,0.0088,-0.0625,0.0187,-2.9641,1.3618,3.0093
2024-10-11T13:35:32.860Z,0.0370,-0.9892,0.2044,-0.0958,0.1077,0.0151,0.0060,-0.0653,0.0179,-2.9671,1.3616,3.0102
2024-10-11T13:35:32.870Z,0.0358,-0.9887,0.2014,-0.0958,0.1077,0.0151,0.0068,-0.0636,0.0179,-2.9671,1.3616,3.0102
2024-10-11T13:35:32.879Z,0.0361,-0.9872,0.1975,-0.0958,0.1077,0.0151,0.0065,-0.0639,0.0157,-2.9671,1.3616,3.0102
2024-10-11T13:35:32.890Z,0.0324,-0.9858,0.1967,-0.0523,0.0753,0.0918,0.0039,-0.0658,0.0189,-2.9701,1.3615,3.0108
2024-10-11T13:35:32.901Z,0.0291,-0.9845,0.1959,-0.0523,0.0753,0.0918,0.0057,-0.0614,0.0171,-2.9701,1.3615,3.0108
2024-10-11T13:35:32.910Z,0.0268,-0.9828,0.1955,-0.0523,0.0753,0.0918,0.0054,-0.0639,0.0164,-2.9701,1.3615,3.0108
2024-10-11T13:35:32.920Z,0.0247,-0.9832,0.1930,0.0223,0.0501,0.1298,0.0083,-0.0612,0.0160,-2.9729,1.3613,3.0115
2024-10-11T13:35:32.930Z,0.0245,-0.9806,0.1950,0.0223,0.0501,0.1298,0.0071,-0.0619,0.0145,-2.9729,1.3613,3.0115
2024-10-11T13:35:32.940Z,0.0263,-0.9771,0.1946,0.0223,0.0501,0.1298,0.0094,-0.0607,0.0140,-2.9729,1.3613,3.0115
2024-10-11T13:35:32.951Z,0.0270,-0.9734,0.1931,-0.0007,-0.0459,0.1307,0.0076,-0.0596,0.0156,-2.9754,1.3610,3.0119
2024-10-11T13:35:32.960Z,0.0274,-0.9757,0.1950,-0.0007,-0.0459,0.1307,0.0072,-0.0595,0.0159,-2.9754,1.3610,3.0119
2024-10-11T13:35:32.970Z,0.0284,-0.9797,0.1954,-0.0007,-0.0459,0.1307,0.0105,-0.0554,0.0148,-2.9754,1.3610,3.0119
2024-10-11T13:35:32.980Z,0.0282,-0.9795,0.1959,-0.0137,0.0147,0.1056,0.0069,-0.0526,0.0163,-2.9781,1.3609,3.0126
2024-10-11T13:35:32.990Z,0.0272,-0.9806,0.1985,-0.0137,0.0147,0.1056,0.0041,-0.0503,0.0176,-2.9781,1.3609,3.0126
2024-10-11T13:35:33.000Z,0.0262,-0.9808,0.1991,-0.0137,0.0147,0.1056,0.0062,-0.0481,0.0179,-2.9781,1.3609,3.0126
2024-10-11T13:35:33.010Z,0.0291,-0.9809,0.1967,-0.0244,0.0284,0.0998,0.0063,-0.0446,0.0173,-2.9811,1.3607,3.0138
2024-10-11T13:35:33.020Z,0.0273,-0.9820,0.1943,-0.0244,0.0284,0.0998,0.0059,-0.0394,0.0179,-2.9811,1.3607,3.0138
2024-10-11T13:35:33.030Z,0.0255,-0.9827,0.1964,-0.0244,0.0284,0.0998,0.0054,-0.0377,0.0201,-2.9811,1.3607,3.0138
2024-10-11T13:35:33.040Z,0.0199,-0.9812,0.1935,0.0629,0.0310,0.1326,0.0039,-0.0313,0.0190,-2.9841,1.3606,3.0154
2024-10-11T13:35:33.051Z,0.0206,-0.9803,0.1937,0.0629,0.0310,0.1326,0.0024,-0.0291,0.0189,-2.9841,1.3606,3.0154
2024-10-11T13:35:33.060Z,0.0213,-0.9807,0.1945,0.0629,0.0310,0.1326,0.0067,-0.0263,0.0197,-2.9841,1.3606,3.0154
2024-10-11T13:35:33.070Z,0.0203,-0.9793,0.1949,0.0543,0.0132,0.1198,0.0044,-0.0238,0.0176,-2.9872,1.3606,3.0173
2024-10-11T13:35:33.080Z,0.0175,-0.9779,0.1985,0.0543,0.0132,0.1198,0.0047,-0.0189,0.0183,-2.9872,1.3606,3.0173
2024-10-11T13:35:33.090Z,0.0142,-0.9780,0.1999,0.0543,0.0132,0.1198,0.0023,-0.0174,0.0207,-2.9872,1.3606,3.0173
2024-10-11T13:35:33.100Z,0.0135,-0.9810,0.1999,0.1171,0.0303,0.0715,0.0031,-0.0170,0.0170,-2.9901,1.3605,3.0193
2024-10-11T13:35:33.110Z,0.0175,-0.9814,0.1988,0.1171,0.0303,0.0715,0.0065,-0.0166,0.0167,-2.9901,1.3605,3.0193
2024-10-11T13:35:33.120Z,0.0136,-0.9808,0.2007,0.1171,0.0303,0.0715,0.0041,-0.0164,0.0172,-2.9901,1.3605,3.0193
2024-10-11T13:35:33.130Z,0.0162,-0.9816,0.2015,0.0873,0.0357,0.0573,0.0016,-0.0159,0.0162,-2.9927,1.3604,3.0211
2024-10-11T13:35:33.140Z,0.0207,-0.9807,0.1964,0.0873,0.0357,0.0573,0.0036,-0.0155,0.0149,-2.9927,1.3604,3.0211
2024-10-11T13:35:33.152Z,0.0206,-0.9821,0.1960,0.0873,0.0357,0.0573,0.0035,-0.0165,0.0161,-2.9927,1.3604,3.0211
2024-10-11T13:35:33.159Z,0.0192,-0.9840,0.1969,0.0548,0.0591,0.1035,0.0039,-0.0187,0.0162,-2.9951,1.3604,3.0227
2024-10-11T13:35:33.169Z,0.0219,-0.9825,0.1940,0.0548,0.0591,0.1035,0.0047,-0.0191,0.0148,-2.9951,1.3604,3.0227
2024-10-11T13:35:33.180Z,0.0235,-0.9826,0.1949,0.0548,0.0591,0.1035,0.0032,-0.0237,0.0140,-2.9951,1.3604,3.0227
2024-10-11T13:35:33.190Z,0.0250,-0.9815,0.1963,-0.0057,0.0354,0.1095,0.0051,-0.0241,0.0143,-2.9977,1.3603,3.0243
2024-10-11T13:35:33.201Z,0.0296,-0.9808,0.1970,-0.0057,0.0354,0.1095,0.0059,-0.0312,0.0132,-2.9977,1.3603,3.0243
2024-10-11T13:35:33.210Z,0.0302,-0.9797,0.2001,-0.0057,0.0354,0.1095,0.0064,-0.0392,0.0135,-2.9977,1.3603,3.0243
2024-10-11T13:35:33.220Z,0.0337,-0.9808,0.2019,-0.0924,0.0280,0.0559,0.0066,-0.0446,0.0111,-2.9999,1.3602,3.0251
2024-10-11T13:35:33.230Z,0.0307,-0.9823,0.2025,-0.0924,0.0280,0.0559,0.0040,-0.0503,0.0115,-2.9999,1.3602,3.0251
2024-10-11T13:35:33.240Z,0.0316,-0.9839,0.2035,-0.0924,0.0280,0.0559,0.0061,-0.0526,0.0084,-2.9999,1.3602,3.0251
2024-10-11T13:35:33.251Z,0.0320,-0.9828,0.2048,-0.0748,0.0483,0.0286,0.0066,-0.0518,0.0081,-3.0017,1.3601,3.0250
2024-10-11T13:35:33.260Z,0.0296,-0.9803,0.2053,-0.0748,0.0483,0.0286,0.0046,-0.0582,0.0101,-3.0017,1.3601,3.0250
2024-10-11T13:35:33.270Z,0.0313,-0.9796,0.2062,-0.0748,0.0483,0.0286,0.0038,-0.0593,0.0084,-3.0017,1.3601,3.0250
2024-10-11T13:35:33.280Z,0.0284,-0.9797,0.2075,-0.0387,0.0181,0.0038,0.0053,-0.0616,0.0088,-3.0032,1.3599,3.0244
2024-10-11T13:35:33.290Z,0.0254,-0.9766,0.2066,-0.0387,0.0181,0.0038,0.0048,-0.0631,0.0093,-3.0032,1.3599,3.0244
2024-10-11T13:35:33.301Z,0.0242,-0.9755,0.2051,-0.0387,0.0181,0.0038,0.0037,-0.0633,0.0093,-3.0032,1.3599,3.0244
2024-10-11T13:35:33.310Z,0.0247,-0.9751,0.2051,-0.0003,-0.0264,0.0283,0.0057,-0.0648,0.0063,-3.0047,1.3598,3.0237
2024-10-11T13:35:33.319Z,0.0244,-0.9743,0.2066,-0.0003,-0.0264,0.0283,0.0067,-0.0633,0.0080,-3.0047,1.3598,3.0237
2024-10-11T13:35:33.330Z,0.0234,-0.9747,0.2054,-0.0003,-0.0264,0.0283,0.0038,-0.0634,0.0078,-3.0047,1.3598,3.0237
2024-10-11T13:35:33.340Z,0.0242,-0.9742,0.2043,0.0056,-0.0350,0.0370,0.0066,-0.0652,0.0076,-3.0061,1.3597,3.0229
2024-10-11T13:35:33.351Z,0.0227,-0.9757,0.2040,0.0056,-0.0350,0.0370,0.0043,-0.0644,0.0065,-3.0061,1.3597,3.0229
2024-10-11T13:35:33.360Z,0.0193,-0.9789,0.2066,0.0056,-0.0350,0.0370,0.0022,-0.0673,0.0046,-3.0061,1.3597,3.0229
2024-10-11T13:35:33.370Z,0.0155,-0.9808,0.2058,0.0937,0.0296,0.0230,0.0007,-0.0632,0.0040,-3.0071,1.3595,3.0218
2024-10-11T13:35:33.380Z,0.0175,-0.9805,0.2050,0.0937,0.0296,0.0230,0.0052,-0.0653,0.0042,-3.0071,1.3595,3.0218
2024-10-11T13:35:33.390Z,0.0189,-0.9790,0.2035,0.0937,0.0296,0.0230,0.0055,-0.0669,0.0027,-3.0071,1.3595,3.0218
2024-10-11T13:35:33.401Z,0.0193,-0.9796,0.2034,0.0600,0.0180,0.0482,0.0072,-0.0634,0.0030,-3.0079,1.3594,3.0204
2024-10-11T13:35:33.410Z,0.0171,-0.9803,0.2048,0.0600,0.0180,0.0482,0.0056,-0.0610,0.0000,-3.0079,1.3594,3.0204
2024-10-11T13:35:33.420Z,0.0147,-0.9805,0.2087,0.0600,0.0180,0.0482,0.0043,-0.0602,-0.0004,-3.0079,1.3594,3.0204
2024-10-11T13:35:33.430Z,0.0159,-0.9798,0.2119,0.0970,0.0210,-0.0337,0.0048,-0.0562,-0.0014,-3.0082,1.3592,3.0185
2024-10-11T13:35:33.440Z,0.0202,-0.9799,0.2119,0.0970,0.0210,-0.0337,0.0014,-0.0544,-0.0028,-3.0082,1.3592,3.0185
2024-10-11T13:35:33.451Z,0.0200,-0.9805,0.2153,0.0970,0.0210,-0.0337,0.0036,-0.0496,-0.0032,-3.0082,1.3592,3.0185
2024-10-11T13:35:33.460Z,0.0177,-0.9781,0.2151,0.0834,0.0046,-0.0645,0.0015,-0.0448,-0.0030,-3.0082,1.3591,3.0168
2024-10-11T13:35:33.469Z,0.0175,-0.9760,0.2180,0.0834,0.0046,-0.0645,-0.0015,-0.0397,-0.0030,-3.0082,1.3591,3.0168
2024-10-11T13:35:33.480Z,0.0174,-0.9767,0.2198,0.0834,0.0046,-0.0645,-0.0021,-0.0342,-0.0042,-3.0082,1.3591,3.0168
2024-10-11T13:35:33.490Z,0.0190,-0.9793,0.2177,0.0738,0.0162,-0.0906,-0.0030,-0.0323,-0.0043,-3.0079,1.3591,3.0152
2024-10-11T13:35:33.499Z,0.0181,-0.9808,0.2171,0.0738,0.0162,-0.0906,-0.0056,-0.0287,-0.0039,-3.0079,1.3591,3.0152
2024-10-11T13:35:33.510Z,0.0161,-0.9815,0.2167,0.0738,0.0162,-0.0906,-0.0083,-0.0232,-0.0078,-3.0079,1.3591,3.0152
2024-10-11T13:35:33.520Z,0.0159,-0.9794,0.2169,0.1073,0.0165,-0.0845,-0.0077,-0.0208,-0.0049,-3.0072,1.3592,3.0134
2024-10-11T13:35:33.529Z,0.0190,-0.9799,0.2164,0.1073,0.0165,-0.0845,-0.0096,-0.0162,-0.0090,-3.0072,1.3592,3.0134
2024-10-11T13:35:33.539Z,0.0140,-0.9809,0.2150,0.1073,0.0165,-0.0845,-0.0115,-0.0132,-0.0099,-3.0072,1.3592,3.0134
2024-10-11T13:35:33.550Z,0.0138,-0.9787,0.2158,0.1314,0.0091,-0.0763,-0.0118,-0.0069,-0.0110,-3.0060,1.3595,3.0116
2024-10-11T13:35:33.560Z,0.0123,-0.9799,0.2129,0.1314,0.0091,-0.0763,-0.0118,-0.0046,-0.0113,-3.0060,1.3595,3.0116
2024-10-11T13:35:33.571Z,0.0152,-0.9814,0.2088,0.1314,0.0091,-0.0763,-0.0123,-0.0004,-0.0125,-3.0060,1.3595,3.0116
2024-10-11T13:35:33.580Z,0.0163,-0.9793,0.2074,0.1096,0.0148,0.0029,-0.0116,0.0037,-0.0135,-3.0047,1.3597,3.0101
2024-10-11T13:35:33.590Z,0.0170,-0.9774,0.2065,0.1096,0.0148,0.0029,-0.0120,0.0086,-0.0115,-3.0047,1.3597,3.0101
2024-10-11T13:35:33.600Z,0.0187,-0.9764,0.2055,0.1096,0.0148,0.0029,-0.0115,0.0123,-0.0143,-3.0047,1.3597,3.0101
2024-10-11T13:35:33.610Z,0.0198,-0.9778,0.2073,0.0784,-0.0003,0.0011,-0.0113,0.0153,-0.0149,-3.0030,1.3600,3.0085
2024-10-11T13:35:33.620Z,0.0182,-0.9789,0.2087,0.0784,-0.0003,0.0011,-0.0129,0.0176,-0.0151,-3.0030,1.3600,3.0085
2024-10-11T13:35:33.630Z,0.0222,-0.9805,0.2076,0.0784,-0.0003,0.0011,-0.0128,0.0194,-0.0164,-3.0030,1.3600,3.0085
2024-10-11T13:35:33.640Z,0.0250,-0.9805,0.2084,0.0299,0.0253,-0.0130,-0.0132,0.0234,-0.0146,-3.0010,1.3603,3.0068
2024-10-11T13:35:33.650Z,0.0264,-0.9797,0.2119,0.0299,0.0253,-0.0130,-0.0130,0.0209,-0.0147,-3.0010,1.3603,3.0068
2024-10-11T13:35:33.660Z,0.0283,-0.9799,0.2121,0.0299,0.0253,-0.0130,-0.0149,0.0228,-0.0165,-3.0010,1.3603,3.0068
2024-10-11T13:35:33.670Z,0.0261,-0.9777,0.2121,0.0216,-0.0033,-0.0527,-0.0139,0.0249,-0.0138,-2.9990,1.3606,3.0053
2024-10-11T13:35:33.680Z,0.0241,-0.9791,0.2136,0.0216,-0.0033,-0.0527,-0.0148,0.0253,-0.0150,-2.9990,1.3606,3.0053
2024-10-11T13:35:33.690Z,0.0274,-0.9790,0.2135,0.0216,-0.0033,-0.0527,-0.0121,0.0279,-0.0141,-2.9990,1.3606,3.0053
2024-10-11T13:35:33.700Z,0.0319,-0.9793,0.2125,-0.0326,0.0119,-0.0601,-0.0147,0.0262,-0.0120,-2.9971,1.3609,3.0041
2024-10-11T13:35:33.710Z,0.0328,-0.9769,0.2155,-0.0326,0.0119,-0.0601,-0.0137,0.0270,-0.0106,-2.9971,1.3609,3.0041
2024-10-11T13:35:33.720Z,0.0340,-0.9733,0.2169,-0.0326,0.0119,-0.0601,-0.0111,0.0266,-0.0098,-2.9971,1.3609,3.0041
2024-10-11T13:35:33.730Z,0.0345,-0.9726,0.2180,-0.0563,-0.0539,-0.1176,-0.0143,0.0262,-0.0091,-2.9956,1.3612,3.0031
2024-10-11T13:35:33.740Z,0.0353,-0.9740,0.2190,-0.0563,-0.0539,-0.1176,-0.0114,0.0263,-0.0077,-2.9956,1.3612,3.0031
2024-10-11T13:35:33.749Z,0.0360,-0.9756,0.2188,-0.0563,-0.0539,-0.1176,-0.0130,0.0292,-0.0072,-2.9956,1.3612,3.0031
2024-10-11T13:35:33.760Z,0.0368,-0.9763,0.2155,-0.0789,-0.0189,-0.0955,-0.0084,0.0276,-0.0037,-2.9946,1.3615,3.0027
2024-10-11T13:35:33.770Z,0.0383,-0.9771,0.2152,-0.0789,-0.0189,-0.0955,-0.0118,0.0284,-0.0048,-2.9946,1.3615,3.0027
2024-10-11T13:35:33.780Z,0.0364,-0.9736,0.2159,-0.0789,-0.0189,-0.0955,-0.0084,0.0283,0.0005,-2.9946,1.3615,3.0027
2024-10-11T13:35:33.790Z,0.0342,-0.9741,0.2135,-0.0538,-0.0409,-0.0780,-0.0094,0.0318,-0.0010,-2.9942,1.3617,3.0030
2024-10-11T13:35:33.800Z,0.0302,-0.9752,0.2120,-0.0538,-0.0409,-0.0780,-0.0091,0.0283,-0.0026,-2.9942,1.3617,3.0030
2024-10-11T13:35:33.810Z,0.0315,-0.9750,0.2103,-0.0538,-0.0409,-0.0780,-0.0070,0.0269,-0.0002,-2.9942,1.3617,3.0030
2024-10-11T13:35:33.819Z,0.0303,-0.9758,0.2081,-0.0172,-0.0246,-0.0266,-0.0082,0.0252,0.0016,-2.9941,1.3619,3.0034
2024-10-11T13:35:33.830Z,0.0322,-0.9760,0.2070,-0.0172,-0.0246,-0.0266,-0.0084,0.0238,0.0005,-2.9941,1.3619,3.0034
2024-10-11T13:35:33.840Z,0.0307,-0.9749,0.2065,-0.0172,-0.0246,-0.0266,-0.0101,0.0230,-0.0013,-2.9941,1.3619,3.0034
2024-10-11T13:35:33.850Z,0.0274,-0.9740,0.2081,0.0101,-0.0424,-0.0277,-0.0054,0.0213,0.0017,-2.9941,1.3620,3.0039
2024-10-11T13:35:33.860Z,0.0255,-0.9729,0.2074,0.0101,-0.0424,-0.0277,-0.0066,0.0224,0.0006,-2.9941,1.3620,3.0039
2024-10-11T13:35:33.869Z,0.0248,-0.9758,0.2078,0.0101,-0.0424,-0.0277,-0.0069,0.0215,0.0001,-2.9941,1.3620,3.0039
2024-10-11T13:35:33.880Z,0.0269,-0.9744,0.2093,0.0139,-0.0383,-0.0405,-0.0040,0.0204,-0.0015,-2.9942,1.3622,3.0043
2024-10-11T13:35:33.890Z,0.0269,-0.9731,0.2079,0.0139,-0.0383,-0.0405,-0.0020,0.0191,0.0012,-2.9942,1.3622,3.0043
2024-10-11T13:35:33.900Z,0.0314,-0.9732,0.2071,0.0139,-0.0383,-0.0405,-0.0027,0.0190,0.0008,-2.9942,1.3622,3.0043
2024-10-11T13:35:33.910Z,0.0341,-0.9710,0.2064,-0.0571,-0.0717,-0.0126,-0.0021,0.0196,0.0009,-2.9942,1.3622,3.0047
2024-10-11T13:35:33.919Z,0.0314,-0.9701,0.2076,-0.0571,-0.0717,-0.0126,-0.0029,0.0185,-0.0004,-2.9942,1.3622,3.0047
2024-10-11T13:35:33.930Z,0.0296,-0.9693,0.2057,-0.0571,-0.0717,-0.0126,-0.0004,0.0179,0.0023,-2.9942,1.3622,3.0047
2024-10-11T13:35:33.940Z,0.0281,-0.9713,0.2069,0.0009,-0.0685,-0.0172,0.0003,0.0145,0.0008,-2.9945,1.3622,3.0052
2024-10-11T13:35:33.950Z,0.0298,-0.9708,0.2049,0.0009,-0.0685,-0.0172,0.0002,0.0169,0.0006,-2.9945,1.3622,3.0052
2024-10-11T13:35:33.960Z,0.0324,-0.9722,0.2056,0.0009,-0.0685,-0.0172,-0.0004,0.0163,-0.0004,-2.9945,1.3622,3.0052
2024-10-11T13:35:33.970Z,0.0320,-0.9726,0.2039,-0.0382,-0.0559,0.0129,0.0012,0.0132,-0.0032,-2.9948,1.3621,3.0057
2024-10-11T13:35:33.980Z,0.0302,-0.9730,0.2055,-0.0382,-0.0559,0.0129,-0.0007,0.0094,-0.0015,-2.9948,1.3621,3.0057
2024-10-11T13:35:33.990Z,0.0310,-0.9709,0.2049,-0.0382,-0.0559,0.0129,-0.0017,0.0075,-0.0034,-2.9948,1.3621,3.0057
2024-10-11T13:35:34.000Z,0.0331,-0.9717,0.2047,-0.0482,-0.0650,0.0057,0.0035,0.0067,-0.0048,-2.9942,1.3621,3.0052
2024-10-11T13:35:34.010Z,0.0316,-0.9730,0.2069,-0.0482,-0.0650,0.0057,0.0014,0.0046,-0.0080,-2.9942,1.3621,3.0052
2024-10-11T13:35:34.019Z,0.0302,-0.9725,0.2072,-0.0482,-0.0650,0.0057,0.0028,0.0061,-0.0073,-2.9942,1.3621,3.0052
2024-10-11T13:35:34.030Z,0.0310,-0.9731,0.2047,-0.0254,-0.0506,0.0071,0.0036,0.0047,-0.0100,-2.9935,1.3619,3.0044
2024-10-11T13:35:34.040Z,0.0319,-0.9730,0.2048,-0.0254,-0.0506,0.0071,0.0025,0.0036,-0.0065,-2.9935,1.3619,3.0044
2024-10-11T13:35:34.050Z,0.0329,-0.9721,0.2041,-0.0254,-0.0506,0.0071,0.0058,-0.0012,-0.0076,-2.9935,1.3619,3.0044
2024-10-11T13:35:34.060Z,0.0294,-0.9726,0.2030,-0.0047,-0.0552,0.0254,0.0065,-0.0005,-0.0081,-2.9913,1.3616,3.0019
2024-10-11T13:35:34.069Z,0.0290,-0.9722,0.2020,-0.0047,-0.0552,0.0254,0.0064,-0.0024,-0.0080,-2.9913,1.3616,3.0019
2024-10-11T13:35:34.080Z,0.0310,-0.9744,0.2018,-0.0047,-0.0552,0.0254,0.0083,-0.0038,-0.0098,-2.9913,1.3616,3.0019
2024-10-11T13:35:34.090Z,0.0302,-0.9761,0.2015,-0.0062,-0.0194,0.0437,0.0092,-0.0040,-0.0098,-2.9889,1.3612,2.9991
2024-10-11T13:35:34.100Z,0.0307,-0.9763,0.2021,-0.0062,-0.0194,0.0437,0.0089,-0.0043,-0.0117,-2.9889,1.3612,2.9991
2024-10-11T13:35:34.110Z,0.0293,-0.9757,0.2036,-0.0062,-0.0194,0.0437,0.0094,-0.0053,-0.0101,-2.9889,1.3612,2.9991
2024-10-11T13:35:34.120Z,0.0285,-0.9765,0.2054,0.0154,-0.0148,0.0088,0.0114,-0.0033,-0.0138,-2.9872,1.3608,2.9971
2024-10-11T13:35:34.129Z,0.0284,-0.9778,0.2077,0.0154,-0.0148,0.0088,0.0086,-0.0036,-0.0113,-2.9872,1.3608,2.9971
2024-10-11T13:35:34.140Z,0.0292,-0.9793,0.2106,0.0154,-0.0148,0.0088,0.0095,-0.0014,-0.0152,-2.9872,1.3608,2.9971
2024-10-11T13:35:34.150Z,0.0299,-0.9801,0.2111,0.0059,0.0207,-0.0445,0.0106,-0.0025,-0.0152,-2.9854,1.3604,2.9950
2024-10-11T13:35:34.160Z,0.0285,-0.9789,0.2117,0.0059,0.0207,-0.0445,0.0108,-0.0002,-0.0148,-2.9854,1.3604,2.9950
2024-10-11T13:35:34.170Z,0.0287,-0.9786,0.2126,0.0059,0.0207,-0.0445,0.0103,0.0047,-0.0153,-2.9854,1.3604,2.9950
2024-10-11T13:35:34.180Z,0.0297,-0.9807,0.2126,0.0122,0.0274,-0.0563,0.0077,0.0039,-0.0154,-2.9837,1.3601,2.9931
2024-10-11T13:35:34.190Z,0.0338,-0.9825,0.2094,0.0122,0.0274,-0.0563,0.0082,0.0081,-0.0125,-2.9837,1.3601,2.9931
2024-10-11T13:35:34.200Z,0.0360,-0.9861,0.2108,0.0122,0.0274,-0.0563,0.0072,0.0114,-0.0124,-2.9837,1.3601,2.9931
2024-10-11T13:35:34.210Z,0.0404,-0.9866,0.2115,-0.0898,0.0862,-0.0429,0.0080,0.0146,-0.0122,-2.9821,1.3598,2.9917
2024-10-11T13:35:34.220Z,0.0404,-0.9873,0.2127,-0.0898,0.0862,-0.0429,0.0067,0.0179,-0.0084,-2.9821,1.3598,2.9917
2024-10-11T13:35:34.230Z,0.0408,-0.9866,0.2120,-0.0898,0.0862,-0.0429,0.0032,0.0208,-0.0105,-2.9821,1.3598,2.9917
2024-10-11T13:35:34.241Z,0.0414,-0.9865,0.2148,-0.0974,0.0861,-0.0735,0.0060,0.0200,-0.0100,-2.9811,1.3595,2.9911
2024-10-11T13:35:34.250Z,0.0411,-0.9866,0.2148,-0.0974,0.0861,-0.0735,0.0050,0.0237,-0.0049,-2.9811,1.3595,2.9911
2024-10-11T13:35:34.260Z,0.0431,-0.9907,0.2138,-0.0974,0.0861,-0.0735,0.0009,0.0269,-0.0058,-2.9811,1.3595,2.9911
2024-10-11T13:35:34.270Z,0.0401,-0.9904,0.2152,-0.0841,0.1245,-0.0758,-0.0029,0.0256,-0.0053,-2.9805,1.3594,2.9909
2024-10-11T13:35:34.280Z,0.0415,-0.9919,0.2134,-0.0841,0.1245,-0.0758,-0.0024,0.0285,-0.0052,-2.9805,1.3594,2.9909
2024-10-11T13:35:34.290Z,0.0382,-0.9944,0.2129,-0.0841,0.1245,-0.0758,-0.0043,0.0313,-0.0068,-2.9805,1.3594,2.9909
2024-10-11T13:35:34.300Z,0.0390,-0.9897,0.2140,-0.0739,0.1171,-0.0642,-0.0060,0.0296,-0.0031,-2.9801,1.3594,2.9909
2024-10-11T13:35:34.310Z,0.0375,-0.9882,0.2125,-0.0739,0.1171,-0.0642,-0.0080,0.0279,-0.0050,-2.9801,1.3594,2.9909
2024-10-11T13:35:34.320Z,0.0365,-0.9863,0.2096,-0.0739,0.1171,-0.0642,-0.0081,0.0268,-0.0044,-2.9801,1.3594,2.9909
2024-10-11T13:35:34.330Z,0.0362,-0.9890,0.2122,-0.0462,0.1103,-0.0490,-0.0125,0.0268,-0.0044,-2.9795,1.3597,2.9908
2024-10-11T13:35:34.340Z,0.0371,-0.9883,0.2132,-0.0462,0.1103,-0.0490,-0.0121,0.0252,-0.0021,-2.9795,1.3597,2.9908
2024-10-11T13:35:34.350Z,0.0346,-0.9849,0.2123,-0.0462,0.1103,-0.0490,-0.0136,0.0274,-0.0015,-2.9795,1.3597,2.9908
2024-10-11T13:35:34.360Z,0.0273,-0.9831,0.2128,0.0405,0.0512,-0.0586,-0.0153,0.0292,-0.0030,-2.9786,1.3600,2.9906
2024-10-11T13:35:34.370Z,0.0356,-0.9824,0.2149,0.0405,0.0512,-0.0586,-0.0180,0.0320,-0.0028,-2.9786,1.3600,2.9906
2024-10-11T13:35:34.379Z,0.0284,-0.9826,0.2124,0.0405,0.0512,-0.0586,-0.0192,0.0364,-0.0010,-2.9786,1.3600,2.9906
2024-10-11T13:35:34.389Z,0.0311,-0.9863,0.2129,0.0025,0.0813,-0.0642,-0.0194,0.0332,-0.0008,-2.9780,1.3605,2.9908
2024-10-11T13:35:34.400Z,0.0319,-0.9845,0.2100,0.0025,0.0813,-0.0642,-0.0230,0.0296,-0.0011,-2.9780,1.3605,2.9908
2024-10-11T13:35:34.410Z,0.0289,-0.9840,0.2071,0.0025,0.0813,-0.0642,-0.0237,0.0310,-0.0001,-2.9780,1.3605,2.9908
2024-10-11T13:35:34.420Z,0.0305,-0.9825,0.2074,0.0065,0.0435,-0.0157,-0.0267,0.0309,-0.0002,-2.9776,1.3612,2.9912
2024-10-11T13:35:34.430Z,0.0295,-0.9794,0.2070,0.0065,0.0435,-0.0157,-0.0270,0.0360,-0.0011,-2.9776,1.3612,2.9912
2024-10-11T13:35:34.440Z,0.0261,-0.9782,0.2076,0.0065,0.0435,-0.0157,-0.0263,0.0385,-0.0022,-2.9776,1.3612,2.9912
2024-10-11T13:35:34.450Z,0.0249,-0.9779,0.2080,0.0598,-0.0036,-0.0289,-0.0235,0.0426,-0.0020,-2.9773,1.3619,2.9918
2024-10-11T13:35:34.460Z,0.0255,-0.9780,0.2107,0.0598,-0.0036,-0.0289,-0.0276,0.0423,-0.0004,-2.9773,1.3619,2.9918
2024-10-11T13:35:34.470Z,0.0271,-0.9787,0.2106,0.0598,-0.0036,-0.0289,-0.0276,0.0451,0.0022,-2.9773,1.3619,2.9918
2024-10-11T13:35:34.480Z,0.0249,-0.9779,0.2099,0.0566,-0.0049,-0.0540,-0.0293,0.0497,-0.0026,-2.9771,1.3627,2.9926
2024-10-11T13:35:34.490Z,0.0244,-0.9757,0.2063,0.0566,-0.0049,-0.0540,-0.0263,0.0534,-0.0008,-2.9771,1.3627,2.9926
2024-10-11T13:35:34.500Z,0.0234,-0.9749,0.2059,0.0566,-0.0049,-0.0540,-0.0280,0.0550,0.0024,-2.9771,1.3627,2.9926
2024-10-11T13:35:34.510Z,0.0223,-0.9741,0.2046,0.0787,-0.0437,-0.0093,-0.0279,0.0616,0.0010,-2.9768,1.3634,2.9937
2024-10-11T13:35:34.520Z,0.0224,-0.9737,0.2048,0.0787,-0.0437,-0.0093,-0.0257,0.0650,0.0012,-2.9768,1.3634,2.9937
2024-10-11T13:35:34.530Z,0.0175,-0.9719,0.2007,0.0787,-0.0437,-0.0093,-0.0282,0.0710,0.0011,-2.9768,1.3634,2.9937
2024-10-11T13:35:34.539Z,0.0161,-0.9724,0.1983,0.1347,-0.0617,0.0453,-0.0247,0.0738,0.0010,-2.9768,1.3642,2.9955
2024-10-11T13:35:34.550Z,0.0155,-0.9714,0.1992,0.1347,-0.0617,0.0453,-0.0252,0.0789,0.0008,-2.9768,1.3642,2.9955
2024-10-11T13:35:34.560Z,0.0172,-0.9730,0.2003,0.1347,-0.0617,0.0453,-0.0221,0.0795,0.0019,-2.9768,1.3642,2.9955
2024-10-11T13:35:34.570Z,0.0120,-0.9724,0.1989,0.1704,-0.0633,0.0340,-0.0224,0.0838,-0.0003,-2.9767,1.3649,2.9976
2024-10-11T13:35:34.580Z,0.0119,-0.9729,0.1985,0.1704,-0.0633,0.0340,-0.0211,0.0870,-0.0011,-2.9767,1.3649,2.9976
2024-10-11T13:35:34.589Z,0.0120,-0.9739,0.1985,0.1704,-0.0633,0.0340,-0.0228,0.0888,-0.0004,-2.9767,1.3649,2.9976
2024-10-11T13:35:34.600Z,0.0115,-0.9748,0.1992,0.1694,-0.0408,0.0259,-0.0220,0.0927,-0.0022,-2.9765,1.3655,2.9998
2024-10-11T13:35:34.610Z,0.0146,-0.9760,0.1966,0.1694,-0.0408,0.0259,-0.0194,0.0962,-0.0023,-2.9765,1.3655,2.9998
2024-10-11T13:35:34.620Z,0.0190,-0.9766,0.1961,0.1694,-0.0408,0.0259,-0.0178,0.0955,-0.0042,-2.9765,1.3655,2.9998
2024-10-11T13:35:34.630Z,0.0247,-0.9748,0.1940,0.0352,-0.0418,0.0724,-0.0184,0.0963,-0.0043,-2.9759,1.3660,3.0019
2024-10-11T13:35:34.640Z,0.0274,-0.9723,0.1952,0.0352,-0.0418,0.0724,-0.0153,0.0956,-0.0049,-2.9759,1.3660,3.0019
2024-10-11T13:35:34.650Z,0.0306,-0.9686,0.1962,0.0352,-0.0418,0.0724,-0.0113,0.0957,-0.0028,-2.9759,1.3660,3.0019
2024-10-11T13:35:34.660Z,0.0344,-0.9657,0.1931,-0.0643,-0.1323,0.0784,-0.0121,0.0979,-0.0055,-2.9753,1.3664,3.0039
2024-10-11T13:35:34.671Z,0.0348,-0.9635,0.1919,-0.0643,-0.1323,0.0784,-0.0094,0.0982,-0.0052,-2.9753,1.3664,3.0039
2024-10-11T13:35:34.681Z,0.0382,-0.9633,0.1945,-0.0643,-0.1323,0.0784,-0.0081,0.0974,-0.0027,-2.9753,1.3664,3.0039
2024-10-11T13:35:34.690Z,0.0354,-0.9660,0.1998,-0.0790,-0.1296,0.0115,-0.0077,0.1000,-0.0040,-2.9750,1.3666,3.0063
2024-10-11T13:35:34.700Z,0.0294,-0.9673,0.2011,-0.0790,-0.1296,0.0115,-0.0061,0.0997,-0.0033,-2.9750,1.3666,3.0063
2024-10-11T13:35:34.710Z,0.0274,-0.9688,0.2028,-0.0790,-0.1296,0.0115,-0.0052,0.1033,-0.0032,-2.9750,1.3666,3.0063
2024-10-11T13:35:34.720Z,0.0214,-0.9713,0.2063,0.0529,-0.0780,-0.0533,-0.0062,0.1068,-0.0059,-2.9747,1.3667,3.0089
2024-10-11T13:35:34.730Z,0.0219,-0.9737,0.2070,0.0529,-0.0780,-0.0533,-0.0065,0.1068,-0.0049,-2.9747,1.3667,3.0089
2024-10-11T13:35:34.740Z,0.0234,-0.9735,0.2071,0.0529,-0.0780,-0.0533,-0.0083,0.1070,-0.0055,-2.9747,1.3667,3.0089
2024-10-11T13:35:34.750Z,0.0188,-0.9759,0.2056,0.0730,-0.0334,-0.0474,-0.0088,0.1090,-0.0057,-2.9743,1.3669,3.0114
2024-10-11T13:35:34.760Z,0.0186,-0.9760,0.2072,0.0730,-0.0334,-0.0474,-0.0076,0.1083,-0.0076,-2.9743,1.3669,3.0114
2024-10-11T13:35:34.770Z,0.0229,-0.9767,0.2051,0.0730,-0.0334,-0.0474,-0.0061,0.1131,-0.0100,-2.9743,1.3669,3.0114
2024-10-11T13:35:34.780Z,0.0198,-0.9779,0.2016,0.0591,-0.0141,-0.0083,-0.0085,0.1127,-0.0099,-2.9733,1.3670,3.0136
2024-10-11T13:35:34.790Z,0.0228,-0.9787,0.2018,0.0591,-0.0141,-0.0083,-0.0082,0.1141,-0.0096,-2.9733,1.3670,3.0136
2024-10-11T13:35:34.800Z,0.0208,-0.9793,0.1999,0.0591,-0.0141,-0.0083,-0.0062,0.1155,-0.0108,-2.9733,1.3670,3.0136
2024-10-11T13:35:34.810Z,0.0209,-0.9788,0.2018,0.0446,-0.0049,-0.0113,-0.0064,0.1129,-0.0121,-2.9721,1.3672,3.0156
2024-10-11T13:35:34.820Z,0.0193,-0.9768,0.1989,0.0446,-0.0049,-0.0113,-0.0038,0.1123,-0.0108,-2.9721,1.3672,3.0156
2024-10-11T13:35:34.830Z,0.0181,-0.9767,0.2003,0.0446,-0.0049,-0.0113,-0.0035,0.1119,-0.0127,-2.9721,1.3672,3.0156
2024-10-11T13:35:34.839Z,0.0162,-0.9760,0.1950,0.0875,-0.0328,0.0547,-0.0056,0.1130,-0.0147,-2.9704,1.3672,3.0171
2024-10-11T13:35:34.850Z,0.0119,-0.9774,0.1884,0.0875,-0.0328,0.0547,-0.0016,0.1188,-0.0172,-2.9704,1.3672,3.0171
2024-10-11T13:35:34.860Z,0.0042,-0.9750,0.1810,0.0875,-0.0328,0.0547,0.0012,0.1261,-0.0173,-2.9704,1.3672,3.0171
2024-10-11T13:35:34.870Z,-0.0004,-0.9740,0.1816,0.2476,-0.0529,0.1874,0.0012,0.1316,-0.0147,-2.9683,1.3672,3.0184
2024-10-11T13:35:34.880Z,0.0125,-0.9794,0.1894,0.2476,-0.0529,0.1874,0.0008,0.1347,-0.0198,-2.9683,1.3672,3.0184
2024-10-11T13:35:34.890Z,0.0084,-0.9771,0.1910,0.2476,-0.0529,0.1874,0.0018,0.1363,-0.0201,-2.9683,1.3672,3.0184
2024-10-11T13:35:34.900Z,0.0132,-0.9811,0.1924,0.1120,0.0174,0.0836,0.0020,0.1350,-0.0214,-2.9657,1.3670,3.0197
2024-10-11T13:35:34.909Z,0.0179,-0.9789,0.1949,0.1120,0.0174,0.0836,0.0037,0.1350,-0.0198,-2.9657,1.3670,3.0197
2024-10-11T13:35:34.920Z,0.0187,-0.9811,0.1955,0.1120,0.0174,0.0836,0.0001,0.1302,-0.0237,-2.9657,1.3670,3.0197
2024-10-11T13:35:34.930Z,0.0217,-0.9808,0.1928,0.0271,0.0154,0.0814,0.0024,0.1348,-0.0242,-2.9629,1.3668,3.0207
2024-10-11T13:35:34.940Z,0.0271,-0.9813,0.1942,0.0271,0.0154,0.0814,0.0046,0.1291,-0.0219,-2.9629,1.3668,3.0207
2024-10-11T13:35:34.950Z,0.0323,-0.9833,0.1937,0.0271,0.0154,0.0814,0.0028,0.1235,-0.0245,-2.9629,1.3668,3.0207
2024-10-11T13:35:34.960Z,0.0390,-0.9836,0.1921,-0.1437,0.0425,0.0902,0.0050,0.1144,-0.0223,-2.9599,1.3666,3.0212
2024-10-11T13:35:34.970Z,0.0419,-0.9845,0.1919,-0.1437,0.0425,0.0902,0.0033,0.1089,-0.0249,-2.9599,1.3666,3.0212
2024-10-11T13:35:34.980Z,0.0463,-0.9872,0.1925,-0.1437,0.0425,0.0902,0.0073,0.1006,-0.0223,-2.9599,1.3666,3.0212
2024-10-11T13:35:34.990Z,0.0477,-0.9903,0.1964,-0.2279,0.1089,0.0498,0.0034,0.0982,-0.0239,-2.9567,1.3664,3.0210
2024-10-11T13:35:35.000Z,0.0496,-0.9852,0.1969,-0.2279,0.1089,0.0498,0.0064,0.0902,-0.0248,-2.9567,1.3664,3.0210
2024-10-11T13:35:35.010Z,0.0547,-0.9834,0.1965,-0.2279,0.1089,0.0498,0.0046,0.0893,-0.0234,-2.9567,1.3664,3.0210
2024-10-11T13:35:35.020Z,0.0491,-0.9810,0.1973,-0.2405,0.0179,0.0427,0.0048,0.0815,-0.0223,-2.9536,1.3662,3.0203
2024-10-11T13:35:35.030Z,0.0555,-0.9789,0.1976,-0.2405,0.0179,0.0427,0.0046,0.0748,-0.0234,-2.9536,1.3662,3.0203
2024-10-11T13:35:35.040Z,0.0542,-0.9822,0.1977,-0.2405,0.0179,0.0427,0.0036,0.0684,-0.0238,-2.9536,1.3662,3.0203
2024-10-11T13:35:35.050Z,0.0538,-0.9831,0.1992,-0.2845,0.0396,0.0261,0.0026,0.0644,-0.0221,-2.9505,1.3660,3.0192
2024-10-11T13:35:35.060Z,0.0483,-0.9807,0.2001,-0.2845,0.0396,0.0261,0.0022,0.0645,-0.0227,-2.9505,1.3660,3.0192
2024-10-11T13:35:35.070Z,0.0389,-0.9805,0.2006,-0.2845,0.0396,0.0261,0.0015,0.0677,-0.0228,-2.9505,1.3660,3.0192
2024-10-11T13:35:35.080Z,0.0373,-0.9758,0.2008,-0.1194,-0.0322,0.0117,0.0011,0.0714,-0.0226,-2.9475,1.3658,3.0180
2024-10-11T13:35:35.090Z,0.0301,-0.9771,0.2012,-0.1194,-0.0322,0.0117,-0.0023,0.0757,-0.0237,-2.9475,1.3658,3.0180
2024-10-11T13:35:35.101Z,0.0308,-0.9801,0.2014,-0.1194,-0.0322,0.0117,-0.0029,0.0778,-0.0207,-2.9475,1.3658,3.0180
2024-10-11T13:35:35.110Z,0.0357,-0.9822,0.2024,-0.1028,0.0304,-0.0039,-0.0029,0.0762,-0.0173,-2.9447,1.3658,3.0172
2024-10-11T13:35:35.121Z,0.0393,-0.9842,0.2040,-0.1028,0.0304,-0.0039,-0.0029,0.0762,-0.0173,-2.9447,1.3658,3.0172
2024-10-11T13:35:35.130Z,0.0387,-0.9850,0.2043,-0.1028,0.0304,-0.0039,-0.0040,0.0755,-0.0143,-2.9447,1.3658,3.0172
2024-10-11T13:35:35.141Z,0.0395,-0.9860,0.2034,-0.1416,0.0602,-0.0226,-0.0100,0.0774,-0.0129,-2.9426,1.3659,3.0172
2024-10-11T13:35:35.150Z,0.0395,-0.9860,0.2034,-0.1416,0.0602,-0.0226,-0.0093,0.0761,-0.0114,-2.9426,1.3659,3.0172
2024-10-11T13:35:35.160Z,0.0374,-0.9859,0.2040,-0.1416,0.0602,-0.0226,-0.0093,0.0761,-0.0114,-2.9426,1.3659,3.0172
2024-10-11T13:35:35.170Z,0.0380,-0.9863,0.2023,-0.1265,0.0705,-0.0060,-0.0090,0.0789,-0.0106,-2.9408,1.3661,3.0176
2024-10-11T13:35:35.181Z,0.0372,-0.9847,0.2023,-0.1265,0.0705,-0.0060,-0.0118,0.0749,-0.0102,-2.9408,1.3661,3.0176
2024-10-11T13:35:35.191Z,0.0373,-0.9859,0.2000,-0.1265,0.0705,-0.0060,-0.0112,0.0730,-0.0099,-2.9408,1.3661,3.0176
2024-10-11T13:35:35.200Z,0.0345,-0.9832,0.1972,-0.0933,0.0399,0.0414,-0.0097,0.0743,-0.0083,-2.9395,1.3664,3.0182
2024-10-11T13:35:35.211Z,0.0355,-0.9805,0.1952,-0.0933,0.0399,0.0414,-0.0072,0.0786,-0.0079,-2.9395,1.3664,3.0182
2024-10-11T13:35:35.222Z,0.0281,-0.9783,0.1894,0.0195,-0.0185,0.1390,-0.0072,0.0786,-0.0079,-2.9384,1.3666,3.0192
2024-10-11T13:35:35.231Z,0.0228,-0.9773,0.1871,0.0195,-0.0185,0.1390,-0.0038,0.0957,-0.0100,-2.9384,1.3666,3.0192
2024-10-11T13:35:35.241Z,0.0163,-0.9726,0.1844,0.0195,-0.0185,0.1390,-0.0034,0.1071,-0.0092,-2.9384,1.3666,3.0192
2024-10-11T13:35:35.251Z,0.0033,-0.9688,0.1777,0.0195,-0.0185,0.1390,-0.0008,0.1152,-0.0080,-2.9384,1.3666,3.0192
2024-10-11T13:35:35.260Z,-0.0012,-0.9673,0.1768,0.2516,-0.1171,0.2397,0.0012,0.1210,-0.0115,-2.9372,1.3667,3.0208
2024-10-11T13:35:35.271Z,0.0089,-0.9683,0.1828,0.2516,-0.1171,0.2397,0.0012,0.1210,-0.0115,-2.9372,1.3667,3.0208
2024-10-11T13:35:35.280Z,0.0110,-0.9709,0.1917,0.2516,-0.1171,0.2397,-0.0012,0.1188,-0.0110,-2.9372,1.3667,3.0208
2024-10-11T13:35:35.289Z,0.0145,-0.9763,0.1978,0.0938,-0.0286,0.0342,-0.0012,0.1188,-0.0110,-2.9359,1.3666,3.0229
2024-10-11T13:35:35.300Z,0.0315,-0.9819,0.2049,0.0938,-0.0286,0.0342,0.0001,0.0984,-0.0100,-2.9359,1.3666,3.0229
2024-10-11T13:35:35.310Z,0.0425,-0.9777,0.1992,0.0938,-0.0286,0.0342,0.0009,0.0892,-0.0117,-2.9359,1.3666,3.0229
2024-10-11T13:35:35.321Z,0.0545,-0.9781,0.2009,-0.3018,-0.0106,0.0055,0.0009,0.0892,-0.0117,-2.9347,1.3666,3.0245
2024-10-11T13:35:35.330Z,0.0557,-0.9778,0.1984,-0.3018,-0.0106,0.0055,-0.0009,0.0774,-0.0113,-2.9347,1.3666,3.0245
2024-10-11T13:35:35.341Z,0.0677,-0.9756,0.2014,-0.3018,-0.0106,0.0055,0.0007,0.0450,-0.0132,-2.9347,1.3666,3.0245
2024-10-11T13:35:35.350Z,0.0681,-0.9825,0.1997,-0.4902,0.0174,0.0134,0.0007,0.0450,-0.0132,-2.9331,1.3665,3.0246
2024-10-11T13:35:35.361Z,0.0681,-0.9825,0.1997,-0.4902,0.0174,0.0134,0.0001,0.0210,-0.0168,-2.9331,1.3665,3.0246
2024-10-11T13:35:35.373Z,0.0686,-0.9870,0.2016,-0.3653,0.0818,0.0332,0.0001,0.0210,-0.0168,-2.9312,1.3664,3.0232
2024-10-11T13:35:35.380Z,0.0612,-0.9875,0.1982,-0.3653,0.0818,0.0332,0.0007,0.0114,-0.0133,-2.9312,1.3664,3.0232
2024-10-11T13:35:35.389Z,0.0580,-0.9888,0.1965,-0.3653,0.0818,0.0332,0.0007,0.0114,-0.0133,-2.9312,1.3664,3.0232
2024-10-11T13:35:35.400Z,0.0495,-0.9863,0.1917,-0.3653,0.0818,0.0332,0.0035,0.0083,-0.0117,-2.9312,1.3664,3.0232
2024-10-11T13:35:35.409Z,0.0506,-0.9864,0.1901,-0.2578,0.0712,0.1136,0.0035,0.0083,-0.0117,-2.9295,1.3662,3.0216
2024-10-11T13:35:35.421Z,0.0454,-0.9828,0.1888,-0.2578,0.0712,0.1136,0.0019,0.0121,-0.0093,-2.9295,1.3662,3.0216
2024-10-11T13:35:35.430Z,0.0407,-0.9803,0.1873,-0.2578,0.0712,0.1136,0.0043,0.0120,-0.0052,-2.9295,1.3662,3.0216
2024-10-11T13:35:35.441Z,0.0388,-0.9783,0.1873,-0.1396,-0.0080,0.1426,0.0067,0.0154,-0.0081,-2.9283,1.3661,3.0204
2024-10-11T13:35:35.450Z,0.0340,-0.9782,0.1874,-0.1396,-0.0080,0.1426,0.0078,0.0177,-0.0066,-2.9283,1.3661,3.0204
2024-10-11T13:35:35.460Z,0.0275,-0.9734,0.1859,-0.1396,-0.0080,0.1426,0.0075,0.0192,-0.0083,-2.9283,1.3661,3.0204
2024-10-11T13:35:35.471Z,0.0247,-0.9726,0.1881,0.0005,-0.0633,0.1366,0.0098,0.0206,-0.0095,-2.9272,1.3658,3.0196
2024-10-11T13:35:35.480Z,0.0209,-0.9711,0.1872,0.0005,-0.0633,0.1366,0.0105,0.0214,-0.0103,-2.9272,1.3658,3.0196
2024-10-11T13:35:35.490Z,0.0192,-0.9709,0.1908,0.0005,-0.0633,0.1366,0.0094,0.0243,-0.0113,-2.9272,1.3658,3.0196
2024-10-11T13:35:35.500Z,0.0139,-0.9716,0.1913,0.1085,-0.0729,0.1081,0.0118,0.0251,-0.0143,-2.9260,1.3655,3.0189
2024-10-11T13:35:35.510Z,0.0107,-0.9730,0.1933,0.1085,-0.0729,0.1081,0.0105,0.0300,-0.0147,-2.9260,1.3655,3.0189
2024-10-11T13:35:35.523Z,0.0174,-0.9757,0.1960,0.1025,-0.0190,0.0898,0.0095,0.0331,-0.0158,-2.9243,1.3651,3.0178
2024-10-11T13:35:35.530Z,0.0148,-0.9770,0.1936,0.1025,-0.0190,0.0898,0.0128,0.0365,-0.0130,-2.9243,1.3651,3.0178
2024-10-11T13:35:35.541Z,0.0178,-0.9774,0.1946,0.1025,-0.0190,0.0898,0.0116,0.0399,-0.0164,-2.9243,1.3651,3.0178
2024-10-11T13:35:35.550Z,0.0181,-0.9778,0.1926,0.1025,-0.0190,0.0898,0.0100,0.0416,-0.0157,-2.9243,1.3651,3.0178
2024-10-11T13:35:35.560Z,0.0193,-0.9786,0.1912,0.0674,-0.0061,0.1261,0.0134,0.0439,-0.0152,-2.9227,1.3647,3.0170
2024-10-11T13:35:35.571Z,0.0193,-0.9786,0.1912,0.0674,-0.0061,0.1261,0.0154,0.0490,-0.0146,-2.9227,1.3647,3.0170
2024-10-11T13:35:35.580Z,0.0210,-0.9768,0.1907,0.0674,-0.0061,0.1261,0.0130,0.0495,-0.0155,-2.9227,1.3647,3.0170
2024-10-11T13:35:35.590Z,0.0211,-0.9738,0.1911,0.0443,-0.0481,0.1215,0.0136,0.0552,-0.0146,-2.9210,1.3642,3.0165
2024-10-11T13:35:35.600Z,0.0204,-0.9718,0.1897,0.0443,-0.0481,0.1215,0.0138,0.0591,-0.0145,-2.9210,1.3642,3.0165
2024-10-11T13:35:35.610Z,0.0204,-0.9718,0.1897,0.0443,-0.0481,0.1215,0.0169,0.0615,-0.0155,-2.9210,1.3642,3.0165
2024-10-11T13:35:35.621Z,0.0218,-0.9725,0.1916,0.0381,-0.0597,0.1221,0.0179,0.0660,-0.0148,-2.9194,1.3637,3.0165
2024-10-11T13:35:35.630Z,0.0199,-0.9734,0.1927,0.0381,-0.0597,0.1221,0.0190,0.0665,-0.0161,-2.9194,1.3637,3.0165
2024-10-11T13:35:35.640Z,0.0160,-0.9747,0.1926,0.0381,-0.0597,0.1221,0.0201,0.0691,-0.0190,-2.9194,1.3637,3.0165
2024-10-11T13:35:35.650Z,0.0180,-0.9785,0.1950,0.1048,-0.0053,0.1125,0.0188,0.0690,-0.0193,-2.9178,1.3631,3.0167
2024-10-11T13:35:35.661Z,0.0144,-0.9778,0.1971,0.1048,-0.0053,0.1125,0.0213,0.0710,-0.0199,-2.9178,1.3631,3.0167
2024-10-11T13:35:35.674Z,0.0144,-0.9778,0.1971,0.0744,0.0026,0.0819,0.0211,0.0756,-0.0187,-2.9158,1.3625,3.0166
2024-10-11T13:35:35.679Z,0.0182,-0.9787,0.1968,0.0744,0.0026,0.0819,0.0206,0.0776,-0.0220,-2.9158,1.3625,3.0166
2024-10-11T13:35:35.691Z,0.0165,-0.9815,0.1987,0.0744,0.0026,0.0819,0.0210,0.0823,-0.0197,-2.9158,1.3625,3.0166
2024-10-11T13:35:35.701Z,0.0165,-0.9815,0.1987,0.0877,0.0516,0.0552,0.0201,0.0851,-0.0226,-2.9134,1.3618,3.0164
2024-10-11T13:35:35.710Z,0.0180,-0.9820,0.2017,0.0877,0.0516,0.0552,0.0210,0.0896,-0.0219,-2.9134,1.3618,3.0164
2024-10-11T13:35:35.721Z,0.0180,-0.9820,0.2017,0.0877,0.0516,0.0552,0.0187,0.0964,-0.0216,-2.9134,1.3618,3.0164
2024-10-11T13:35:35.731Z,0.0167,-0.9813,0.2033,0.0587,0.0592,0.0310,0.0151,0.0989,-0.0214,-2.9110,1.3612,3.0166
2024-10-11T13:35:35.740Z,0.0200,-0.9841,0.2033,0.0587,0.0592,0.0310,0.0151,0.0980,-0.0226,-2.9110,1.3612,3.0166
2024-10-11T13:35:35.750Z,0.0272,-0.9861,0.2037,0.0587,0.0592,0.0310,0.0152,0.0983,-0.0193,-2.9110,1.3612,3.0166
2024-10-11T13:35:35.760Z,0.0316,-0.9876,0.2048,0.0587,0.0592,0.0310,0.0162,0.0977,-0.0145,-2.9110,1.3612,3.0166
2024-10-11T13:35:35.773Z,0.0417,-0.9890,0.2052,-0.1009,0.0950,0.0214,0.0140,0.0922,-0.0152,-2.9089,1.3606,3.0173
2024-10-11T13:35:35.780Z,0.0417,-0.9890,0.2052,-0.1009,0.0950,0.0214,0.0121,0.0880,-0.0146,-2.9089,1.3606,3.0173
2024-10-11T13:35:35.790Z,0.0428,-0.9902,0.2050,-0.1009,0.0950,0.0214,0.0134,0.0800,-0.0131,-2.9089,1.3606,3.0173
2024-10-11T13:35:35.800Z,0.0461,-0.9880,0.2061,-0.1974,0.1213,0.0294,0.0101,0.0759,-0.0164,-2.9072,1.3602,3.0180
2024-10-11T13:35:35.811Z,0.0482,-0.9864,0.2054,-0.1974,0.1213,0.0294,0.0109,0.0704,-0.0155,-2.9072,1.3602,3.0180
2024-10-11T13:35:35.821Z,0.0482,-0.9864,0.2054,-0.2197,0.0821,-0.0010,0.0093,0.0649,-0.0159,-2.9054,1.3598,3.0181
2024-10-11T13:35:35.830Z,0.0505,-0.9847,0.2048,-0.2197,0.0821,-0.0010,0.0078,0.0540,-0.0164,-2.9054,1.3598,3.0181
2024-10-11T13:35:35.839Z,0.0505,-0.9847,0.2048,-0.2197,0.0821,-0.0010,0.0058,0.0461,-0.0157,-2.9054,1.3598,3.0181
2024-10-11T13:35:35.849Z,0.0527,-0.9830,0.2062,-0.2197,0.0821,-0.0010,0.0045,0.0386,-0.0175,-2.9054,1.3598,3.0181
2024-10-11T13:35:35.860Z,0.0532,-0.9829,0.2097,-0.2791,0.0336,-0.0026,0.0016,0.0259,-0.0159,-2.9033,1.3596,3.0173
2024-10-11T13:35:35.870Z,0.0552,-0.9829,0.2093,-0.2791,0.0336,-0.0026,0.0028,0.0165,-0.0169,-2.9033,1.3596,3.0173
2024-10-11T13:35:35.880Z,0.0552,-0.9829,0.2093,-0.3059,0.0602,-0.0043,0.0012,0.0079,-0.0170,-2.9013,1.3594,3.0156
2024-10-11T13:35:35.890Z,0.0576,-0.9839,0.2086,-0.3059,0.0602,-0.0043,0.0007,-0.0019,-0.0146,-2.9013,1.3594,3.0156
2024-10-11T13:35:35.900Z,0.0663,-0.9850,0.2088,-0.3059,0.0602,-0.0043,-0.0023,-0.0054,-0.0160,-2.9013,1.3594,3.0156
2024-10-11T13:35:35.911Z,0.0663,-0.9850,0.2088,-0.3845,0.0718,0.0277,-0.0021,-0.0086,-0.0145,-2.8992,1.3593,3.0132
2024-10-11T13:35:35.920Z,0.0660,-0.9835,0.2016,-0.3845,0.0718,0.0277,-0.0020,-0.0106,-0.0118,-2.8992,1.3593,3.0132
2024-10-11T13:35:35.930Z,0.0617,-0.9829,0.2012,-0.3845,0.0718,0.0277,-0.0035,-0.0103,-0.0075,-2.8992,1.3593,3.0132
2024-10-11T13:35:35.941Z,0.0617,-0.9829,0.2012,-0.3324,0.0485,0.1085,-0.0014,-0.0114,-0.0056,-2.8980,1.3593,3.0114
2024-10-11T13:35:35.949Z,0.0603,-0.9806,0.1975,-0.3324,0.0485,0.1085,-0.0009,-0.0111,-0.0022,-2.8980,1.3593,3.0114
2024-10-11T13:35:35.960Z,0.0571,-0.9795,0.1966,-0.3324,0.0485,0.1085,-0.0043,-0.0081,0.0003,-2.8980,1.3593,3.0114
2024-10-11T13:35:35.970Z,0.0571,-0.9795,0.1966,-0.2970,0.0013,0.1177,-0.0034,-0.0054,0.0021,-2.8978,1.3593,3.0106
2024-10-11T13:35:35.980Z,0.0517,-0.9763,0.1993,-0.2970,0.0013,0.1177,-0.0050,-0.0021,0.0045,-2.8978,1.3593,3.0106
2024-10-11T13:35:35.989Z,0.0517,-0.9763,0.1993,-0.2970,0.0013,0.1177,-0.0034,-0.0009,0.0048,-2.8978,1.3593,3.0106
2024-10-11T13:35:36.000Z,0.0498,-0.9774,0.2000,-0.1788,0.0095,0.0674,-0.0022,0.0029,0.0088,-2.8984,1.3594,3.0109
2024-10-11T13:35:36.010Z,0.0416,-0.9795,0.2025,-0.1788,0.0095,0.0674,-0.0054,0.0030,0.0080,-2.8984,1.3594,3.0109
2024-10-11T13:35:36.020Z,0.0404,-0.9803,0.2014,-0.1788,0.0095,0.0674,-0.0032,0.0060,0.0097,-2.8984,1.3594,3.0109
2024-10-11T13:35:36.030Z,0.0404,-0.9803,0.2014,-0.1444,0.0177,0.0892,-0.0043,0.0059,0.0122,-2.8997,1.3596,3.0121
2024-10-11T13:35:36.039Z,0.0411,-0.9818,0.1977,-0.1444,0.0177,0.0892,-0.0043,0.0059,0.0122,-2.8997,1.3596,3.0121
2024-10-11T13:35:36.049Z,0.0408,-0.9803,0.1977,-0.1444,0.0177,0.0892,-0.0053,0.0119,0.0123,-2.8997,1.3596,3.0121
2024-10-11T13:35:36.060Z,0.0408,-0.9803,0.1977,-0.1390,0.0396,0.0939,-0.0052,0.0132,0.0132,-2.9017,1.3598,3.0141
2024-10-11T13:35:36.070Z,0.0401,-0.9788,0.2001,-0.1390,0.0396,0.0939,-0.0063,0.0129,0.0156,-2.9017,1.3598,3.0141
2024-10-11T13:35:36.080Z,0.0414,-0.9823,0.1985,-0.1390,0.0396,0.0939,-0.0049,0.0144,0.0141,-2.9017,1.3598,3.0141
2024-10-11T13:35:36.090Z,0.0414,-0.9823,0.1985,-0.1390,0.0396,0.0939,-0.0051,0.0163,0.0155,-2.9017,1.3598,3.0141
2024-10-11T13:35:36.100Z,0.0412,-0.9805,0.1966,-0.1441,0.0389,0.1101,-0.0059,0.0124,0.0136,-2.9037,1.3600,3.0162
2024-10-11T13:35:36.110Z,0.0428,-0.9803,0.1954,-0.1441,0.0389,0.1101,-0.0068,0.0148,0.0149,-2.9037,1.3600,3.0162
2024-10-11T13:35:36.120Z,0.0428,-0.9803,0.1954,-0.1837,0.0337,0.1107,-0.0051,0.0144,0.0168,-2.9060,1.3603,3.0186
2024-10-11T13:35:36.130Z,0.0435,-0.9821,0.1945,-0.1837,0.0337,0.1107,-0.0056,0.0130,0.0169,-2.9060,1.3603,3.0186
2024-10-11T13:35:36.139Z,0.0435,-0.9821,0.1945,-0.1837,0.0337,0.1107,-0.0050,0.0133,0.0184,-2.9060,1.3603,3.0186
2024-10-11T13:35:36.149Z,0.0433,-0.9837,0.1934,-0.1521,0.0654,0.1635,-0.0056,0.0134,0.0173,-2.9079,1.3606,3.0206
2024-10-11T13:35:36.160Z,0.0356,-0.9844,0.1908,-0.1521,0.0654,0.1635,-0.0039,0.0113,0.0161,-2.9079,1.3606,3.0206
2024-10-11T13:35:36.170Z,0.0275,-0.9820,0.1917,-0.1521,0.0654,0.1635,-0.0054,0.0152,0.0149,-2.9079,1.3606,3.0206
2024-10-11T13:35:36.180Z,0.0275,-0.9820,0.1917,0.0332,0.0226,0.1260,-0.0043,0.0111,0.0112,-2.9098,1.3607,3.0225
2024-10-11T13:35:36.190Z,0.0214,-0.9803,0.1942,0.0332,0.0226,0.1260,-0.0048,0.0113,0.0122,-2.9098,1.3607,3.0225
2024-10-11T13:35:36.200Z,0.0135,-0.9782,0.2020,0.0332,0.0226,0.1260,-0.0028,0.0126,0.0075,-2.9098,1.3607,3.0225
2024-10-11T13:35:36.210Z,0.0135,-0.9782,0.2020,0.0900,-0.0066,0.0276,-0.0043,0.0101,0.0060,-2.9111,1.3609,3.0239
2024-10-11T13:35:36.220Z,0.0115,-0.9765,0.2050,0.0900,-0.0066,0.0276,-0.0062,0.0098,0.0052,-2.9111,1.3609,3.0239
2024-10-11T13:35:36.230Z,0.0131,-0.9764,0.2084,0.0900,-0.0066,0.0276,-0.0088,0.0123,0.0032,-2.9111,1.3609,3.0239
2024-10-11T13:35:36.240Z,0.0131,-0.9764,0.2084,0.0778,-0.0274,-0.0214,-0.0088,0.0123,0.0032,-2.9115,1.3611,3.0244
2024-10-11T13:35:36.250Z,0.0181,-0.9778,0.2080,0.0778,-0.0274,-0.0214,-0.0105,0.0108,-0.0002,-2.9115,1.3611,3.0244
2024-10-11T13:35:36.260Z,0.0185,-0.9821,0.2065,0.0778,-0.0274,-0.0214,-0.0094,0.0149,0.0004,-2.9115,1.3611,3.0244
2024-10-11T13:35:36.270Z,0.0173,-0.9846,0.2038,0.0683,0.0638,0.0260,-0.0109,0.0146,0.0004,-2.9114,1.3614,3.0245
2024-10-11T13:35:36.279Z,0.0304,-0.9831,0.2049,0.0683,0.0638,0.0260,-0.0123,0.0142,-0.0015,-2.9114,1.3614,3.0245
2024-10-11T13:35:36.290Z,0.0304,-0.9831,0.2049,0.0683,0.0638,0.0260,-0.0116,0.0109,0.0035,-2.9114,1.3614,3.0245
2024-10-11T13:35:36.300Z,0.0435,-0.9845,0.2065,-0.1893,0.0612,-0.0029,-0.0103,0.0105,0.0025,-2.9117,1.3617,3.0249
2024-10-11T13:35:36.309Z,0.0488,-0.9837,0.2084,-0.1893,0.0612,-0.0029,-0.0116,0.0056,0.0046,-2.9117,1.3617,3.0249
2024-10-11T13:35:36.320Z,0.0477,-0.9863,0.2071,-0.1893,0.0612,-0.0029,-0.0121,0.0073,0.0044,-2.9117,1.3617,3.0249
2024-10-11T13:35:36.330Z,0.0477,-0.9863,0.2071,-0.3024,0.0427,-0.0205,-0.0113,0.0033,0.0052,-2.9123,1.3620,3.0254
2024-10-11T13:35:36.340Z,0.0533,-0.9846,0.2107,-0.3024,0.0427,-0.0205,-0.0124,0.0037,0.0050,-2.9123,1.3620,3.0254
2024-10-11T13:35:36.350Z,0.0530,-0.9822,0.2112,-0.3024,0.0427,-0.0205,-0.0134,-0.0000,0.0080,-2.9123,1.3620,3.0254
2024-10-11T13:35:36.360Z,0.0532,-0.9834,0.2124,-0.2881,0.0496,-0.0675,-0.0131,-0.0051,0.0098,-2.9133,1.3624,3.0261
2024-10-11T13:35:36.370Z,0.0510,-0.9808,0.2138,-0.2881,0.0496,-0.0675,-0.0125,-0.0120,0.0106,-2.9133,1.3624,3.0261
2024-10-11T13:35:36.380Z,0.0523,-0.9820,0.2157,-0.2881,0.0496,-0.0675,-0.0142,-0.0153,0.0103,-2.9133,1.3624,3.0261
2024-10-11T13:35:36.392Z,0.0523,-0.9820,0.2157,-0.2226,0.0443,-0.0695,-0.0153,-0.0224,0.0115,-2.9147,1.3628,3.0268
2024-10-11T13:35:36.400Z,0.0435,-0.9814,0.2098,-0.2226,0.0443,-0.0695,-0.0139,-0.0285,0.0094,-2.9147,1.3628,3.0268
2024-10-11T13:35:36.410Z,0.0416,-0.9800,0.2090,-0.2226,0.0443,-0.0695,-0.0164,-0.0349,0.0090,-2.9147,1.3628,3.0268
2024-10-11T13:35:36.420Z,0.0380,-0.9794,0.2084,-0.1416,0.0088,-0.0371,-0.0158,-0.0368,0.0084,-2.9159,1.3633,3.0268
2024-10-11T13:35:36.430Z,0.0379,-0.9792,0.2078,-0.1416,0.0088,-0.0371,-0.0152,-0.0420,0.0089,-2.9159,1.3633,3.0268
2024-10-11T13:35:36.440Z,0.0394,-0.9758,0.2070,-0.1416,0.0088,-0.0371,-0.0150,-0.0448,0.0076,-2.9159,1.3633,3.0268
2024-10-11T13:35:36.450Z,0.0357,-0.9750,0.2052,-0.1179,-0.0355,-0.0099,-0.0151,-0.0455,0.0108,-2.9169,1.3637,3.0262
2024-10-11T13:35:36.460Z,0.0359,-0.9712,0.2059,-0.1179,-0.0355,-0.0099,-0.0158,-0.0463,0.0103,-2.9169,1.3637,3.0262
2024-10-11T13:35:36.470Z,0.0343,-0.9702,0.2029,-0.1179,-0.0355,-0.0099,-0.0157,-0.0476,0.0090,-2.9169,1.3637,3.0262
2024-10-11T13:35:36.480Z,0.0344,-0.9697,0.2024,-0.1046,-0.0888,0.0134,-0.0160,-0.0480,0.0084,-2.9182,1.3642,3.0257
2024-10-11T13:35:36.491Z,0.0352,-0.9676,0.2034,-0.1046,-0.0888,0.0134,-0.0139,-0.0541,0.0140,-2.9182,1.3642,3.0257
2024-10-11T13:35:36.500Z,0.0357,-0.9676,0.2020,-0.1046,-0.0888,0.0134,-0.0144,-0.0545,0.0114,-2.9182,1.3642,3.0257
2024-10-11T13:35:36.510Z,0.0357,-0.9676,0.2020,-0.1221,-0.1144,0.0270,-0.0134,-0.0559,0.0127,-2.9197,1.3647,3.0254
2024-10-11T13:35:36.520Z,0.0365,-0.9694,0.2000,-0.1221,-0.1144,0.0270,-0.0103,-0.0604,0.0131,-2.9197,1.3647,3.0254
2024-10-11T13:35:36.530Z,0.0354,-0.9715,0.2025,-0.1221,-0.1144,0.0270,-0.0093,-0.0670,0.0142,-2.9197,1.3647,3.0254
2024-10-11T13:35:36.541Z,0.0354,-0.9715,0.2025,-0.1010,-0.0629,-0.0089,-0.0071,-0.0676,0.0121,-2.9216,1.3649,3.0250
2024-10-11T13:35:36.550Z,0.0361,-0.9733,0.2031,-0.1010,-0.0629,-0.0089,-0.0030,-0.0726,0.0131,-2.9216,1.3649,3.0250
2024-10-11T13:35:36.560Z,0.0345,-0.9754,0.2027,-0.1010,-0.0629,-0.0089,-0.0038,-0.0792,0.0115,-2.9216,1.3649,3.0250
2024-10-11T13:35:36.570Z,0.0313,-0.9739,0.2043,-0.0725,-0.0496,-0.0148,-0.0039,-0.0846,0.0090,-2.9233,1.3651,3.0241
2024-10-11T13:35:36.580Z,0.0333,-0.9744,0.2029,-0.0725,-0.0496,-0.0148,-0.0031,-0.0855,0.0075,-2.9233,1.3651,3.0241
2024-10-11T13:35:36.590Z,0.0315,-0.9738,0.2032,-0.0725,-0.0496,-0.0148,-0.0022,-0.0890,0.0073,-2.9233,1.3651,3.0241
2024-10-11T13:35:36.600Z,0.0346,-0.9739,0.2032,-0.1017,-0.0495,-0.0043,-0.0013,-0.0926,0.0070,-2.9247,1.3652,3.0225
2024-10-11T13:35:36.610Z,0.0378,-0.9737,0.2034,-0.1017,-0.0495,-0.0043,-0.0027,-0.0950,0.0089,-2.9247,1.3652,3.0225
2024-10-11T13:35:36.620Z,0.0399,-0.9708,0.2031,-0.1017,-0.0495,-0.0043,0.0002,-0.0966,0.0074,-2.9247,1.3652,3.0225
2024-10-11T13:35:36.630Z,0.0384,-0.9713,0.2026,-0.1350,-0.0751,0.0009,0.0014,-0.1006,0.0085,-2.9260,1.3652,3.0206
2024-10-11T13:35:36.641Z,0.0403,-0.9729,0.2037,-0.1350,-0.0751,0.0009,0.0031,-0.1047,0.0091,-2.9260,1.3652,3.0206
2024-10-11T13:35:36.650Z,0.0411,-0.9721,0.2022,-0.1350,-0.0751,0.0009,0.0020,-0.1047,0.0076,-2.9260,1.3652,3.0206
2024-10-11T13:35:36.660Z,0.0411,-0.9721,0.2022,-0.1743,-0.0581,0.0041,0.0022,-0.1083,0.0088,-2.9275,1.3652,3.0188
2024-10-11T13:35:36.670Z,0.0416,-0.9742,0.2057,-0.1743,-0.0581,0.0041,0.0010,-0.1057,0.0077,-2.9275,1.3652,3.0188
2024-10-11T13:35:36.680Z,0.0418,-0.9755,0.2072,-0.1743,-0.0581,0.0041,0.0029,-0.1079,0.0116,-2.9275,1.3652,3.0188
2024-10-11T13:35:36.691Z,0.0418,-0.9755,0.2072,-0.1420,-0.0436,-0.0767,0.0019,-0.1060,0.0119,-2.9293,1.3651,3.0171
2024-10-11T13:35:36.700Z,0.0358,-0.9723,0.2105,-0.1420,-0.0436,-0.0767,0.0033,-0.1029,0.0136,-2.9293,1.3651,3.0171
2024-10-11T13:35:36.710Z,0.0337,-0.9725,0.2113,-0.1420,-0.0436,-0.0767,0.0034,-0.0991,0.0139,-2.9293,1.3651,3.0171
2024-10-11T13:35:36.720Z,0.0296,-0.9722,0.2093,-0.0388,-0.0655,-0.0648,0.0024,-0.0959,0.0165,-2.9314,1.3651,3.0158
2024-10-11T13:35:36.730Z,0.0262,-0.9726,0.2085,-0.0388,-0.0655,-0.0648,-0.0006,-0.0926,0.0154,-2.9314,1.3651,3.0158
2024-10-11T13:35:36.740Z,0.0216,-0.9751,0.2080,-0.0388,-0.0655,-0.0648,0.0016,-0.0889,0.0137,-2.9314,1.3651,3.0158
2024-10-11T13:35:36.750Z,0.0173,-0.9735,0.2039,0.0827,-0.0533,-0.0124,0.0015,-0.0822,0.0154,-2.9337,1.3651,3.0152
2024-10-11T13:35:36.759Z,0.0152,-0.9734,0.2029,0.0827,-0.0533,-0.0124,0.0044,-0.0787,0.0127,-2.9337,1.3651,3.0152
2024-10-11T13:35:36.770Z,0.0103,-0.9747,0.2005,0.0827,-0.0533,-0.0124,0.0030,-0.0730,0.0135,-2.9337,1.3651,3.0152
2024-10-11T13:35:36.780Z,0.0081,-0.9759,0.1995,0.1746,-0.0292,0.0313,0.0083,-0.0655,0.0154,-2.9357,1.3650,3.0147
2024-10-11T13:35:36.790Z,0.0085,-0.9780,0.1987,0.1746,-0.0292,0.0313,0.0052,-0.0591,0.0127,-2.9357,1.3650,3.0147
2024-10-11T13:35:36.800Z,0.0116,-0.9816,0.1996,0.1746,-0.0292,0.0313,0.0060,-0.0521,0.0095,-2.9357,1.3650,3.0147
2024-10-11T13:35:36.809Z,0.0116,-0.9816,0.1996,0.1308,0.0372,0.0187,0.0060,-0.0521,0.0095,-2.9377,1.3648,3.0148
2024-10-11T13:35:36.820Z,0.0128,-0.9821,0.2025,0.1308,0.0372,0.0187,0.0062,-0.0409,0.0110,-2.9377,1.3648,3.0148
2024-10-11T13:35:36.830Z,0.0165,-0.9826,0.2009,0.1308,0.0372,0.0187,0.0093,-0.0326,0.0136,-2.9377,1.3648,3.0148
2024-10-11T13:35:36.841Z,0.0165,-0.9826,0.2009,0.0651,0.0152,0.0141,0.0076,-0.0282,0.0136,-2.9397,1.3646,3.0154
2024-10-11T13:35:36.850Z,0.0222,-0.9806,0.2018,0.0651,0.0152,0.0141,0.0089,-0.0229,0.0151,-2.9397,1.3646,3.0154
2024-10-11T13:35:36.859Z,0.0245,-0.9810,0.2013,0.0651,0.0152,0.0141,0.0088,-0.0159,0.0153,-2.9397,1.3646,3.0154
2024-10-11T13:35:36.870Z,0.0273,-0.9773,0.1998,-0.0185,-0.0145,0.0348,0.0101,-0.0103,0.0159,-2.9425,1.3644,3.0174
2024-10-11T13:35:36.880Z,0.0279,-0.9762,0.2022,-0.0185,-0.0145,0.0348,0.0111,-0.0057,0.0185,-2.9425,1.3644,3.0174
2024-10-11T13:35:36.891Z,0.0275,-0.9766,0.2009,-0.0185,-0.0145,0.0348,0.0096,-0.0039,0.0185,-2.9425,1.3644,3.0174
2024-10-11T13:35:36.901Z,0.0261,-0.9745,0.2019,-0.0117,-0.0416,0.0176,0.0095,0.0005,0.0209,-2.9456,1.3641,3.0200
2024-10-11T13:35:36.909Z,0.0250,-0.9763,0.2029,-0.0117,-0.0416,0.0176,0.0079,0.0043,0.0222,-2.9456,1.3641,3.0200
2024-10-11T13:35:36.920Z,0.0233,-0.9754,0.2016,-0.0117,-0.0416,0.0176,0.0086,0.0053,0.0198,-2.9456,1.3641,3.0200
2024-10-11T13:35:36.930Z,0.0182,-0.9773,0.2030,0.0588,-0.0137,0.0093,0.0099,0.0081,0.0231,-2.9491,1.3639,3.0233
2024-10-11T13:35:36.940Z,0.0134,-0.9765,0.2061,0.0588,-0.0137,0.0093,0.0106,0.0119,0.0211,-2.9491,1.3639,3.0233
2024-10-11T13:35:36.950Z,0.0084,-0.9773,0.2072,0.0588,-0.0137,0.0093,0.0088,0.0142,0.0200,-2.9491,1.3639,3.0233
2024-10-11T13:35:36.960Z,0.0084,-0.9773,0.2072,0.1887,-0.0069,-0.0075,0.0092,0.0175,0.0226,-2.9523,1.3637,3.0266
2024-10-11T13:35:36.970Z,0.0034,-0.9765,0.2037,0.1887,-0.0069,-0.0075,0.0063,0.0200,0.0184,-2.9523,1.3637,3.0266
2024-10-11T13:35:36.980Z,0.0025,-0.9787,0.2018,0.1887,-0.0069,-0.0075,0.0067,0.0247,0.0169,-2.9523,1.3637,3.0266
2024-10-11T13:35:36.991Z,0.0025,-0.9787,0.2018,0.2033,0.0137,0.0528,0.0072,0.0285,0.0166,-2.9553,1.3635,3.0300
2024-10-11T13:35:37.000Z,0.0027,-0.9791,0.1988,0.2033,0.0137,0.0528,0.0060,0.0334,0.0156,-2.9553,1.3635,3.0300
2024-10-11T13:35:37.009Z,0.0046,-0.9783,0.1987,0.2033,0.0137,0.0528,0.0087,0.0363,0.0162,-2.9553,1.3635,3.0300
2024-10-11T13:35:37.020Z,0.0017,-0.9793,0.1994,0.2012,0.0072,0.0525,0.0088,0.0369,0.0144,-2.9580,1.3633,3.0334
2024-10-11T13:35:37.030Z,0.0038,-0.9814,0.2016,0.2012,0.0072,0.0525,0.0050,0.0384,0.0126,-2.9580,1.3633,3.0334
2024-10-11T13:35:37.040Z,0.0049,-0.9820,0.2016,0.2012,0.0072,0.0525,0.0047,0.0361,0.0120,-2.9580,1.3633,3.0334
2024-10-11T13:35:37.050Z,0.0073,-0.9840,0.2041,0.1403,0.0534,0.0093,0.0060,0.0395,0.0114,-2.9603,1.3632,3.0365
2024-10-11T13:35:37.060Z,0.0097,-0.9847,0.2064,0.1403,0.0534,0.0093,0.0066,0.0394,0.0093,-2.9603,1.3632,3.0365
2024-10-11T13:35:37.070Z,0.0061,-0.9837,0.2056,0.1403,0.0534,0.0093,0.0026,0.0378,0.0100,-2.9603,1.3632,3.0365
2024-10-11T13:35:37.080Z,0.0048,-0.9846,0.2066,0.1595,0.0603,-0.0143,0.0044,0.0383,0.0071,-2.9621,1.3631,3.0392
2024-10-11T13:35:37.091Z,0.0032,-0.9841,0.2062,0.1595,0.0603,-0.0143,0.0007,0.0378,0.0032,-2.9621,1.3631,3.0392
2024-10-11T13:35:37.100Z,0.0010,-0.9819,0.2065,0.1595,0.0603,-0.0143,0.0020,0.0364,0.0051,-2.9621,1.3631,3.0392
2024-10-11T13:35:37.110Z,0.0010,-0.9819,0.2065,0.1787,0.0366,0.0036,-0.0000,0.0342,-0.0003,-2.9637,1.3631,3.0415
2024-10-11T13:35:37.120Z,0.0048,-0.9816,0.2023,0.1787,0.0366,0.0036,0.0010,0.0346,0.0015,-2.9637,1.3631,3.0415
2024-10-11T13:35:37.130Z,0.0057,-0.9812,0.2005,0.1787,0.0366,0.0036,0.0002,0.0332,-0.0008,-2.9637,1.3631,3.0415
2024-10-11T13:35:37.140Z,0.0071,-0.9819,0.1999,0.1297,0.0328,0.0517,-0.0024,0.0311,-0.0033,-2.9644,1.3631,3.0431
2024-10-11T13:35:37.150Z,0.0054,-0.9829,0.2020,0.1297,0.0328,0.0517,-0.0021,0.0232,-0.0047,-2.9644,1.3631,3.0431
2024-10-11T13:35:37.159Z,0.0070,-0.9843,0.2024,0.1297,0.0328,0.0517,-0.0039,0.0208,-0.0063,-2.9644,1.3631,3.0431
2024-10-11T13:35:37.170Z,0.0108,-0.9847,0.2016,0.0912,0.0609,0.0356,-0.0036,0.0179,-0.0071,-2.9649,1.3631,3.0440
2024-10-11T13:35:37.180Z,0.0155,-0.9870,0.2015,0.0912,0.0609,0.0356,-0.0034,0.0154,-0.0084,-2.9649,1.3631,3.0440
2024-10-11T13:35:37.190Z,0.0234,-0.9874,0.2031,0.0912,0.0609,0.0356,-0.0057,0.0122,-0.0117,-2.9649,1.3631,3.0440
2024-10-11T13:35:37.200Z,0.0252,-0.9885,0.2024,-0.0487,0.0978,0.0268,-0.0063,0.0097,-0.0104,-2.9638,1.3632,3.0431
2024-10-11T13:35:37.210Z,0.0272,-0.9874,0.2018,-0.0487,0.0978,0.0268,-0.0063,0.0044,-0.0094,-2.9638,1.3632,3.0431
2024-10-11T13:35:37.220Z,0.0305,-0.9868,0.2012,-0.0487,0.0978,0.0268,-0.0048,0.0001,-0.0098,-2.9638,1.3632,3.0431
2024-10-11T13:35:37.230Z,0.0339,-0.9847,0.2016,-0.1301,0.0602,0.0337,-0.0043,-0.0041,-0.0130,-2.9623,1.3633,3.0414
2024-10-11T13:35:37.240Z,0.0359,-0.9839,0.2017,-0.1301,0.0602,0.0337,-0.0028,-0.0056,-0.0103,-2.9623,1.3633,3.0414
2024-10-11T13:35:37.250Z,0.0396,-0.9834,0.2003,-0.1301,0.0602,0.0337,-0.0044,-0.0080,-0.0097,-2.9623,1.3633,3.0414
2024-10-11T13:35:37.260Z,0.0452,-0.9812,0.1996,-0.2380,0.0257,0.0524,-0.0043,-0.0097,-0.0097,-2.9611,1.3633,3.0397
2024-10-11T13:35:37.270Z,0.0464,-0.9791,0.2010,-0.2380,0.0257,0.0524,-0.0052,-0.0122,-0.0115,-2.9611,1.3633,3.0397
2024-10-11T13:35:37.280Z,0.0436,-0.9784,0.2019,-0.2380,0.0257,0.0524,-0.0053,-0.0149,-0.0080,-2.9611,1.3633,3.0397
2024-10-11T13:35:37.290Z,0.0416,-0.9763,0.2043,-0.1993,-0.0219,0.0047,-0.0059,-0.0169,-0.0062,-2.9600,1.3634,3.0380
2024-10-11T13:35:37.300Z,0.0413,-0.9763,0.2062,-0.1993,-0.0219,0.0047,-0.0039,-0.0192,-0.0069,-2.9600,1.3634,3.0380
2024-10-11T13:35:37.310Z,0.0414,-0.9784,0.2073,-0.1993,-0.0219,0.0047,-0.0042,-0.0233,-0.0051,-2.9600,1.3634,3.0380
2024-10-11T13:35:37.320Z,0.0407,-0.9785,0.2069,-0.1872,-0.0014,-0.0216,-0.0068,-0.0239,-0.0065,-2.9590,1.3635,3.0362
2024-10-11T13:35:37.330Z,0.0402,-0.9803,0.2094,-0.1872,-0.0014,-0.0216,-0.0050,-0.0278,-0.0073,-2.9590,1.3635,3.0362
2024-10-11T13:35:37.341Z,0.0402,-0.9805,0.2086,-0.1872,-0.0014,-0.0216,-0.0060,-0.0291,-0.0048,-2.9590,1.3635,3.0362
2024-10-11T13:35:37.350Z,0.0383,-0.9799,0.2082,-0.1597,0.0123,-0.0367,-0.0076,-0.0314,-0.0096,-2.9581,1.3637,3.0341
2024-10-11T13:35:37.360Z,0.0377,-0.9793,0.2057,-0.1597,0.0123,-0.0367,-0.0069,-0.0330,-0.0068,-2.9581,1.3637,3.0341
2024-10-11T13:35:37.370Z,0.0407,-0.9794,0.2051,-0.1597,0.0123,-0.0367,-0.0070,-0.0338,-0.0071,-2.9581,1.3637,3.0341
2024-10-11T13:35:37.380Z,0.0426,-0.9788,0.2029,-0.1958,0.0014,0.0135,-0.0061,-0.0345,-0.0071,-2.9567,1.3638,3.0314
2024-10-11T13:35:37.390Z,0.0420,-0.9792,0.1992,-0.1958,0.0014,0.0135,-0.0044,-0.0360,-0.0051,-2.9567,1.3638,3.0314
2024-10-11T13:35:37.400Z,0.0396,-0.9767,0.1990,-0.1958,0.0014,0.0135,-0.0045,-0.0334,-0.0041,-2.9567,1.3638,3.0314
2024-10-11T13:35:37.409Z,0.0396,-0.9767,0.1990,-0.1420,-0.0163,0.0468,-0.0075,-0.0339,-0.0029,-2.9554,1.3639,3.0289
2024-10-11T13:35:37.420Z,0.0350,-0.9767,0.1995,-0.1420,-0.0163,0.0468,-0.0065,-0.0332,-0.0039,-2.9554,1.3639,3.0289
2024-10-11T13:35:37.430Z,0.0359,-0.9782,0.1996,-0.1420,-0.0163,0.0468,-0.0041,-0.0313,-0.0041,-2.9554,1.3639,3.0289
2024-10-11T13:35:37.441Z,0.0346,-0.9795,0.2020,-0.1091,0.0083,0.0191,-0.0030,-0.0289,-0.0066,-2.9546,1.3640,3.0268
2024-10-11T13:35:37.449Z,0.0338,-0.9788,0.2020,-0.1091,0.0083,0.0191,-0.0043,-0.0322,-0.0029,-2.9546,1.3640,3.0268
2024-10-11T13:35:37.460Z,0.0355,-0.9798,0.2038,-0.1091,0.0083,0.0191,-0.0046,-0.0300,-0.0036,-2.9546,1.3640,3.0268
2024-10-11T13:35:37.470Z,0.0320,-0.9787,0.2041,-0.0787,-0.0002,-0.0019,-0.0043,-0.0329,-0.0057,-2.9536,1.3641,3.0246
2024-10-11T13:35:37.480Z,0.0343,-0.9780,0.2040,-0.0787,-0.0002,-0.0019,-0.0039,-0.0336,-0.0074,-2.9536,1.3641,3.0246
2024-10-11T13:35:37.490Z,0.0341,-0.9755,0.2020,-0.0787,-0.0002,-0.0019,-0.0048,-0.0350,-0.0062,-2.9536,1.3641,3.0246
2024-10-11T13:35:37.500Z,0.0331,-0.9737,0.1991,-0.0844,-0.0495,0.0455,-0.0036,-0.0366,-0.0089,-2.9521,1.3641,3.0218
2024-10-11T13:35:37.510Z,0.0318,-0.9747,0.1977,-0.0844,-0.0495,0.0455,-0.0041,-0.0346,-0.0078,-2.9521,1.3641,3.0218
2024-10-11T13:35:37.520Z,0.0302,-0.9750,0.1987,-0.0844,-0.0495,0.0455,-0.0025,-0.0341,-0.0096,-2.9521,1.3641,3.0218
2024-10-11T13:35:37.530Z,0.0292,-0.9710,0.1981,-0.0412,-0.0761,0.0543,-0.0027,-0.0337,-0.0071,-2.9507,1.3642,3.0192
2024-10-11T13:35:37.541Z,0.0306,-0.9686,0.1993,-0.0412,-0.0761,0.0543,-0.0022,-0.0301,-0.0089,-2.9507,1.3642,3.0192
2024-10-11T13:35:37.550Z,0.0286,-0.9710,0.2000,-0.0412,-0.0761,0.0543,0.0022,-0.0274,-0.0098,-2.9507,1.3642,3.0192
2024-10-11T13:35:37.560Z,0.0323,-0.9730,0.2023,-0.0662,-0.0565,0.0126,-0.0029,-0.0259,-0.0085,-2.9492,1.3641,3.0167
2024-10-11T13:35:37.570Z,0.0351,-0.9734,0.2034,-0.0662,-0.0565,0.0126,-0.0031,-0.0240,-0.0050,-2.9492,1.3641,3.0167
2024-10-11T13:35:37.580Z,0.0371,-0.9750,0.2033,-0.0662,-0.0565,0.0126,-0.0014,-0.0241,-0.0055,-2.9492,1.3641,3.0167
2024-10-11T13:35:37.591Z,0.0406,-0.9744,0.2030,-0.1438,-0.0427,0.0050,-0.0022,-0.0211,-0.0021,-2.9482,1.3642,3.0147
2024-10-11T13:35:37.600Z,0.0415,-0.9760,0.2024,-0.1438,-0.0427,0.0050,-0.0016,-0.0214,-0.0037,-2.9482,1.3642,3.0147
2024-10-11T13:35:37.609Z,0.0392,-0.9771,0.2022,-0.1438,-0.0427,0.0050,-0.0009,-0.0188,0.0002,-2.9482,1.3642,3.0147
2024-10-11T13:35:37.620Z,0.0404,-0.9762,0.2014,-0.1397,-0.0250,0.0199,-0.0022,-0.0155,0.0007,-2.9482,1.3642,3.0139
2024-10-11T13:35:37.630Z,0.0410,-0.9754,0.2010,-0.1397,-0.0250,0.0199,-0.0037,-0.0135,0.0029,-2.9482,1.3642,3.0139
2024-10-11T13:35:37.640Z,0.0401,-0.9761,0.2027,-0.1397,-0.0250,0.0199,-0.0004,-0.0092,0.0051,-2.9482,1.3642,3.0139
2024-10-11T13:35:37.650Z,0.0371,-0.9778,0.2009,-0.1083,-0.0089,0.0240,0.0004,-0.0082,0.0055,-2.9489,1.3643,3.0140
2024-10-11T13:35:37.660Z,0.0338,-0.9764,0.2042,-0.1083,-0.0089,0.0240,-0.0035,-0.0062,0.0056,-2.9489,1.3643,3.0140
2024-10-11T13:35:37.670Z,0.0321,-0.9777,0.2048,-0.1083,-0.0089,0.0240,-0.0024,-0.0028,0.0085,-2.9489,1.3643,3.0140
2024-10-11T13:35:37.680Z,0.0305,-0.9786,0.2058,-0.0445,-0.0019,-0.0243,-0.0041,-0.0019,0.0093,-2.9500,1.3644,3.0147
2024-10-11T13:35:37.691Z,0.0291,-0.9828,0.2060,-0.0445,-0.0019,-0.0243,-0.0023,0.0003,0.0086,-2.9500,1.3644,3.0147
2024-10-11T13:35:37.700Z,0.0291,-0.9834,0.2039,-0.0445,-0.0019,-0.0243,-0.0040,0.0004,0.0084,-2.9500,1.3644,3.0147
2024-10-11T13:35:37.710Z,0.0278,-0.9852,0.2039,-0.0199,0.0626,-0.0068,-0.0047,-0.0002,0.0073,-2.9512,1.3645,3.0155
2024-10-11T13:35:37.720Z,0.0254,-0.9867,0.2032,-0.0199,0.0626,-0.0068,-0.0064,0.0012,0.0108,-2.9512,1.3645,3.0155
2024-10-11T13:35:37.730Z,0.0266,-0.9852,0.2024,-0.0199,0.0626,-0.0068,-0.0055,-0.0004,0.0089,-2.9512,1.3645,3.0155
2024-10-11T13:35:37.740Z,0.0257,-0.9859,0.2006,-0.0018,0.0694,0.0236,-0.0066,0.0006,0.0100,-2.9525,1.3647,3.0166
2024-10-11T13:35:37.749Z,0.0267,-0.9862,0.2018,-0.0018,0.0694,0.0236,-0.0065,-0.0014,0.0072,-2.9525,1.3647,3.0166
2024-10-11T13:35:37.760Z,0.0263,-0.9867,0.2020,-0.0018,0.0694,0.0236,-0.0039,-0.0012,0.0054,-2.9525,1.3647,3.0166
2024-10-11T13:35:37.770Z,0.0272,-0.9872,0.2031,-0.0184,0.0815,-0.0022,-0.0054,-0.0011,0.0078,-2.9538,1.3649,3.0175
2024-10-11T13:35:37.781Z,0.0281,-0.9874,0.2052,-0.0184,0.0815,-0.0022,-0.0075,-0.0039,0.0050,-2.9538,1.3649,3.0175
2024-10-11T13:35:37.792Z,0.0291,-0.9860,0.2075,-0.0184,0.0815,-0.0022,-0.0098,-0.0012,0.0058,-2.9538,1.3649,3.0175
2024-10-11T13:35:37.800Z,0.0288,-0.9848,0.2060,-0.0359,0.0577,-0.0326,-0.0132,-0.0034,0.0046,-2.9546,1.3651,3.0181
2024-10-11T13:35:37.810Z,0.0288,-0.9870,0.2079,-0.0359,0.0577,-0.0326,-0.0101,-0.0035,0.0049,-2.9546,1.3651,3.0181
2024-10-11T13:35:37.820Z,0.0286,-0.9877,0.2095,-0.0359,0.0577,-0.0326,-0.0123,-0.0028,0.0063,-2.9546,1.3651,3.0181
2024-10-11T13:35:37.830Z,0.0250,-0.9859,0.2094,0.0006,0.0679,-0.0695,-0.0139,-0.0058,0.0034,-2.9552,1.3655,3.0183
2024-10-11T13:35:37.841Z,0.0216,-0.9867,0.2103,0.0006,0.0679,-0.0695,-0.0154,-0.0083,-0.0003,-2.9552,1.3655,3.0183
2024-10-11T13:35:37.850Z,0.0183,-0.9857,0.2078,0.0006,0.0679,-0.0695,-0.0148,-0.0103,0.0007,-2.9552,1.3655,3.0183
2024-10-11T13:35:37.860Z,0.0193,-0.9846,0.2074,0.0572,0.0538,-0.0544,-0.0185,-0.0121,-0.0005,-2.9554,1.3659,3.0179
2024-10-11T13:35:37.870Z,0.0183,-0.9836,0.2051,0.0572,0.0538,-0.0544,-0.0178,-0.0119,0.0017,-2.9554,1.3659,3.0179
2024-10-11T13:35:37.880Z,0.0174,-0.9798,0.2023,0.0572,0.0538,-0.0544,-0.0156,-0.0117,-0.0033,-2.9554,1.3659,3.0179
2024-10-11T13:35:37.891Z,0.0175,-0.9789,0.1998,0.0762,-0.0032,0.0162,-0.0189,-0.0087,-0.0046,-2.9549,1.3664,3.0169
2024-10-11T13:35:37.900Z,0.0187,-0.9799,0.1987,0.0762,-0.0032,0.0162,-0.0180,-0.0075,-0.0043,-2.9549,1.3664,3.0169
2024-10-11T13:35:37.909Z,0.0188,-0.9763,0.1972,0.0762,-0.0032,0.0162,-0.0168,-0.0077,-0.0043,-2.9549,1.3664,3.0169
2024-10-11T13:35:37.920Z,0.0191,-0.9747,0.1960,0.0620,-0.0453,0.0479,-0.0186,-0.0068,-0.0064,-2.9541,1.3669,3.0157
2024-10-11T13:35:37.930Z,0.0184,-0.9740,0.1955,0.0620,-0.0453,0.0479,-0.0157,-0.0043,-0.0039,-2.9541,1.3669,3.0157
2024-10-11T13:35:37.941Z,0.0186,-0.9752,0.1958,0.0620,-0.0453,0.0479,-0.0195,-0.0003,-0.0065,-2.9541,1.3669,3.0157
2024-10-11T13:35:37.950Z,0.0132,-0.9748,0.1959,0.1214,-0.0452,0.0446,-0.0162,0.0003,-0.0070,-2.9533,1.3673,3.0145
2024-10-11T13:35:37.960Z,0.0114,-0.9780,0.1942,0.1214,-0.0452,0.0446,-0.0167,0.0018,-0.0093,-2.9533,1.3673,3.0145
2024-10-11T13:35:37.970Z,0.0102,-0.9769,0.1940,0.1214,-0.0452,0.0446,-0.0138,0.0056,-0.0098,-2.9533,1.3673,3.0145
2024-10-11T13:35:37.980Z,0.0076,-0.9761,0.1922,0.1793,-0.0325,0.0765,-0.0126,0.0083,-0.0115,-2.9519,1.3677,3.0130
2024-10-11T13:35:37.991Z,0.0100,-0.9774,0.1943,0.1793,-0.0325,0.0765,-0.0128,0.0099,-0.0133,-2.9519,1.3677,3.0130
2024-10-11T13:35:38.001Z,0.0096,-0.9758,0.1942,0.1793,-0.0325,0.0765,-0.0114,0.0068,-0.0137,-2.9519,1.3677,3.0130
2024-10-11T13:35:38.010Z,0.0101,-0.9746,0.1959,0.1572,-0.0480,0.0375,-0.0110,0.0107,-0.0140,-2.9501,1.3680,3.0113
2024-10-11T13:35:38.020Z,0.0108,-0.9745,0.1968,0.1572,-0.0480,0.0375,-0.0095,0.0094,-0.0151,-2.9501,1.3680,3.0113
2024-10-11T13:35:38.030Z,0.0106,-0.9733,0.1987,0.1572,-0.0480,0.0375,-0.0078,0.0099,-0.0204,-2.9501,1.3680,3.0113
2024-10-11T13:35:38.040Z,0.0110,-0.9710,0.1994,0.1524,-0.0835,0.0008,-0.0089,0.0106,-0.0182,-2.9478,1.3682,3.0091
2024-10-11T13:35:38.050Z,0.0082,-0.9718,0.1979,0.1524,-0.0835,0.0008,-0.0076,0.0122,-0.0213,-2.9478,1.3682,3.0091
2024-10-11T13:35:38.060Z,0.0135,-0.9708,0.1980,0.1524,-0.0835,0.0008,-0.0055,0.0132,-0.0212,-2.9478,1.3682,3.0091
2024-10-11T13:35:38.070Z,0.0173,-0.9706,0.1961,0.0960,-0.0876,0.0309,-0.0061,0.0158,-0.0221,-2.9451,1.3683,3.0066
2024-10-11T13:35:38.079Z,0.0177,-0.9700,0.1934,0.0960,-0.0876,0.0309,-0.0042,0.0171,-0.0239,-2.9451,1.3683,3.0066
2024-10-11T13:35:38.090Z,0.0214,-0.9722,0.1916,0.0960,-0.0876,0.0309,-0.0037,0.0185,-0.0241,-2.9451,1.3683,3.0066
2024-10-11T13:35:38.100Z,0.0207,-0.9723,0.1914,0.0673,-0.0714,0.0765,-0.0004,0.0225,-0.0248,-2.9422,1.3683,3.0041
2024-10-11T13:35:38.110Z,0.0210,-0.9717,0.1919,0.0673,-0.0714,0.0765,0.0025,0.0256,-0.0242,-2.9422,1.3683,3.0041
2024-10-11T13:35:38.120Z,0.0219,-0.9715,0.1908,0.0673,-0.0714,0.0765,0.0037,0.0251,-0.0220,-2.9422,1.3683,3.0041
2024-10-11T13:35:38.130Z,0.0223,-0.9705,0.1922,0.0564,-0.0890,0.0699,0.0031,0.0301,-0.0203,-2.9392,1.3681,3.0017
2024-10-11T13:35:38.140Z,0.0254,-0.9691,0.1943,0.0564,-0.0890,0.0699,0.0053,0.0316,-0.0203,-2.9392,1.3681,3.0017
2024-10-11T13:35:38.149Z,0.0296,-0.9699,0.1949,0.0564,-0.0890,0.0699,0.0066,0.0364,-0.0191,-2.9392,1.3681,3.0017
2024-10-11T13:35:38.160Z,0.0336,-0.9718,0.1956,-0.0505,-0.0752,0.0390,0.0037,0.0419,-0.0166,-2.9367,1.3679,3.0001
2024-10-11T13:35:38.170Z,0.0365,-0.9717,0.1966,-0.0505,-0.0752,0.0390,0.0050,0.0488,-0.0140,-2.9367,1.3679,3.0001
2024-10-11T13:35:38.180Z,0.0383,-0.9697,0.1962,-0.0505,-0.0752,0.0390,0.0062,0.0521,-0.0132,-2.9367,1.3679,3.0001
2024-10-11T13:35:38.190Z,0.0401,-0.9710,0.1961,-0.1132,-0.0824,0.0365,0.0082,0.0562,-0.0104,-2.9351,1.3676,2.9998
2024-10-11T13:35:38.200Z,0.0429,-0.9729,0.1950,-0.1132,-0.0824,0.0365,0.0100,0.0636,-0.0072,-2.9351,1.3676,2.9998
2024-10-11T13:35:38.209Z,0.0432,-0.9759,0.1945,-0.1132,-0.0824,0.0365,0.0115,0.0670,-0.0051,-2.9351,1.3676,2.9998
2024-10-11T13:35:38.221Z,0.0393,-0.9758,0.1943,-0.1076,-0.0349,0.0573,0.0111,0.0732,-0.0013,-2.9347,1.3672,3.0012
2024-10-11T13:35:38.229Z,0.0353,-0.9770,0.1949,-0.1076,-0.0349,0.0573,0.0094,0.0752,-0.0029,-2.9347,1.3672,3.0012
2024-10-11T13:35:38.240Z,0.0351,-0.9774,0.1974,-0.1076,-0.0349,0.0573,0.0112,0.0789,0.0012,-2.9347,1.3672,3.0012
2024-10-11T13:35:38.249Z,0.0354,-0.9786,0.1969,-0.0739,-0.0067,0.0357,0.0121,0.0804,0.0002,-2.9348,1.3669,3.0033
2024-10-11T13:35:38.259Z,0.0325,-0.9777,0.1987,-0.0739,-0.0067,0.0357,0.0107,0.0835,0.0020,-2.9348,1.3669,3.0033
2024-10-11T13:35:38.270Z,0.0312,-0.9771,0.2012,-0.0739,-0.0067,0.0357,0.0127,0.0872,0.0012,-2.9348,1.3669,3.0033
2024-10-11T13:35:38.280Z,0.0299,-0.9773,0.2020,-0.0245,-0.0188,-0.0094,0.0109,0.0858,0.0006,-2.9352,1.3665,3.0060
2024-10-11T13:35:38.290Z,0.0296,-0.9792,0.2021,-0.0245,-0.0188,-0.0094,0.0086,0.0877,0.0027,-2.9352,1.3665,3.0060
2024-10-11T13:35:38.300Z,0.0325,-0.9789,0.1998,-0.0245,-0.0188,-0.0094,0.0105,0.0881,0.0053,-2.9352,1.3665,3.0060
2024-10-11T13:35:38.309Z,0.0337,-0.9790,0.1992,-0.0679,-0.0016,0.0223,0.0105,0.0906,0.0060,-2.9361,1.3661,3.0093
2024-10-11T13:35:38.320Z,0.0317,-0.9779,0.1989,-0.0679,-0.0016,0.0223,0.0118,0.0915,0.0047,-2.9361,1.3661,3.0093
2024-10-11T13:35:38.330Z,0.0334,-0.9794,0.1973,-0.0679,-0.0016,0.0223,0.0150,0.0924,0.0043,-2.9361,1.3661,3.0093
2024-10-11T13:35:38.340Z,0.0329,-0.9810,0.1974,-0.0661,0.0188,0.0450,0.0145,0.0927,0.0066,-2.9373,1.3657,3.0129
2024-10-11T13:35:38.350Z,0.0306,-0.9819,0.1976,-0.0661,0.0188,0.0450,0.0152,0.0947,0.0067,-2.9373,1.3657,3.0129
2024-10-11T13:35:38.359Z,0.0313,-0.9837,0.1981,-0.0661,0.0188,0.0450,0.0124,0.0924,0.0069,-2.9373,1.3657,3.0129
2024-10-11T13:35:38.370Z,0.0325,-0.9835,0.1997,-0.0697,0.0448,0.0269,0.0117,0.0966,0.0069,-2.9388,1.3654,3.0170
2024-10-11T13:35:38.380Z,0.0320,-0.9829,0.2000,-0.0697,0.0448,0.0269,0.0124,0.0993,0.0064,-2.9388,1.3654,3.0170
2024-10-11T13:35:38.390Z,0.0310,-0.9809,0.2005,-0.0697,0.0448,0.0269,0.0124,0.0986,0.0061,-2.9388,1.3654,3.0170
2024-10-11T13:35:38.400Z,0.0320,-0.9806,0.2010,-0.0734,0.0167,0.0185,0.0094,0.1002,0.0082,-2.9402,1.3650,3.0211
2024-10-11T13:35:38.409Z,0.0305,-0.9808,0.2021,-0.0734,0.0167,0.0185,0.0090,0.1010,0.0079,-2.9402,1.3650,3.0211
2024-10-11T13:35:38.420Z,0.0305,-0.9815,0.2012,-0.0734,0.0167,0.0185,0.0113,0.1006,0.0081,-2.9402,1.3650,3.0211
2024-10-11T13:35:38.430Z,0.0314,-0.9804,0.2010,-0.0752,0.0154,0.0216,0.0088,0.0985,0.0071,-2.9418,1.3648,3.0254
2024-10-11T13:35:38.441Z,0.0279,-0.9798,0.1990,-0.0752,0.0154,0.0216,0.0094,0.0999,0.0079,-2.9418,1.3648,3.0254
2024-10-11T13:35:38.450Z,0.0282,-0.9807,0.1985,-0.0752,0.0154,0.0216,0.0130,0.1023,0.0052,-2.9418,1.3648,3.0254
2024-10-11T13:35:38.459Z,0.0293,-0.9817,0.1973,-0.0624,0.0281,0.0618,0.0094,0.1000,0.0061,-2.9432,1.3645,3.0295
2024-10-11T13:35:38.470Z,0.0277,-0.9812,0.1979,-0.0624,0.0281,0.0618,0.0099,0.0997,0.0076,-2.9432,1.3645,3.0295
2024-10-11T13:35:38.480Z,0.0282,-0.9823,0.1964,-0.0624,0.0281,0.0618,0.0106,0.0967,0.0042,-2.9432,1.3645,3.0295
2024-10-11T13:35:38.490Z,0.0263,-0.9837,0.1978,-0.0401,0.0491,0.0599,0.0083,0.0951,0.0041,-2.9442,1.3642,3.0332
2024-10-11T13:35:38.500Z,0.0272,-0.9833,0.1971,-0.0401,0.0491,0.0599,0.0052,0.0946,0.0041,-2.9442,1.3642,3.0332
2024-10-11T13:35:38.509Z,0.0303,-0.9829,0.1993,-0.0401,0.0491,0.0599,0.0076,0.0916,0.0035,-2.9442,1.3642,3.0332
2024-10-11T13:35:38.520Z,0.0326,-0.9809,0.1981,-0.1084,0.0211,0.0600,0.0059,0.0926,0.0026,-2.9451,1.3640,3.0366
2024-10-11T13:35:38.530Z,0.0337,-0.9804,0.1998,-0.1084,0.0211,0.0600,0.0065,0.0881,0.0066,-2.9451,1.3640,3.0366
2024-10-11T13:35:38.540Z,0.0356,-0.9802,0.1999,-0.1084,0.0211,0.0600,0.0057,0.0868,0.0080,-2.9451,1.3640,3.0366
2024-10-11T13:35:38.550Z,0.0346,-0.9802,0.1990,-0.1352,0.0150,0.0532,0.0060,0.0862,0.0034,-2.9460,1.3639,3.0399
2024-10-11T13:35:38.559Z,0.0338,-0.9804,0.1954,-0.1352,0.0150,0.0532,0.0054,0.0842,0.0065,-2.9460,1.3639,3.0399
2024-10-11T13:35:38.570Z,0.0314,-0.9793,0.1951,-0.1352,0.0150,0.0532,0.0066,0.0804,0.0049,-2.9460,1.3639,3.0399
2024-10-11T13:35:38.580Z,0.0317,-0.9774,0.1963,-0.1122,-0.0125,0.0822,0.0064,0.0811,0.0041,-2.9470,1.3637,3.0430
2024-10-11T13:35:38.590Z,0.0327,-0.9795,0.1947,-0.1122,-0.0125,0.0822,0.0081,0.0805,0.0029,-2.9470,1.3637,3.0430
2024-10-11T13:35:38.600Z,0.0340,-0.9802,0.1946,-0.1122,-0.0125,0.0822,0.0072,0.0775,0.0057,-2.9470,1.3637,3.0430
2024-10-11T13:35:38.610Z,0.0331,-0.9812,0.1968,-0.1323,0.0256,0.0801,0.0089,0.0764,0.0053,-2.9480,1.3634,3.0461
2024-10-11T13:35:38.620Z,0.0290,-0.9803,0.1985,-0.1323,0.0256,0.0801,0.0084,0.0760,0.0042,-2.9480,1.3634,3.0461
2024-10-11T13:35:38.630Z,0.0285,-0.9813,0.1989,-0.1323,0.0256,0.0801,0.0066,0.0687,0.0034,-2.9480,1.3634,3.0461
2024-10-11T13:35:38.640Z,0.0280,-0.9797,0.1990,-0.0866,0.0114,0.0616,0.0074,0.0667,0.0024,-2.9486,1.3632,3.0485
2024-10-11T13:35:38.650Z,0.0270,-0.9802,0.2017,-0.0866,0.0114,0.0616,0.0056,0.0640,-0.0003,-2.9486,1.3632,3.0485
2024-10-11T13:35:38.659Z,0.0275,-0.9794,0.2039,-0.0866,0.0114,0.0616,0.0059,0.0603,0.0015,-2.9486,1.3632,3.0485
2024-10-11T13:35:38.670Z,0.0256,-0.9813,0.2041,-0.0672,0.0275,0.0135,0.0099,0.0584,-0.0025,-2.9489,1.3630,3.0504
2024-10-11T13:35:38.680Z,0.0242,-0.9823,0.2035,-0.0672,0.0275,0.0135,0.0049,0.0552,-0.0025,-2.9489,1.3630,3.0504
2024-10-11T13:35:38.690Z,0.0263,-0.9831,0.2046,-0.0672,0.0275,0.0135,0.0041,0.0506,-0.0034,-2.9489,1.3630,3.0504
2024-10-11T13:35:38.700Z,0.0277,-0.9826,0.2037,-0.0899,0.0406,0.0190,0.0051,0.0459,-0.0019,-2.9487,1.3628,3.0516
2024-10-11T13:35:38.710Z,0.0270,-0.9827,0.2042,-0.0899,0.0406,0.0190,0.0044,0.0440,-0.0045,-2.9487,1.3628,3.0516
2024-10-11T13:35:38.720Z,0.0266,-0.9824,0.2036,-0.0899,0.0406,0.0190,0.0040,0.0386,-0.0050,-2.9487,1.3628,3.0516
2024-10-11T13:35:38.730Z,0.0246,-0.9821,0.2038,-0.0599,0.0363,0.0203,0.0022,0.0367,-0.0064,-2.9483,1.3626,3.0521
2024-10-11T13:35:38.740Z,0.0233,-0.9825,0.2046,-0.0599,0.0363,0.0203,0.0023,0.0332,-0.0065,-2.9483,1.3626,3.0521
2024-10-11T13:35:38.750Z,0.0239,-0.9828,0.2039,-0.0599,0.0363,0.0203,0.0043,0.0306,-0.0110,-2.9483,1.3626,3.0521
2024-10-11T13:35:38.760Z,0.0216,-0.9817,0.2024,-0.0292,0.0325,0.0350,0.0019,0.0256,-0.0111,-2.9469,1.3625,3.0514
2024-10-11T13:35:38.770Z,0.0236,-0.9812,0.2031,-0.0292,0.0325,0.0350,0.0035,0.0254,-0.0127,-2.9469,1.3625,3.0514
2024-10-11T13:35:38.780Z,0.0233,-0.9794,0.2026,-0.0292,0.0325,0.0350,0.0043,0.0220,-0.0129,-2.9469,1.3625,3.0514
2024-10-11T13:35:38.790Z,0.0200,-0.9771,0.2041,-0.0089,-0.0118,0.0199,0.0029,0.0180,-0.0169,-2.9441,1.3623,3.0490
2024-10-11T13:35:38.800Z,0.0240,-0.9801,0.2043,-0.0089,-0.0118,0.0199,0.0022,0.0160,-0.0188,-2.9441,1.3623,3.0490
2024-10-11T13:35:38.810Z,0.0233,-0.9798,0.2045,-0.0089,-0.0118,0.0199,0.0057,0.0153,-0.0165,-2.9441,1.3623,3.0490
2024-10-11T13:35:38.820Z,0.0275,-0.9788,0.2025,-0.0763,0.0048,0.0363,0.0039,0.0138,-0.0154,-2.9412,1.3622,3.0464
2024-10-11T13:35:38.830Z,0.0271,-0.9800,0.2015,-0.0763,0.0048,0.0363,0.0058,0.0069,-0.0149,-2.9412,1.3622,3.0464
2024-10-11T13:35:38.840Z,0.0312,-0.9796,0.2023,-0.0763,0.0048,0.0363,0.0075,0.0088,-0.0172,-2.9412,1.3622,3.0464
2024-10-11T13:35:38.850Z,0.0325,-0.9809,0.2013,-0.1206,0.0259,0.0486,0.0070,0.0056,-0.0155,-2.9388,1.3620,3.0440
2024-10-11T13:35:38.860Z,0.0315,-0.9799,0.2012,-0.1206,0.0259,0.0486,0.0044,0.0071,-0.0159,-2.9388,1.3620,3.0440
2024-10-11T13:35:38.870Z,0.0321,-0.9806,0.2033,-0.1206,0.0259,0.0486,0.0042,0.0072,-0.0182,-2.9388,1.3620,3.0440
2024-10-11T13:35:38.881Z,0.0277,-0.9815,0.2027,-0.0690,0.0322,0.0362,0.0047,0.0072,-0.0156,-2.9365,1.3618,3.0418
2024-10-11T13:35:38.890Z,0.0277,-0.9793,0.2031,-0.0690,0.0322,0.0362,0.0023,0.0050,-0.0181,-2.9365,1.3618,3.0418
2024-10-11T13:35:38.900Z,0.0263,-0.9787,0.2052,-0.0690,0.0322,0.0362,0.0043,0.0022,-0.0182,-2.9365,1.3618,3.0418
2024-10-11T13:35:38.910Z,0.0261,-0.9794,0.2050,-0.0481,0.0117,0.0146,0.0017,-0.0004,-0.0179,-2.9340,1.3617,3.0391
2024-10-11T13:35:38.920Z,0.0257,-0.9773,0.2049,-0.0481,0.0117,0.0146,0.0057,-0.0009,-0.0208,-2.9340,1.3617,3.0391
2024-10-11T13:35:38.930Z,0.0241,-0.9776,0.2040,-0.0481,0.0117,0.0146,0.0024,-0.0021,-0.0197,-2.9340,1.3617,3.0391
2024-10-11T13:35:38.940Z,0.0276,-0.9779,0.2027,-0.0564,-0.0028,0.0387,0.0021,-0.0012,-0.0211,-2.9310,1.3615,3.0360
2024-10-11T13:35:38.950Z,0.0284,-0.9761,0.2030,-0.0564,-0.0028,0.0387,0.0046,0.0013,-0.0226,-2.9310,1.3615,3.0360
2024-10-11T13:35:38.960Z,0.0285,-0.9770,0.2060,-0.0564,-0.0028,0.0387,0.0032,-0.0007,-0.0233,-2.9310,1.3615,3.0360
2024-10-11T13:35:38.970Z,0.0306,-0.9777,0.2053,-0.0780,-0.0047,0.0138,0.0042,-0.0011,-0.0227,-2.9276,1.3613,3.0323
2024-10-11T13:35:38.980Z,0.0314,-0.9795,0.2053,-0.0780,-0.0047,0.0138,0.0020,0.0014,-0.0201,-2.9276,1.3613,3.0323
2024-10-11T13:35:38.990Z,0.0348,-0.9782,0.2063,-0.0780,-0.0047,0.0138,0.0035,0.0005,-0.0210,-2.9276,1.3613,3.0323
2024-10-11T13:35:39.000Z,0.0352,-0.9807,0.2049,-0.1167,0.0253,0.0192,0.0016,0.0026,-0.0197,-2.9248,1.3611,3.0294
2024-10-11T13:35:39.010Z,0.0361,-0.9794,0.2036,-0.1167,0.0253,0.0192,0.0030,0.0025,-0.0170,-2.9248,1.3611,3.0294
2024-10-11T13:35:39.020Z,0.0351,-0.9794,0.2058,-0.1167,0.0253,0.0192,0.0045,0.0026,-0.0184,-2.9248,1.3611,3.0294
2024-10-11T13:35:39.030Z,0.0338,-0.9791,0.2051,-0.0983,0.0102,0.0174,0.0027,0.0043,-0.0156,-2.9226,1.3610,3.0271
2024-10-11T13:35:39.040Z,0.0321,-0.9780,0.2061,-0.0983,0.0102,0.0174,-0.0014,0.0081,-0.0169,-2.9226,1.3610,3.0271
2024-10-11T13:35:39.050Z,0.0338,-0.9781,0.2058,-0.0983,0.0102,0.0174,0.0014,0.0065,-0.0165,-2.9226,1.3610,3.0271
2024-10-11T13:35:39.060Z,0.0346,-0.9789,0.2063,-0.1014,0.0086,0.0063,0.0037,0.0081,-0.0164,-2.9204,1.3609,3.0249
2024-10-11T13:35:39.070Z,0.0363,-0.9803,0.2052,-0.1014,0.0086,0.0063,0.0018,0.0112,-0.0131,-2.9204,1.3609,3.0249
2024-10-11T13:35:39.080Z,0.0372,-0.9792,0.2055,-0.1014,0.0086,0.0063,0.0008,0.0152,-0.0116,-2.9204,1.3609,3.0249
2024-10-11T13:35:39.090Z,0.0406,-0.9798,0.2063,-0.1566,0.0177,0.0069,0.0003,0.0184,-0.0105,-2.9185,1.3608,3.0232
2024-10-11T13:35:39.100Z,0.0418,-0.9784,0.2058,-0.1566,0.0177,0.0069,0.0003,0.0217,-0.0082,-2.9185,1.3608,3.0232
2024-10-11T13:35:39.111Z,0.0415,-0.9821,0.2067,-0.1566,0.0177,0.0069,-0.0018,0.0229,-0.0081,-2.9185,1.3608,3.0232
2024-10-11T13:35:39.120Z,0.0412,-0.9816,0.2083,-0.1612,0.0349,-0.0136,-0.0001,0.0241,-0.0063,-2.9175,1.3608,3.0226
2024-10-11T13:35:39.130Z,0.0395,-0.9822,0.2079,-0.1612,0.0349,-0.0136,-0.0006,0.0266,-0.0048,-2.9175,1.3608,3.0226
2024-10-11T13:35:39.140Z,0.0399,-0.9812,0.2052,-0.1612,0.0349,-0.0136,-0.0035,0.0293,-0.0019,-2.9175,1.3608,3.0226
2024-10-11T13:35:39.150Z,0.0385,-0.9798,0.2065,-0.1347,0.0168,0.0039,-0.0041,0.0274,-0.0001,-2.9170,1.3608,3.0226
2024-10-11T13:35:39.160Z,0.0361,-0.9783,0.2045,-0.1347,0.0168,0.0039,-0.0018,0.0301,-0.0015,-2.9170,1.3608,3.0226
2024-10-11T13:35:39.170Z,0.0353,-0.9770,0.2054,-0.1347,0.0168,0.0039,-0.0044,0.0291,-0.0015,-2.9170,1.3608,3.0226
2024-10-11T13:35:39.179Z,0.0343,-0.9762,0.2044,-0.0936,-0.0181,0.0247,-0.0012,0.0297,0.0008,-2.9164,1.3609,3.0227
2024-10-11T13:35:39.190Z,0.0328,-0.9760,0.2045,-0.0936,-0.0181,0.0247,-0.0029,0.0312,0.0010,-2.9164,1.3609,3.0227
2024-10-11T13:35:39.200Z,0.0333,-0.9766,0.2057,-0.0936,-0.0181,0.0247,-0.0056,0.0273,0.0030,-2.9164,1.3609,3.0227
2024-10-11T13:35:39.210Z,0.0340,-0.9776,0.2057,-0.0916,-0.0044,0.0109,-0.0047,0.0277,0.0013,-2.9161,1.3609,3.0229
2024-10-11T13:35:39.220Z,0.0322,-0.9786,0.2081,-0.0916,-0.0044,0.0109,-0.0028,0.0291,0.0028,-2.9161,1.3609,3.0229
2024-10-11T13:35:39.229Z,0.0322,-0.9792,0.2073,-0.0916,-0.0044,0.0109,-0.0049,0.0240,0.0043,-2.9161,1.3609,3.0229
2024-10-11T13:35:39.240Z,0.0306,-0.9789,0.2078,-0.0597,0.0083,-0.0101,-0.0040,0.0239,0.0021,-2.9162,1.3610,3.0235
2024-10-11T13:35:39.250Z,0.0281,-0.9795,0.2067,-0.0597,0.0083,-0.0101,-0.0062,0.0240,0.0010,-2.9162,1.3610,3.0235
2024-10-11T13:35:39.260Z,0.0270,-0.9810,0.2061,-0.0597,0.0083,-0.0101,-0.0068,0.0227,0.0009,-2.9162,1.3610,3.0235
2024-10-11T13:35:39.270Z,0.0273,-0.9816,0.2054,-0.0286,0.0337,0.0120,-0.0052,0.0176,0.0031,-2.9163,1.3612,3.0240
2024-10-11T13:35:39.279Z,0.0285,-0.9824,0.2074,-0.0286,0.0337,0.0120,-0.0066,0.0181,-0.0004,-2.9163,1.3612,3.0240
2024-10-11T13:35:39.290Z,0.0285,-0.9816,0.2048,-0.0286,0.0337,0.0120,-0.0051,0.0146,-0.0004,-2.9163,1.3612,3.0240
2024-10-11T13:35:39.300Z,0.0301,-0.9813,0.2047,-0.0567,0.0308,0.0172,-0.0059,0.0138,-0.0000,-2.9162,1.3614,3.0242
2024-10-11T13:35:39.310Z,0.0285,-0.9804,0.2032,-0.0567,0.0308,0.0172,-0.0068,0.0122,-0.0002,-2.9162,1.3614,3.0242
2024-10-11T13:35:39.320Z,0.0273,-0.9803,0.2039,-0.0567,0.0308,0.0172,-0.0065,0.0120,0.0005,-2.9162,1.3614,3.0242
2024-10-11T13:35:39.331Z,0.0252,-0.9818,0.2023,-0.0078,0.0350,0.0397,-0.0053,0.0111,-0.0026,-2.9159,1.3615,3.0239
2024-10-11T13:35:39.340Z,0.0246,-0.9812,0.2032,-0.0078,0.0350,0.0397,-0.0060,0.0077,-0.0035,-2.9159,1.3615,3.0239
2024-10-11T13:35:39.350Z,0.0261,-0.9805,0.2047,-0.0078,0.0350,0.0397,-0.0053,0.0042,-0.0039,-2.9159,1.3615,3.0239
2024-10-11T13:35:39.360Z,0.0248,-0.9812,0.2037,-0.0023,0.0288,0.0239,-0.0060,0.0035,-0.0044,-2.9152,1.3617,3.0231
2024-10-11T13:35:39.370Z,0.0250,-0.9822,0.2024,-0.0023,0.0288,0.0239,-0.0055,0.0010,-0.0064,-2.9152,1.3617,3.0231
2024-10-11T13:35:39.380Z,0.0241,-0.9807,0.2026,-0.0023,0.0288,0.0239,-0.0061,-0.0015,-0.0041,-2.9152,1.3617,3.0231
2024-10-11T13:35:39.390Z,0.0234,-0.9821,0.2022,0.0138,0.0375,0.0364,-0.0056,0.0001,-0.0071,-2.9139,1.3619,3.0215
2024-10-11T13:35:39.400Z,0.0261,-0.9807,0.2037,0.0138,0.0375,0.0364,-0.0061,-0.0026,-0.0085,-2.9139,1.3619,3.0215
2024-10-11T13:35:39.409Z,0.0247,-0.9783,0.2043,0.0138,0.0375,0.0364,-0.0072,-0.0040,-0.0102,-2.9139,1.3619,3.0215
2024-10-11T13:35:39.420Z,0.0256,-0.9776,0.2047,-0.0046,-0.0067,0.0090,-0.0051,-0.0052,-0.0095,-2.9125,1.3621,3.0198
2024-10-11T13:35:39.429Z,0.0273,-0.9752,0.2031,-0.0046,-0.0067,0.0090,-0.0073,-0.0030,-0.0076,-2.9125,1.3621,3.0198
2024-10-11T13:35:39.440Z,0.0308,-0.9760,0.2026,-0.0046,-0.0067,0.0090,-0.0040,-0.0059,-0.0073,-2.9125,1.3621,3.0198
2024-10-11T13:35:39.450Z,0.0309,-0.9776,0.2014,-0.0531,-0.0075,0.0400,-0.0052,-0.0032,-0.0084,-2.9111,1.3623,3.0181
2024-10-11T13:35:39.460Z,0.0330,-0.9777,0.2011,-0.0531,-0.0075,0.0400,-0.0071,-0.0041,-0.0084,-2.9111,1.3623,3.0181
2024-10-11T13:35:39.470Z,0.0335,-0.9775,0.2014,-0.0531,-0.0075,0.0400,-0.0082,-0.0031,-0.0111,-2.9111,1.3623,3.0181
2024-10-11T13:35:39.479Z,0.0332,-0.9785,0.2025,-0.0727,0.0014,0.0266,-0.0053,-0.0005,-0.0070,-2.9100,1.3624,3.0167
2024-10-11T13:35:39.490Z,0.0339,-0.9806,0.2029,-0.0727,0.0014,0.0266,-0.0066,0.0003,-0.0073,-2.9100,1.3624,3.0167
2024-10-11T13:35:39.500Z,0.0334,-0.9796,0.2008,-0.0727,0.0014,0.0266,-0.0059,0.0034,-0.0053,-2.9100,1.3624,3.0167
2024-10-11T13:35:39.510Z,0.0342,-0.9794,0.1985,-0.0807,0.0095,0.0642,-0.0066,0.0048,-0.0067,-2.9092,1.3626,3.0156
2024-10-11T13:35:39.521Z,0.0335,-0.9807,0.1995,-0.0807,0.0095,0.0642,-0.0059,0.0041,-0.0061,-2.9092,1.3626,3.0156
2024-10-11T13:35:39.530Z,0.0312,-0.9789,0.1985,-0.0807,0.0095,0.0642,-0.0059,0.0041,-0.0061,-2.9092,1.3626,3.0156
2024-10-11T13:35:39.540Z,0.0320,-0.9770,0.1976,-0.0574,-0.0142,0.0724,-0.0036,0.0049,-0.0056,-2.9082,1.3627,3.0146
2024-10-11T13:35:39.551Z,0.0296,-0.9752,0.1964,-0.0574,-0.0142,0.0724,-0.0020,0.0031,-0.0067,-2.9082,1.3627,3.0146
2024-10-11T13:35:39.560Z,0.0286,-0.9733,0.1978,-0.0574,-0.0142,0.0724,-0.0020,0.0031,-0.0067,-2.9082,1.3627,3.0146
2024-10-11T13:35:39.570Z,0.0299,-0.9732,0.1961,-0.0341,-0.0516,0.0858,-0.0035,0.0029,-0.0098,-2.9071,1.3627,3.0133
2024-10-11T13:35:39.580Z,0.0274,-0.9733,0.1971,-0.0341,-0.0516,0.0858,-0.0033,0.0064,-0.0085,-2.9071,1.3627,3.0133
2024-10-11T13:35:39.591Z,0.0281,-0.9750,0.1979,-0.0341,-0.0516,0.0858,-0.0039,0.0027,-0.0078,-2.9071,1.3627,3.0133
2024-10-11T13:35:39.600Z,0.0294,-0.9746,0.1997,-0.0261,-0.0375,0.0491,-0.0039,0.0027,-0.0078,-2.9055,1.3628,3.0116
2024-10-11T13:35:39.610Z,0.0315,-0.9753,0.2015,-0.0261,-0.0375,0.0491,-0.0015,0.0005,-0.0071,-2.9055,1.3628,3.0116
2024-10-11T13:35:39.621Z,0.0325,-0.9748,0.1994,-0.0261,-0.0375,0.0491,-0.0033,0.0002,-0.0059,-2.9055,1.3628,3.0116
2024-10-11T13:35:39.630Z,0.0339,-0.9758,0.1984,-0.0666,-0.0260,0.0612,-0.0033,0.0002,-0.0059,-2.9043,1.3629,3.0101
2024-10-11T13:35:39.640Z,0.0336,-0.9753,0.1984,-0.0666,-0.0260,0.0612,0.0004,-0.0002,-0.0070,-2.9043,1.3629,3.0101
2024-10-11T13:35:39.650Z,0.0329,-0.9764,0.1978,-0.0666,-0.0260,0.0612,0.0036,-0.0005,-0.0055,-2.9043,1.3629,3.0101
2024-10-11T13:35:39.660Z,0.0328,-0.9756,0.1964,-0.0537,-0.0285,0.0798,0.0036,-0.0005,-0.0055,-2.9034,1.3629,3.0089
2024-10-11T13:35:39.671Z,0.0359,-0.9764,0.1974,-0.0537,-0.0285,0.0798,0.0053,0.0012,-0.0045,-2.9034,1.3629,3.0089
2024-10-11T13:35:39.681Z,0.0350,-0.9744,0.1990,-0.0537,-0.0285,0.0798,0.0048,0.0011,-0.0039,-2.9034,1.3629,3.0089
2024-10-11T13:35:39.690Z,0.0346,-0.9747,0.1982,-0.0696,-0.0373,0.0626,0.0025,0.0023,-0.0050,-2.9026,1.3629,3.0079
2024-10-11T13:35:39.700Z,0.0348,-0.9747,0.2002,-0.0696,-0.0373,0.0626,0.0017,0.0039,-0.0048,-2.9026,1.3629,3.0079
2024-10-11T13:35:39.712Z,0.0342,-0.9764,0.2011,-0.0465,0.0006,0.0337,0.0017,0.0039,-0.0048,-2.9018,1.3629,3.0069
2024-10-11T13:35:39.721Z,0.0325,-0.9785,0.2011,-0.0465,0.0006,0.0337,0.0040,0.0069,-0.0021,-2.9018,1.3629,3.0069
2024-10-11T13:35:39.730Z,0.0355,-0.9781,0.2007,-0.0465,0.0006,0.0337,0.0032,0.0089,-0.0020,-2.9018,1.3629,3.0069
2024-10-11T13:35:39.740Z,0.0364,-0.9790,0.2023,-0.0465,0.0006,0.0337,0.0046,0.0071,-0.0008,-2.9018,1.3629,3.0069
2024-10-11T13:35:39.751Z,0.0392,-0.9790,0.2032,-0.1105,0.0055,0.0129,0.0007,0.0110,0.0001,-2.9010,1.3629,3.0061
2024-10-11T13:35:39.761Z,0.0379,-0.9814,0.2017,-0.1105,0.0055,0.0129,0.0007,0.0110,0.0001,-2.9010,1.3629,3.0061
2024-10-11T13:35:39.770Z,0.0383,-0.9816,0.2003,-0.1105,0.0055,0.0129,0.0011,0.0138,0.0038,-2.9010,1.3629,3.0061
2024-10-11T13:35:39.781Z,0.0380,-0.9810,0.2006,-0.0986,0.0251,0.0382,-0.0004,0.0145,0.0031,-2.9004,1.3629,3.0056
2024-10-11T13:35:39.791Z,0.0367,-0.9823,0.2015,-0.0986,0.0251,0.0382,0.0023,0.0147,0.0056,-2.9004,1.3629,3.0056
2024-10-11T13:35:39.801Z,0.0372,-0.9816,0.2024,-0.0986,0.0251,0.0382,0.0004,0.0153,0.0040,-2.9004,1.3629,3.0056
2024-10-11T13:35:39.810Z,0.0358,-0.9793,0.2030,-0.0776,0.0084,0.0151,0.0004,0.0153,0.0040,-2.9008,1.3628,3.0061
2024-10-11T13:35:39.820Z,0.0356,-0.9776,0.2043,-0.0776,0.0084,0.0151,-0.0020,0.0171,0.0061,-2.9008,1.3628,3.0061
2024-10-11T13:35:39.830Z,0.0368,-0.9789,0.2057,-0.0776,0.0084,0.0151,-0.0012,0.0175,0.0076,-2.9008,1.3628,3.0061
2024-10-11T13:35:39.840Z,0.0375,-0.9801,0.2050,-0.0947,0.0160,-0.0040,-0.0001,0.0169,0.0087,-2.9009,1.3628,3.0064
2024-10-11T13:35:39.850Z,0.0374,-0.9798,0.2045,-0.0947,0.0160,-0.0040,-0.0008,0.0182,0.0073,-2.9009,1.3628,3.0064
2024-10-11T13:35:39.863Z,0.0379,-0.9814,0.2048,-0.0939,0.0320,-0.0187,-0.0022,0.0159,0.0068,-2.8998,1.3630,3.0055
2024-10-11T13:35:39.870Z,0.0376,-0.9818,0.2063,-0.0939,0.0320,-0.0187,-0.0026,0.0156,0.0094,-2.8998,1.3630,3.0055
2024-10-11T13:35:39.880Z,0.0375,-0.9831,0.2050,-0.0939,0.0320,-0.0187,-0.0007,0.0167,0.0120,-2.8998,1.3630,3.0055
2024-10-11T13:35:39.890Z,0.0396,-0.9845,0.2029,-0.0939,0.0320,-0.0187,-0.0033,0.0133,0.0107,-2.8998,1.3630,3.0055
2024-10-11T13:35:39.900Z,0.0392,-0.9853,0.2014,-0.1097,0.0663,0.0291,-0.0010,0.0168,0.0141,-2.8997,1.3631,3.0055
2024-10-11T13:35:39.912Z,0.0427,-0.9862,0.2009,-0.1097,0.0663,0.0291,-0.0011,0.0185,0.0151,-2.8997,1.3631,3.0055
2024-10-11T13:35:39.920Z,0.0409,-0.9831,0.1993,-0.1097,0.0663,0.0291,-0.0009,0.0160,0.0159,-2.8997,1.3631,3.0055
2024-10-11T13:35:39.930Z,0.0390,-0.9832,0.1999,-0.1110,0.0456,0.0436,-0.0022,0.0190,0.0154,-2.9009,1.3631,3.0070
2024-10-11T13:35:39.940Z,0.0378,-0.9828,0.2007,-0.1110,0.0456,0.0436,-0.0031,0.0137,0.0194,-2.9009,1.3631,3.0070
2024-10-11T13:35:39.951Z,0.0374,-0.9799,0.1999,-0.1035,0.0125,0.0363,-0.0031,0.0137,0.0194,-2.9026,1.3633,3.0088
2024-10-11T13:35:39.962Z,0.0378,-0.9798,0.2005,-0.1035,0.0125,0.0363,-0.0047,0.0168,0.0194,-2.9026,1.3633,3.0088
2024-10-11T13:35:39.970Z,0.0390,-0.9809,0.2012,-0.1035,0.0125,0.0363,-0.0031,0.0162,0.0191,-2.9026,1.3633,3.0088
2024-10-11T13:35:39.980Z,0.0390,-0.9809,0.2012,-0.1035,0.0125,0.0363,-0.0019,0.0152,0.0217,-2.9026,1.3633,3.0088
2024-10-11T13:35:39.990Z,0.0398,-0.9815,0.2046,-0.1268,0.0187,0.0186,-0.0020,0.0174,0.0201,-2.9041,1.3635,3.0105
2024-10-11T13:35:40.000Z,0.0398,-0.9815,0.2046,-0.1268,0.0187,0.0186,-0.0061,0.0149,0.0213,-2.9041,1.3635,3.0105
2024-10-11T13:35:40.013Z,0.0397,-0.9799,0.2025,-0.1071,0.0153,0.0188,-0.0037,0.0120,0.0239,-2.9056,1.3637,3.0120
2024-10-11T13:35:40.020Z,0.0375,-0.9802,0.2020,-0.1071,0.0153,0.0188,-0.0041,0.0124,0.0239,-2.9056,1.3637,3.0120
2024-10-11T13:35:40.030Z,0.0368,-0.9796,0.1997,-0.1071,0.0153,0.0188,-0.0041,0.0124,0.0239,-2.9056,1.3637,3.0120
2024-10-11T13:35:40.040Z,0.0368,-0.9796,0.1997,-0.1071,0.0153,0.0188,-0.0050,0.0115,0.0227,-2.9056,1.3637,3.0120
2024-10-11T13:35:40.050Z,0.0361,-0.9796,0.2004,-0.0973,0.0093,0.0328,-0.0055,0.0094,0.0224,-2.9073,1.3639,3.0137
2024-10-11T13:35:40.062Z,0.0339,-0.9779,0.1989,-0.0973,0.0093,0.0328,0.0002,0.0024,0.0231,-2.9073,1.3639,3.0137
2024-10-11T13:35:40.070Z,0.0417,-0.9567,0.1810,-0.0973,0.0093,0.0328,-0.0097,0.0104,0.0236,-2.9073,1.3639,3.0137
2024-10-11T13:35:40.080Z,0.0400,-0.9818,0.2006,-0.1406,0.0302,0.0299,-0.0001,-0.0029,0.0226,-2.9100,1.3641,3.0162
2024-10-11T13:35:40.090Z,0.0528,-0.9774,0.2020,-0.1406,0.0302,0.0299,-0.0002,-0.0025,0.0200,-2.9100,1.3641,3.0162
2024-10-11T13:35:40.100Z,0.0528,-0.9774,0.2020,-0.1406,0.0302,0.0299,0.0015,-0.0060,0.0214,-2.9100,1.3641,3.0162
2024-10-11T13:35:40.112Z,0.0091,-0.9804,0.1936,0.1566,0.0164,0.0985,0.0019,-0.0123,0.0180,-2.9132,1.3642,3.0190
2024-10-11T13:35:40.120Z,0.0215,-0.9831,0.1961,0.1566,0.0164,0.0985,0.0012,-0.0086,0.0168,-2.9132,1.3642,3.0190
2024-10-11T13:35:40.131Z,0.0215,-0.9831,0.1961,-0.1168,-0.0588,0.0482,0.0031,-0.0214,0.0188,-2.9160,1.3642,3.0211
2024-10-11T13:35:40.140Z,0.0366,-0.9727,0.1988,-0.1168,-0.0588,0.0482,0.0046,-0.0133,0.0181,-2.9160,1.3642,3.0211
2024-10-11T13:35:40.150Z,0.0202,-0.9773,0.1953,-0.1168,-0.0588,0.0482,0.0068,-0.0239,0.0151,-2.9160,1.3642,3.0211
2024-10-11T13:35:40.162Z,0.0202,-0.9773,0.1953,-0.1258,-0.0165,0.0692,0.0074,-0.0253,0.0137,-2.9186,1.3640,3.0227
2024-10-11T13:35:40.170Z,0.0219,-0.9701,0.1933,-0.1258,-0.0165,0.0692,0.0103,-0.0327,0.0141,-2.9186,1.3640,3.0227
2024-10-11T13:35:40.180Z,0.0219,-0.9701,0.1933,-0.1258,-0.0165,0.0692,0.0115,-0.0415,0.0107,-2.9186,1.3640,3.0227
2024-10-11T13:35:40.191Z,0.0362,-0.9679,0.1914,-0.0755,-0.1487,0.1338,0.0133,-0.0466,0.0083,-2.9205,1.3637,3.0233
2024-10-11T13:35:40.201Z,0.0423,-0.9721,0.1980,-0.0755,-0.1487,0.1338,0.0117,-0.0546,0.0086,-2.9205,1.3637,3.0233
2024-10-11T13:35:40.212Z,0.0423,-0.9721,0.1980,-0.0755,-0.1487,0.1338,0.0114,-0.0701,0.0049,-2.9205,1.3637,3.0233
2024-10-11T13:35:40.221Z,0.0529,-0.9760,0.2047,-0.3074,-0.0691,-0.0182,0.0129,-0.0860,0.0079,-2.9221,1.3634,3.0225
2024-10-11T13:35:40.230Z,0.0713,-0.9607,0.1975,-0.3074,-0.0691,-0.0182,0.0129,-0.0860,0.0079,-2.9221,1.3634,3.0225
2024-10-11T13:35:40.240Z,0.0575,-0.9767,0.2037,-0.3074,-0.0691,-0.0182,0.0137,-0.1042,0.0045,-2.9221,1.3634,3.0225
2024-10-11T13:35:40.251Z,0.0575,-0.9767,0.2037,-0.1821,0.0678,0.0234,0.0119,-0.1078,0.0023,-2.9236,1.3630,3.0208
2024-10-11T13:35:40.261Z,0.0573,-0.9909,0.2024,-0.1821,0.0678,0.0234,0.0104,-0.1151,0.0022,-2.9236,1.3630,3.0208
2024-10-11T13:35:40.270Z,0.0510,-0.9977,0.2051,-0.1821,0.0678,0.0234,0.0080,-0.1267,0.0037,-2.9236,1.3630,3.0208
2024-10-11T13:35:40.280Z,0.0510,-0.9977,0.2051,-0.1821,0.0678,0.0234,0.0054,-0.1371,0.0058,-2.9236,1.3630,3.0208
2024-10-11T13:35:40.290Z,0.0583,-1.0053,0.2159,-0.3547,0.2340,-0.0437,0.0050,-0.1448,0.0048,-2.9251,1.3627,3.0183
2024-10-11T13:35:40.301Z,0.0649,-0.9965,0.2169,-0.3547,0.2340,-0.0437,0.0020,-0.1607,0.0040,-2.9251,1.3627,3.0183
2024-10-11T13:35:40.311Z,0.0638,-0.9955,0.2174,-0.3690,0.1681,-0.1212,0.0020,-0.1607,0.0040,-2.9264,1.3625,3.0147
2024-10-11T13:35:40.320Z,0.0613,-0.9889,0.2167,-0.3690,0.1681,-0.1212,0.0018,-0.1813,0.0043,-2.9264,1.3625,3.0147
2024-10-11T13:35:40.330Z,0.0698,-0.9848,0.2148,-0.3690,0.1681,-0.1212,0.0007,-0.1881,0.0049,-2.9264,1.3625,3.0147
2024-10-11T13:35:40.340Z,0.0698,-0.9848,0.2148,-0.4331,0.0144,-0.0290,0.0044,-0.2022,0.0053,-2.9277,1.3624,3.0101
2024-10-11T13:35:40.350Z,0.0865,-0.9810,0.2070,-0.4331,0.0144,-0.0290,0.0028,-0.2157,0.0077,-2.9277,1.3624,3.0101
2024-10-11T13:35:40.360Z,0.0879,-0.9821,0.2047,-0.4331,0.0144,-0.0290,0.0018,-0.2241,0.0100,-2.9277,1.3624,3.0101
2024-10-11T13:35:40.371Z,0.0879,-0.9821,0.2047,-0.5840,-0.0013,0.0152,0.0007,-0.2365,0.0105,-2.9295,1.3624,3.0050
2024-10-11T13:35:40.380Z,0.0883,-0.9765,0.1986,-0.5840,-0.0013,0.0152,0.0007,-0.2365,0.0105,-2.9295,1.3624,3.0050
2024-10-11T13:35:40.390Z,0.0755,-0.9767,0.1974,-0.5840,-0.0013,0.0152,0.0019,-0.2443,0.0125,-2.9295,1.3624,3.0050
2024-10-11T13:35:40.400Z,0.0755,-0.9767,0.1974,-0.5840,-0.0013,0.0152,0.0016,-0.2448,0.0189,-2.9295,1.3624,3.0050
2024-10-11T13:35:40.410Z,0.0648,-0.9735,0.1981,-0.4091,-0.0207,0.0782,0.0017,-0.2435,0.0207,-2.9321,1.3624,3.0000
2024-10-11T13:35:40.420Z,0.0592,-0.9733,0.1991,-0.4091,-0.0207,0.0782,0.0041,-0.2460,0.0235,-2.9321,1.3624,3.0000
2024-10-11T13:35:40.431Z,0.0592,-0.9733,0.1991,-0.2642,-0.0459,0.0430,0.0029,-0.2396,0.0229,-2.9356,1.3624,2.9958
2024-10-11T13:35:40.440Z,0.0503,-0.9711,0.2011,-0.2642,-0.0459,0.0430,0.0033,-0.2428,0.0250,-2.9356,1.3624,2.9958
2024-10-11T13:35:40.450Z,0.0502,-0.9701,0.2046,-0.2642,-0.0459,0.0430,0.0016,-0.2388,0.0258,-2.9356,1.3624,2.9958
2024-10-11T13:35:40.461Z,0.0425,-0.9678,0.2020,-0.1158,-0.1036,0.0252,0.0036,-0.2364,0.0257,-2.9398,1.3624,2.9925
2024-10-11T13:35:40.470Z,0.0387,-0.9697,0.2027,-0.1158,-0.1036,0.0252,0.0060,-0.2339,0.0271,-2.9398,1.3624,2.9925
2024-10-11T13:35:40.480Z,0.0330,-0.9720,0.2055,-0.1158,-0.1036,0.0252,0.0055,-0.2284,0.0304,-2.9398,1.3624,2.9925
2024-10-11T13:35:40.490Z,0.0330,-0.9720,0.2055,0.0959,0.0097,-0.0763,0.0036,-0.2242,0.0287,-2.9445,1.3623,2.9900
2024-10-11T13:35:40.500Z,0.0296,-0.9966,0.2086,0.0959,0.0097,-0.0763,0.0058,-0.2224,0.0292,-2.9445,1.3623,2.9900
2024-10-11T13:35:40.510Z,0.0297,-1.0143,0.2019,0.0959,0.0097,-0.0763,0.0097,-0.2183,0.0264,-2.9445,1.3623,2.9900
2024-10-11T13:35:40.520Z,0.0297,-1.0143,0.2019,0.0660,0.4387,0.0566,0.0100,-0.2177,0.0299,-2.9494,1.3622,2.9880
2024-10-11T13:35:40.530Z,0.0250,-1.0230,0.1989,0.0660,0.4387,0.0566,0.0092,-0.2129,0.0293,-2.9494,1.3622,2.9880
2024-10-11T13:35:40.539Z,0.0237,-1.0134,0.2088,0.0660,0.4387,0.0566,0.0117,-0.2051,0.0296,-2.9494,1.3622,2.9880
2024-10-11T13:35:40.550Z,0.0237,-1.0134,0.2088,0.0443,0.3132,-0.0136,0.0098,-0.2016,0.0298,-2.9543,1.3620,2.9864
2024-10-11T13:35:40.560Z,0.0203,-1.0014,0.2056,0.0443,0.3132,-0.0136,0.0062,-0.1974,0.0298,-2.9543,1.3620,2.9864
2024-10-11T13:35:40.570Z,0.0194,-0.9947,0.2123,0.0443,0.3132,-0.0136,0.0043,-0.1900,0.0294,-2.9543,1.3620,2.9864
2024-10-11T13:35:40.580Z,0.0194,-0.9947,0.2123,0.0885,0.0737,-0.1669,0.0043,-0.1900,0.0294,-2.9593,1.3620,2.9853
2024-10-11T13:35:40.590Z,0.0275,-0.9792,0.2255,0.0885,0.0737,-0.1669,-0.0031,-0.1742,0.0300,-2.9593,1.3620,2.9853
2024-10-11T13:35:40.600Z,0.0237,-0.9726,0.2245,0.0885,0.0737,-0.1669,-0.0056,-0.1680,0.0338,-2.9593,1.3620,2.9853
2024-10-11T13:35:40.611Z,0.0156,-0.9704,0.2133,0.1641,-0.0780,-0.0863,-0.0082,-0.1651,0.0342,-2.9642,1.3623,2.9848
2024-10-11T13:35:40.620Z,0.0116,-0.9753,0.2148,0.1641,-0.0780,-0.0863,-0.0067,-0.1612,0.0322,-2.9642,1.3623,2.9848
2024-10-11T13:35:40.629Z,0.0116,-0.9753,0.2148,0.1641,-0.0780,-0.0863,-0.0057,-0.1574,0.0292,-2.9642,1.3623,2.9848
2024-10-11T13:35:40.640Z,0.0150,-0.9891,0.2071,0.1824,0.0548,-0.0531,-0.0103,-0.1538,0.0303,-2.9690,1.3626,2.9844
2024-10-11T13:35:40.650Z,0.0167,-0.9630,0.2179,0.1824,0.0548,-0.0531,-0.0144,-0.1506,0.0300,-2.9690,1.3626,2.9844
2024-10-11T13:35:40.661Z,0.0205,-0.9516,0.2278,0.1824,0.0548,-0.0531,-0.0176,-0.1439,0.0283,-2.9690,1.3626,2.9844
2024-10-11T13:35:40.670Z,0.0298,-0.9563,0.2149,0.0249,-0.2174,-0.1105,-0.0171,-0.1383,0.0294,-2.9734,1.3631,2.9841
2024-10-11T13:35:40.680Z,0.0298,-0.9563,0.2149,0.0249,-0.2174,-0.1105,-0.0159,-0.1349,0.0314,-2.9734,1.3631,2.9841
2024-10-11T13:35:40.690Z,0.0142,-0.9580,0.2057,0.0249,-0.2174,-0.1105,-0.0178,-0.1316,0.0293,-2.9734,1.3631,2.9841
2024-10-11T13:35:40.700Z,0.0142,-0.9580,0.2057,0.1585,-0.1896,0.0045,-0.0170,-0.1240,0.0298,-2.9779,1.3637,2.9844
2024-10-11T13:35:40.710Z,0.0199,-0.9618,0.1982,0.1585,-0.1896,0.0045,-0.0161,-0.1192,0.0278,-2.9779,1.3637,2.9844
2024-10-11T13:35:40.720Z,0.0220,-0.9615,0.1967,0.1585,-0.1896,0.0045,-0.0145,-0.1153,0.0300,-2.9779,1.3637,2.9844
2024-10-11T13:35:40.730Z,0.0220,-0.9615,0.1967,0.1456,-0.1448,0.0151,-0.0145,-0.1153,0.0300,-2.9823,1.3643,2.9850
2024-10-11T13:35:40.740Z,0.0158,-0.9738,0.2117,0.1456,-0.1448,0.0151,-0.0169,-0.1107,0.0310,-2.9823,1.3643,2.9850
2024-10-11T13:35:40.750Z,0.0195,-0.9806,0.2210,0.1456,-0.1448,0.0151,-0.0172,-0.1061,0.0265,-2.9823,1.3643,2.9850
2024-10-11T13:35:40.760Z,0.0246,-0.9903,0.2064,0.0704,0.1123,-0.0432,-0.0188,-0.1068,0.0289,-2.9864,1.3649,2.9855
2024-10-11T13:35:40.770Z,0.0282,-0.9849,0.2080,0.0704,0.1123,-0.0432,-0.0186,-0.1042,0.0289,-2.9864,1.3649,2.9855
2024-10-11T13:35:40.780Z,0.0281,-0.9759,0.2058,0.0704,0.1123,-0.0432,-0.0161,-0.1028,0.0304,-2.9864,1.3649,2.9855
2024-10-11T13:35:40.790Z,0.0293,-0.9795,0.1977,0.0212,0.0048,0.0364,-0.0174,-0.0997,0.0322,-2.9907,1.3655,2.9864
2024-10-11T13:35:40.800Z,0.0206,-0.9793,0.1966,0.0212,0.0048,0.0364,-0.0147,-0.0973,0.0307,-2.9907,1.3655,2.9864
2024-10-11T13:35:40.810Z,0.0109,-0.9748,0.2088,0.0212,0.0048,0.0364,-0.0139,-0.0997,0.0296,-2.9907,1.3655,2.9864
2024-10-11T13:35:40.820Z,0.0109,-0.9748,0.2088,0.1652,-0.0756,-0.0779,-0.0162,-0.0982,0.0271,-2.9951,1.3660,2.9875
