time,gFx,gFy,gFz,ax,ay,az,wx,wy,wz,yaw,pitch,roll
2024-10-11T14:20:10.922Z,0.0282,-0.9974,0.0865,-0.0183,0.0153,0.0043,0.0048,-0.0073,-0.0009,2.9604,1.4798,2.8478
2024-10-11T14:20:10.929Z,0.0272,-0.9988,0.0867,-0.0183,0.0153,0.0043,-0.0003,-0.0064,-0.0014,2.9604,1.4798,2.8478
2024-10-11T14:20:10.939Z,0.0271,-1.0008,0.0866,-0.0183,0.0153,0.0043,-0.0015,-0.0055,0.0001,2.9604,1.4798,2.8478
2024-10-11T14:20:10.949Z,0.0253,-0.9999,0.0870,-0.0074,0.0483,0.0029,-0.0044,-0.0064,-0.0009,2.9608,1.4799,2.8469
2024-10-11T14:20:10.959Z,0.0249,-0.9996,0.0857,-0.0074,0.0483,0.0029,-0.0055,-0.0050,-0.0020,2.9608,1.4799,2.8469
2024-10-11T14:20:10.969Z,0.0243,-0.9988,0.0809,-0.0074,0.0483,0.0029,-0.0063,-0.0051,-0.0015,2.9608,1.4799,2.8469
2024-10-11T14:20:10.979Z,0.0237,-0.9986,0.0803,0.0205,0.0289,0.0561,-0.0036,-0.0048,-0.0014,2.9610,1.4801,2.8463
2024-10-11T14:20:10.989Z,0.0271,-0.9987,0.0782,0.0205,0.0289,0.0561,-0.0055,-0.0022,0.0006,2.9610,1.4801,2.8463
2024-10-11T14:20:10.999Z,0.0285,-1.0002,0.0734,0.0205,0.0289,0.0561,-0.0043,-0.0002,0.0018,2.9610,1.4801,2.8463
2024-10-11T14:20:11.009Z,0.0331,-1.0009,0.0741,-0.0204,0.0424,0.1273,-0.0023,0.0020,0.0027,2.9616,1.4803,2.8453
2024-10-11T14:20:11.019Z,0.0307,-0.9988,0.0734,-0.0204,0.0424,0.1273,-0.0021,0.0036,0.0033,2.9616,1.4803,2.8453
2024-10-11T14:20:11.028Z,0.0295,-0.9948,0.0747,-0.0204,0.0424,0.1273,-0.0023,0.0044,0.0045,2.9616,1.4803,2.8453
2024-10-11T14:20:11.039Z,0.0285,-0.9945,0.0733,-0.0317,-0.0113,0.1145,-0.0018,0.0038,0.0072,2.9603,1.4804,2.8464
2024-10-11T14:20:11.049Z,0.0250,-0.9966,0.0739,-0.0317,-0.0113,0.1145,0.0003,0.0057,0.0077,2.9603,1.4804,2.8464
2024-10-11T14:20:11.059Z,0.0244,-1.0012,0.0758,-0.0317,-0.0113,0.1145,-0.0037,0.0060,0.0066,2.9603,1.4804,2.8464
2024-10-11T14:20:11.069Z,0.0235,-1.0045,0.0775,0.0159,0.0517,0.1028,-0.0026,0.0057,0.0088,2.9582,1.4806,2.8485
2024-10-11T14:20:11.079Z,0.0219,-1.0054,0.0813,0.0159,0.0517,0.1028,-0.0028,0.0074,0.0054,2.9582,1.4806,2.8485
2024-10-11T14:20:11.090Z,0.0206,-1.0042,0.0829,0.0527,0.0809,0.0314,-0.0035,0.0077,0.0050,2.9574,1.4807,2.8492
2024-10-11T14:20:11.099Z,0.0190,-1.0021,0.0857,0.0527,0.0809,0.0314,-0.0030,0.0054,0.0027,2.9574,1.4807,2.8492
2024-10-11T14:20:11.109Z,0.0153,-1.0009,0.0867,0.0527,0.0809,0.0314,-0.0028,0.0036,0.0035,2.9574,1.4807,2.8492
2024-10-11T14:20:11.120Z,0.0156,-0.9982,0.0897,0.1005,0.0218,-0.0368,-0.0034,0.0011,0.0014,2.9573,1.4809,2.8492
2024-10-11T14:20:11.128Z,0.0174,-0.9974,0.0918,0.1005,0.0218,-0.0368,-0.0051,-0.0009,0.0013,2.9573,1.4809,2.8492
2024-10-11T14:20:11.139Z,0.0169,-0.9984,0.0920,0.1005,0.0218,-0.0368,-0.0081,-0.0006,0.0015,2.9573,1.4809,2.8492
2024-10-11T14:20:11.150Z,0.0178,-1.0013,0.0927,0.0788,0.0521,-0.0687,-0.0087,-0.0048,-0.0013,2.9577,1.4812,2.8484
2024-10-11T14:20:11.159Z,0.0201,-1.0015,0.0900,0.0788,0.0521,-0.0687,-0.0108,-0.0035,0.0009,2.9577,1.4812,2.8484
2024-10-11T14:20:11.169Z,0.0182,-0.9991,0.0892,0.0788,0.0521,-0.0687,-0.0082,-0.0069,0.0002,2.9577,1.4812,2.8484
2024-10-11T14:20:11.180Z,0.0182,-0.9955,0.0919,0.0747,-0.0046,-0.0630,-0.0080,-0.0071,-0.0011,2.9579,1.4814,2.8478
2024-10-11T14:20:11.189Z,0.0205,-0.9948,0.0919,0.0747,-0.0046,-0.0630,-0.0107,-0.0065,-0.0013,2.9579,1.4814,2.8478
2024-10-11T14:20:11.199Z,0.0196,-0.9934,0.0925,0.0747,-0.0046,-0.0630,-0.0102,-0.0064,0.0020,2.9579,1.4814,2.8478
2024-10-11T14:20:11.209Z,0.0206,-0.9930,0.0929,0.0747,-0.0046,-0.0630,-0.0118,-0.0068,-0.0001,2.9579,1.4814,2.8478
2024-10-11T14:20:11.219Z,0.0221,-0.9906,0.0930,0.0515,-0.0302,-0.0764,-0.0123,-0.0085,-0.0012,2.9581,1.4817,2.8471
2024-10-11T14:20:11.229Z,0.0228,-0.9908,0.0917,0.0515,-0.0302,-0.0764,-0.0141,-0.0105,0.0007,2.9581,1.4817,2.8471
2024-10-11T14:20:11.240Z,0.0255,-0.9913,0.0922,0.0022,-0.0467,-0.0723,-0.0156,-0.0081,0.0010,2.9576,1.4821,2.8471
2024-10-11T14:20:11.249Z,0.0263,-0.9931,0.0914,0.0022,-0.0467,-0.0723,-0.0159,-0.0074,0.0047,2.9576,1.4821,2.8471
2024-10-11T14:20:11.259Z,0.0245,-0.9953,0.0905,0.0022,-0.0467,-0.0723,-0.0152,-0.0089,0.0038,2.9576,1.4821,2.8471
2024-10-11T14:20:11.270Z,0.0257,-0.9980,0.0935,-0.0021,0.0182,-0.0888,-0.0165,-0.0061,0.0038,2.9560,1.4825,2.8483
2024-10-11T14:20:11.279Z,0.0250,-0.9976,0.0928,-0.0021,0.0182,-0.0888,-0.0171,-0.0043,0.0066,2.9560,1.4825,2.8483
2024-10-11T14:20:11.289Z,0.0223,-0.9947,0.0934,-0.0021,0.0182,-0.0888,-0.0187,-0.0054,0.0066,2.9560,1.4825,2.8483
2024-10-11T14:20:11.300Z,0.0195,-0.9931,0.0920,0.0562,-0.0300,-0.0772,-0.0165,-0.0049,0.0076,2.9538,1.4829,2.8501
2024-10-11T14:20:11.309Z,0.0190,-0.9950,0.0924,0.0562,-0.0300,-0.0772,-0.0174,-0.0034,0.0057,2.9538,1.4829,2.8501
2024-10-11T14:20:11.319Z,0.0199,-0.9965,0.0933,0.0562,-0.0300,-0.0772,-0.0184,-0.0061,0.0062,2.9538,1.4829,2.8501
2024-10-11T14:20:11.330Z,0.0182,-0.9977,0.0919,0.0672,0.0153,-0.0792,-0.0146,-0.0094,0.0065,2.9522,1.4832,2.8511
2024-10-11T14:20:11.339Z,0.0181,-0.9977,0.0930,0.0672,0.0153,-0.0792,-0.0170,-0.0094,0.0036,2.9522,1.4832,2.8511
2024-10-11T14:20:11.349Z,0.0212,-0.9984,0.0915,0.0672,0.0153,-0.0792,-0.0159,-0.0107,0.0075,2.9522,1.4832,2.8511
2024-10-11T14:20:11.360Z,0.0210,-0.9957,0.0883,0.0385,-0.0045,-0.0455,-0.0187,-0.0086,0.0058,2.9507,1.4834,2.8521
2024-10-11T14:20:11.369Z,0.0219,-0.9952,0.0857,0.0385,-0.0045,-0.0455,-0.0161,-0.0078,0.0077,2.9507,1.4834,2.8521
2024-10-11T14:20:11.379Z,0.0247,-0.9947,0.0842,0.0385,-0.0045,-0.0455,-0.0202,-0.0048,0.0110,2.9507,1.4834,2.8521
2024-10-11T14:20:11.390Z,0.0208,-0.9976,0.0813,0.0370,0.0135,0.0208,-0.0198,-0.0036,0.0079,2.9475,1.4838,2.8549
2024-10-11T14:20:11.399Z,0.0181,-0.9992,0.0816,0.0370,0.0135,0.0208,-0.0157,-0.0040,0.0047,2.9475,1.4838,2.8549
2024-10-11T14:20:11.410Z,0.0179,-0.9964,0.0810,0.0370,0.0135,0.0208,-0.0154,-0.0038,0.0071,2.9475,1.4838,2.8549
2024-10-11T14:20:11.419Z,0.0172,-0.9923,0.0804,0.0370,0.0135,0.0208,-0.0148,-0.0035,0.0067,2.9475,1.4838,2.8549
2024-10-11T14:20:11.428Z,0.0165,-0.9908,0.0793,0.0701,-0.0388,0.0255,-0.0116,-0.0036,0.0022,2.9460,1.4842,2.8560
2024-10-11T14:20:11.439Z,0.0174,-0.9909,0.0820,0.0701,-0.0388,0.0255,-0.0140,-0.0031,0.0032,2.9460,1.4842,2.8560
2024-10-11T14:20:11.450Z,0.0192,-0.9934,0.0855,0.0494,-0.0284,-0.0280,-0.0113,-0.0046,0.0042,2.9452,1.4846,2.8564
2024-10-11T14:20:11.459Z,0.0167,-0.9979,0.0827,0.0494,-0.0284,-0.0280,-0.0106,-0.0007,0.0032,2.9452,1.4846,2.8564
2024-10-11T14:20:11.469Z,0.0191,-0.9989,0.0779,0.0494,-0.0284,-0.0280,-0.0071,-0.0009,0.0037,2.9452,1.4846,2.8564
2024-10-11T14:20:11.479Z,0.0267,-0.9923,0.0700,-0.0252,-0.0395,0.1212,-0.0064,0.0004,0.0022,2.9447,1.4849,2.8565
2024-10-11T14:20:11.489Z,0.0184,-0.9988,0.0697,-0.0252,-0.0395,0.1212,-0.0057,0.0015,-0.0004,2.9447,1.4849,2.8565
2024-10-11T14:20:11.499Z,0.0213,-0.9849,0.0628,-0.0252,-0.0395,0.1212,-0.0012,-0.0119,0.0005,2.9447,1.4849,2.8565
2024-10-11T14:20:11.510Z,0.0576,-0.9736,0.0513,-0.3279,-0.2229,0.3043,0.0058,-0.0220,-0.0010,2.9443,1.4849,2.8564
2024-10-11T14:20:11.519Z,0.0423,-0.9745,0.0592,-0.3279,-0.2229,0.3043,0.0044,-0.0198,-0.0021,2.9443,1.4849,2.8564
2024-10-11T14:20:11.528Z,0.0346,-1.0000,0.0737,-0.3279,-0.2229,0.3043,0.0100,-0.0225,-0.0016,2.9443,1.4849,2.8564
2024-10-11T14:20:11.539Z,0.0433,-1.0054,0.0764,-0.1873,0.0891,0.0606,0.0112,-0.0252,0.0001,2.9431,1.4846,2.8567
2024-10-11T14:20:11.549Z,0.0372,-1.0336,0.0742,-0.1873,0.0891,0.0606,0.0099,-0.0235,0.0023,2.9431,1.4846,2.8567
2024-10-11T14:20:11.559Z,0.0354,-1.0221,0.0726,-0.1873,0.0891,0.0606,0.0130,-0.0247,0.0008,2.9431,1.4846,2.8567
2024-10-11T14:20:11.569Z,0.0300,-1.0162,0.0823,-0.0569,0.1953,0.0053,0.0081,-0.0204,0.0014,2.9416,1.4844,2.8572
2024-10-11T14:20:11.578Z,0.0211,-1.0069,0.0959,-0.0569,0.1953,0.0053,0.0082,-0.0219,0.0004,2.9416,1.4844,2.8572
2024-10-11T14:20:11.589Z,0.0244,-1.0098,0.1101,-0.0569,0.1953,0.0053,0.0050,-0.0182,0.0007,2.9416,1.4844,2.8572
2024-10-11T14:20:11.599Z,0.0269,-0.9988,0.1138,-0.0252,0.0245,-0.3035,0.0023,-0.0200,0.0008,2.9415,1.4844,2.8564
2024-10-11T14:20:11.609Z,0.0193,-0.9974,0.1017,-0.0252,0.0245,-0.3035,-0.0048,-0.0143,0.0001,2.9415,1.4844,2.8564
2024-10-11T14:20:11.618Z,0.0210,-0.9903,0.0916,-0.0252,0.0245,-0.3035,-0.0021,-0.0205,0.0020,2.9415,1.4844,2.8564
2024-10-11T14:20:11.629Z,0.0210,-0.9907,0.0974,0.0330,-0.0548,-0.1440,-0.0036,-0.0143,0.0008,2.9420,1.4845,2.8551
2024-10-11T14:20:11.639Z,0.0191,-0.9913,0.1114,0.0330,-0.0548,-0.1440,-0.0068,-0.0142,0.0011,2.9420,1.4845,2.8551
2024-10-11T14:20:11.649Z,0.0248,-0.9914,0.1081,0.0330,-0.0548,-0.1440,-0.0084,-0.0133,0.0006,2.9420,1.4845,2.8551
2024-10-11T14:20:11.661Z,0.0130,-1.0035,0.0980,0.1118,0.0706,-0.1519,-0.0060,-0.0120,-0.0013,2.9425,1.4847,2.8539
2024-10-11T14:20:11.669Z,0.0160,-1.0151,0.0834,0.1118,0.0706,-0.1519,-0.0036,-0.0141,-0.0006,2.9425,1.4847,2.8539
2024-10-11T14:20:11.679Z,0.0153,-1.0082,0.0880,0.1118,0.0706,-0.1519,-0.0078,-0.0105,-0.0019,2.9425,1.4847,2.8539
2024-10-11T14:20:11.689Z,0.0198,-0.9884,0.1005,0.0464,-0.0775,-0.1786,-0.0102,-0.0093,-0.0027,2.9434,1.4848,2.8524
2024-10-11T14:20:11.699Z,0.0287,-0.9861,0.1135,0.0464,-0.0775,-0.1786,-0.0141,-0.0089,-0.0037,2.9434,1.4848,2.8524
2024-10-11T14:20:11.709Z,0.0185,-0.9949,0.1096,0.0464,-0.0775,-0.1786,-0.0128,-0.0079,-0.0056,2.9434,1.4848,2.8524
2024-10-11T14:20:11.719Z,0.0107,-0.9965,0.1019,0.1366,0.0017,-0.1956,-0.0166,-0.0076,-0.0059,2.9455,1.4851,2.8499
2024-10-11T14:20:11.728Z,0.0222,-0.9922,0.0961,0.1366,0.0017,-0.1956,-0.0146,-0.0059,-0.0038,2.9455,1.4851,2.8499
2024-10-11T14:20:11.739Z,0.0276,-0.9932,0.0889,0.1366,0.0017,-0.1956,-0.0143,-0.0024,-0.0038,2.9455,1.4851,2.8499
2024-10-11T14:20:11.749Z,0.0254,-0.9952,0.0777,-0.0069,-0.0114,0.0394,-0.0112,-0.0024,-0.0042,2.9469,1.4854,2.8481
2024-10-11T14:20:11.759Z,0.0175,-0.9934,0.0699,-0.0069,-0.0114,0.0394,-0.0080,-0.0021,-0.0046,2.9469,1.4854,2.8481
2024-10-11T14:20:11.769Z,0.0188,-0.9920,0.0671,-0.0069,-0.0114,0.0394,-0.0064,-0.0018,-0.0034,2.9469,1.4854,2.8481
2024-10-11T14:20:11.779Z,0.0250,-0.9935,0.0754,-0.0025,-0.0280,0.0604,-0.0064,-0.0005,-0.0057,2.9477,1.4854,2.8470
2024-10-11T14:20:11.788Z,0.0203,-0.9978,0.0805,-0.0025,-0.0280,0.0604,-0.0049,0.0011,-0.0032,2.9477,1.4854,2.8470
2024-10-11T14:20:11.799Z,0.0184,-0.9964,0.0735,-0.0025,-0.0280,0.0604,-0.0041,0.0015,-0.0020,2.9477,1.4854,2.8470
2024-10-11T14:20:11.809Z,0.0152,-0.9827,0.0777,0.0943,-0.1336,0.0383,-0.0051,0.0016,-0.0031,2.9481,1.4854,2.8463
2024-10-11T14:20:11.818Z,0.0125,-0.9727,0.0806,0.0943,-0.1336,0.0383,-0.0078,0.0010,-0.0060,2.9481,1.4854,2.8463
2024-10-11T14:20:11.829Z,0.0107,-0.9790,0.0765,0.0943,-0.1336,0.0383,-0.0064,0.0014,-0.0086,2.9481,1.4854,2.8463
2024-10-11T14:20:11.840Z,0.0105,-0.9808,0.0802,0.1432,-0.1524,0.0111,-0.0080,0.0017,-0.0081,2.9513,1.4855,2.8430
2024-10-11T14:20:11.849Z,0.0139,-0.9791,0.0892,0.1432,-0.1524,0.0111,-0.0045,0.0006,-0.0095,2.9513,1.4855,2.8430
2024-10-11T14:20:11.860Z,0.0142,-0.9853,0.0778,0.1432,-0.1524,0.0111,0.0016,0.0020,-0.0107,2.9513,1.4855,2.8430
2024-10-11T14:20:11.869Z,0.0169,-0.9878,0.0669,0.0824,-0.0841,0.1417,0.0001,0.0013,-0.0141,2.9545,1.4855,2.8395
2024-10-11T14:20:11.880Z,0.0132,-0.9869,0.0560,0.0824,-0.0841,0.1417,0.0042,0.0029,-0.0109,2.9545,1.4855,2.8395
2024-10-11T14:20:11.889Z,0.0087,-0.9862,0.0652,0.0824,-0.0841,0.1417,0.0040,0.0035,-0.0112,2.9545,1.4855,2.8395
2024-10-11T14:20:11.899Z,0.0098,-0.9873,0.0863,0.1551,-0.0884,-0.0479,0.0066,0.0039,-0.0114,2.9574,1.4853,2.8365
2024-10-11T14:20:11.909Z,0.0279,-0.9899,0.0907,0.1551,-0.0884,-0.0479,0.0027,0.0099,-0.0103,2.9574,1.4853,2.8365
2024-10-11T14:20:11.918Z,0.0292,-0.9952,0.0790,0.1551,-0.0884,-0.0479,0.0039,0.0125,-0.0084,2.9574,1.4853,2.8365
2024-10-11T14:20:11.929Z,0.0293,-1.0019,0.0762,-0.0343,0.0549,0.0529,0.0038,0.0180,-0.0095,2.9588,1.4851,2.8353
2024-10-11T14:20:11.938Z,0.0241,-1.0002,0.0798,-0.0343,0.0549,0.0529,0.0058,0.0229,-0.0079,2.9588,1.4851,2.8353
2024-10-11T14:20:11.949Z,0.0206,-1.0020,0.0761,-0.0343,0.0549,0.0529,0.0052,0.0258,-0.0069,2.9588,1.4851,2.8353
2024-10-11T14:20:11.960Z,0.0278,-1.0128,0.0713,-0.0190,0.1621,0.1034,0.0077,0.0297,-0.0059,2.9593,1.4849,2.8353
2024-10-11T14:20:11.968Z,0.0306,-1.0233,0.0823,-0.0190,0.1621,0.1034,0.0102,0.0291,-0.0030,2.9593,1.4849,2.8353
2024-10-11T14:20:11.979Z,0.0226,-1.0184,0.0853,-0.0190,0.1621,0.1034,0.0100,0.0323,-0.0046,2.9593,1.4849,2.8353
2024-10-11T14:20:11.989Z,0.0259,-1.0143,0.0949,-0.0008,0.1766,-0.1262,0.0063,0.0348,-0.0032,2.9586,1.4847,2.8367
2024-10-11T14:20:11.999Z,0.0145,-1.0064,0.0988,-0.0008,0.1766,-0.1262,0.0021,0.0349,-0.0016,2.9586,1.4847,2.8367
2024-10-11T14:20:12.009Z,0.0253,-1.0030,0.0990,-0.0008,0.1766,-0.1262,0.0036,0.0375,-0.0001,2.9586,1.4847,2.8367
2024-10-11T14:20:12.018Z,0.0231,-1.0016,0.0932,0.0261,0.0523,-0.1084,0.0016,0.0410,-0.0024,2.9588,1.4846,2.8374
2024-10-11T14:20:12.029Z,0.0189,-1.0070,0.0937,0.0261,0.0523,-0.1084,-0.0020,0.0390,-0.0016,2.9588,1.4846,2.8374
2024-10-11T14:20:12.039Z,0.0139,-1.0099,0.0946,0.0261,0.0523,-0.1084,-0.0036,0.0413,-0.0017,2.9588,1.4846,2.8374
2024-10-11T14:20:12.049Z,0.0154,-1.0158,0.1081,0.1020,0.1911,-0.2561,-0.0041,0.0398,-0.0059,2.9598,1.4847,2.8373
2024-10-11T14:20:12.060Z,0.0095,-1.0166,0.1128,0.1020,0.1911,-0.2561,-0.0090,0.0425,-0.0009,2.9598,1.4847,2.8373
2024-10-11T14:20:12.068Z,0.0142,-1.0063,0.1052,0.1020,0.1911,-0.2561,-0.0066,0.0421,-0.0019,2.9598,1.4847,2.8373
2024-10-11T14:20:12.079Z,0.0151,-0.9815,0.0669,0.1049,-0.1456,0.1478,-0.0008,0.0401,-0.0055,2.9609,1.4848,2.8372
2024-10-11T14:20:12.089Z,0.0236,-0.9794,0.0674,0.1049,-0.1456,0.1478,-0.0004,0.0462,-0.0030,2.9609,1.4848,2.8372
2024-10-11T14:20:12.100Z,-0.0087,-1.0060,0.0998,0.1049,-0.1456,0.1478,-0.0067,0.0614,-0.0046,2.9609,1.4848,2.8372
2024-10-11T14:20:12.111Z,-0.0138,-0.9922,0.1152,0.3880,-0.0403,-0.3269,-0.0108,0.0669,-0.0044,2.9627,1.4849,2.8371
2024-10-11T14:20:12.118Z,-0.0091,-0.9815,0.1027,0.3880,-0.0403,-0.3269,-0.0095,0.0840,-0.0050,2.9627,1.4849,2.8371
2024-10-11T14:20:12.129Z,-0.0249,-0.9764,0.0867,0.3880,-0.0403,-0.3269,-0.0100,0.0975,-0.0046,2.9627,1.4849,2.8371
2024-10-11T14:20:12.139Z,-0.0309,-0.9902,0.0856,0.5538,-0.0602,-0.0377,-0.0099,0.1117,-0.0036,2.9636,1.4850,2.8390
2024-10-11T14:20:12.149Z,-0.0277,-0.9857,0.0756,0.5538,-0.0602,-0.0377,-0.0015,0.1207,-0.0031,2.9636,1.4850,2.8390
2024-10-11T14:20:12.159Z,-0.0107,-0.9894,0.0778,0.5538,-0.0602,-0.0377,-0.0041,0.1281,-0.0041,2.9636,1.4850,2.8390
2024-10-11T14:20:12.169Z,-0.0180,-0.9936,0.0796,0.4246,-0.0268,0.0202,-0.0010,0.1389,-0.0064,2.9653,1.4852,2.8409
2024-10-11T14:20:12.179Z,-0.0146,-1.0002,0.0864,0.4246,-0.0268,0.0202,0.0006,0.1478,-0.0044,2.9653,1.4852,2.8409
2024-10-11T14:20:12.189Z,-0.0110,-1.0055,0.0810,0.4246,-0.0268,0.0202,-0.0023,0.1560,-0.0054,2.9653,1.4852,2.8409
2024-10-11T14:20:12.199Z,-0.0107,-0.9999,0.0849,0.3519,0.0345,-0.0323,-0.0018,0.1585,-0.0069,2.9681,1.4853,2.8425
2024-10-11T14:20:12.210Z,-0.0158,-0.9878,0.0758,0.3519,0.0345,-0.0323,0.0011,0.1632,-0.0093,2.9681,1.4853,2.8425
2024-10-11T14:20:12.219Z,-0.0178,-0.9793,0.0675,0.3519,0.0345,-0.0323,0.0032,0.1707,-0.0101,2.9681,1.4853,2.8425
2024-10-11T14:20:12.229Z,-0.0093,-0.9763,0.0662,0.3371,-0.1966,0.1515,0.0049,0.1755,-0.0109,2.9718,1.4853,2.8437
2024-10-11T14:20:12.239Z,0.0030,-0.9791,0.0673,0.3371,-0.1966,0.1515,0.0071,0.1815,-0.0100,2.9718,1.4853,2.8437
2024-10-11T14:20:12.249Z,0.0054,-0.9834,0.0704,0.3371,-0.1966,0.1515,0.0077,0.1847,-0.0078,2.9718,1.4853,2.8437
2024-10-11T14:20:12.260Z,0.0074,-0.9815,0.0757,0.1720,-0.1459,0.0603,0.0101,0.1921,-0.0079,2.9743,1.4851,2.8465
2024-10-11T14:20:12.269Z,0.0101,-0.9772,0.0800,0.1720,-0.1459,0.0603,0.0106,0.1961,-0.0073,2.9743,1.4851,2.8465
2024-10-11T14:20:12.279Z,0.0091,-0.9816,0.0821,0.1720,-0.1459,0.0603,0.0084,0.2013,-0.0048,2.9743,1.4851,2.8465
2024-10-11T14:20:12.289Z,0.0105,-0.9833,0.0897,0.1383,-0.1273,-0.0739,0.0067,0.2086,-0.0062,2.9756,1.4849,2.8510
2024-10-11T14:20:12.299Z,0.0144,-0.9917,0.1041,0.1383,-0.1273,-0.0739,0.0032,0.2154,-0.0031,2.9756,1.4849,2.8510
2024-10-11T14:20:12.310Z,0.0081,-1.0061,0.1123,0.1383,-0.1273,-0.0739,0.0006,0.2160,-0.0068,2.9756,1.4849,2.8510
2024-10-11T14:20:12.319Z,-0.0005,-1.0142,0.1079,0.2419,0.1752,-0.2508,-0.0002,0.2250,-0.0059,2.9773,1.4849,2.8557
2024-10-11T14:20:12.329Z,0.0015,-1.0114,0.1078,0.2419,0.1752,-0.2508,-0.0011,0.2265,-0.0050,2.9773,1.4849,2.8557
2024-10-11T14:20:12.339Z,0.0110,-1.0049,0.1037,0.2419,0.1752,-0.2508,-0.0049,0.2327,-0.0012,2.9773,1.4849,2.8557
2024-10-11T14:20:12.349Z,0.0065,-1.0070,0.1014,0.1692,0.1052,-0.1876,-0.0065,0.2373,-0.0024,2.9789,1.4851,2.8608
2024-10-11T14:20:12.360Z,0.0026,-1.0094,0.1039,0.1692,0.1052,-0.1876,-0.0101,0.2422,-0.0047,2.9789,1.4851,2.8608
2024-10-11T14:20:12.369Z,0.0006,-1.0092,0.1026,0.1692,0.1052,-0.1876,-0.0111,0.2420,-0.0050,2.9789,1.4851,2.8608
2024-10-11T14:20:12.379Z,0.0072,-1.0078,0.0956,0.1569,0.1119,-0.1333,-0.0100,0.2439,-0.0043,2.9810,1.4855,2.8658
2024-10-11T14:20:12.389Z,0.0052,-1.0132,0.0951,0.1569,0.1119,-0.1333,-0.0093,0.2442,-0.0047,2.9810,1.4855,2.8658
2024-10-11T14:20:12.399Z,0.0018,-1.0174,0.0875,0.1569,0.1119,-0.1333,-0.0116,0.2450,-0.0071,2.9810,1.4855,2.8658
2024-10-11T14:20:12.410Z,0.0050,-1.0166,0.0763,0.1740,0.1986,0.0537,-0.0067,0.2422,-0.0039,2.9837,1.4858,2.8701
2024-10-11T14:20:12.419Z,0.0093,-1.0128,0.0807,0.1740,0.1986,0.0537,-0.0088,0.2393,-0.0091,2.9837,1.4858,2.8701
2024-10-11T14:20:12.429Z,0.0110,-1.0152,0.0917,0.1740,0.1986,0.0537,-0.0110,0.2366,-0.0073,2.9837,1.4858,2.8701
2024-10-11T14:20:12.439Z,0.0187,-1.0214,0.0950,0.0366,0.2450,-0.1323,-0.0127,0.2299,-0.0090,2.9876,1.4861,2.8730
2024-10-11T14:20:12.449Z,0.0256,-1.0125,0.0909,0.0366,0.2450,-0.1323,-0.0111,0.2228,-0.0079,2.9876,1.4861,2.8730
2024-10-11T14:20:12.460Z,0.0283,-1.0112,0.0869,0.0366,0.2450,-0.1323,-0.0164,0.2163,-0.0086,2.9876,1.4861,2.8730
2024-10-11T14:20:12.469Z,0.0360,-1.0099,0.0943,-0.1357,0.1320,-0.1294,-0.0168,0.2065,-0.0095,2.9921,1.4866,2.8747
2024-10-11T14:20:12.479Z,0.0406,-1.0158,0.0883,-0.1357,0.1320,-0.1294,-0.0164,0.1982,-0.0082,2.9921,1.4866,2.8747
2024-10-11T14:20:12.489Z,0.0417,-1.0188,0.0788,-0.1357,0.1320,-0.1294,-0.0173,0.1895,-0.0099,2.9921,1.4866,2.8747
2024-10-11T14:20:12.499Z,0.0409,-1.0186,0.0860,-0.1851,0.2165,-0.0523,-0.0209,0.1830,-0.0107,2.9970,1.4871,2.8751
2024-10-11T14:20:12.510Z,0.0435,-1.0154,0.0883,-0.1851,0.2165,-0.0523,-0.0188,0.1757,-0.0076,2.9970,1.4871,2.8751
2024-10-11T14:20:12.519Z,0.0430,-1.0077,0.0838,-0.1851,0.2165,-0.0523,-0.0196,0.1698,-0.0073,2.9970,1.4871,2.8751
2024-10-11T14:20:12.529Z,0.0362,-0.9968,0.0840,-0.1404,0.0021,-0.0386,-0.0241,0.1653,-0.0093,3.0022,1.4877,2.8748
2024-10-11T14:20:12.539Z,0.0317,-0.9883,0.0849,-0.1404,0.0021,-0.0386,-0.0248,0.1616,-0.0091,3.0022,1.4877,2.8748
2024-10-11T14:20:12.549Z,0.0323,-0.9889,0.0852,-0.1404,0.0021,-0.0386,-0.0232,0.1527,-0.0101,3.0022,1.4877,2.8748
2024-10-11T14:20:12.561Z,0.0416,-0.9937,0.0787,-0.1948,-0.0282,0.0073,-0.0220,0.1480,-0.0086,3.0075,1.4884,2.8738
2024-10-11T14:20:12.569Z,0.0411,-0.9961,0.0704,-0.1948,-0.0282,0.0073,-0.0159,0.1410,-0.0098,3.0075,1.4884,2.8738
2024-10-11T14:20:12.579Z,0.0323,-0.9960,0.0694,-0.1948,-0.0282,0.0073,-0.0138,0.1357,-0.0113,3.0075,1.4884,2.8738
2024-10-11T14:20:12.589Z,0.0259,-0.9974,0.0684,-0.0403,0.0079,0.1039,-0.0104,0.1303,-0.0111,3.0130,1.4887,2.8723
2024-10-11T14:20:12.599Z,0.0266,-0.9948,0.0728,-0.0403,0.0079,0.1039,-0.0080,0.1254,-0.0148,3.0130,1.4887,2.8723
2024-10-11T14:20:12.610Z,0.0370,-0.9921,0.0662,-0.0403,0.0079,0.1039,-0.0050,0.1197,-0.0164,3.0130,1.4887,2.8723
2024-10-11T14:20:12.619Z,0.0400,-0.9912,0.0666,-0.1770,-0.0531,0.1204,-0.0027,0.1188,-0.0160,3.0187,1.4888,2.8699
2024-10-11T14:20:12.629Z,0.0420,-0.9906,0.0802,-0.1770,-0.0531,0.1204,-0.0028,0.1166,-0.0127,3.0187,1.4888,2.8699
2024-10-11T14:20:12.639Z,0.0423,-0.9888,0.0847,-0.1770,-0.0531,0.1204,-0.0050,0.1144,-0.0141,3.0187,1.4888,2.8699
2024-10-11T14:20:12.649Z,0.0471,-0.9885,0.0795,-0.2446,-0.0794,-0.0057,0.0008,0.1109,-0.0133,3.0236,1.4888,2.8682
2024-10-11T14:20:12.660Z,0.0518,-0.9932,0.0747,-0.2446,-0.0794,-0.0057,0.0000,0.1053,-0.0115,3.0236,1.4888,2.8682
2024-10-11T14:20:12.669Z,0.0589,-0.9944,0.0802,-0.2446,-0.0794,-0.0057,0.0012,0.1002,-0.0104,3.0236,1.4888,2.8682
2024-10-11T14:20:12.679Z,0.0653,-0.9912,0.0818,-0.4223,-0.0535,-0.0274,0.0043,0.0951,-0.0110,3.0275,1.4887,2.8671
2024-10-11T14:20:12.689Z,0.0697,-0.9843,0.0816,-0.4223,-0.0535,-0.0274,0.0042,0.0877,-0.0087,3.0275,1.4887,2.8671
2024-10-11T14:20:12.699Z,0.0644,-0.9870,0.0904,-0.4223,-0.0535,-0.0274,0.0041,0.0830,-0.0094,3.0275,1.4887,2.8671
2024-10-11T14:20:12.709Z,0.0643,-0.9919,0.0929,-0.4115,-0.0460,-0.1351,0.0025,0.0763,-0.0086,3.0302,1.4885,2.8665
2024-10-11T14:20:12.719Z,0.0663,-0.9941,0.0939,-0.4115,-0.0460,-0.1351,0.0028,0.0732,-0.0090,3.0302,1.4885,2.8665
2024-10-11T14:20:12.729Z,0.0508,-0.9944,0.0943,-0.4115,-0.0460,-0.1351,0.0004,0.0805,-0.0088,3.0302,1.4885,2.8665
2024-10-11T14:20:12.739Z,0.0320,-0.9928,0.0872,-0.0946,-0.0373,-0.0791,-0.0044,0.0834,-0.0082,3.0333,1.4885,2.8656
2024-10-11T14:20:12.749Z,0.0259,-0.9827,0.0821,-0.0946,-0.0373,-0.0791,-0.0050,0.0877,-0.0072,3.0333,1.4885,2.8656
2024-10-11T14:20:12.760Z,0.0159,-0.9725,0.0824,-0.0946,-0.0373,-0.0791,-0.0057,0.0932,-0.0099,3.0333,1.4885,2.8656
2024-10-11T14:20:12.769Z,0.0003,-0.9726,0.0815,0.2177,-0.2356,-0.0250,-0.0090,0.1026,-0.0123,3.0379,1.4886,2.8636
2024-10-11T14:20:12.779Z,-0.0037,-0.9764,0.0900,0.2177,-0.2356,-0.0250,-0.0122,0.1038,-0.0138,3.0379,1.4886,2.8636
2024-10-11T14:20:12.789Z,-0.0040,-0.9796,0.0937,0.2177,-0.2356,-0.0250,-0.0162,0.1121,-0.0144,3.0379,1.4886,2.8636
2024-10-11T14:20:12.799Z,0.0033,-0.9799,0.0945,0.1902,-0.1646,-0.1565,-0.0141,0.1218,-0.0131,3.0444,1.4889,2.8604
2024-10-11T14:20:12.809Z,0.0128,-0.9851,0.0818,0.1902,-0.1646,-0.1565,-0.0142,0.1233,-0.0160,3.0444,1.4889,2.8604
2024-10-11T14:20:12.819Z,0.0182,-0.9908,0.0709,0.1902,-0.1646,-0.1565,-0.0126,0.1288,-0.0122,3.0444,1.4889,2.8604
2024-10-11T14:20:12.828Z,0.0204,-0.9943,0.0650,0.0246,-0.0232,0.1304,-0.0108,0.1298,-0.0150,3.0509,1.4891,2.8575
2024-10-11T14:20:12.839Z,0.0206,-0.9973,0.0577,0.0246,-0.0232,0.1304,-0.0085,0.1340,-0.0186,3.0509,1.4891,2.8575
2024-10-11T14:20:12.849Z,0.0202,-0.9942,0.0634,0.0246,-0.0232,0.1304,-0.0094,0.1342,-0.0158,3.0509,1.4891,2.8575
2024-10-11T14:20:12.859Z,0.0213,-0.9842,0.0663,0.0171,-0.1221,0.1169,-0.0030,0.1317,-0.0173,3.0578,1.4892,2.8544
2024-10-11T14:20:12.869Z,0.0230,-0.9821,0.0559,0.0171,-0.1221,0.1169,-0.0033,0.1293,-0.0215,3.0578,1.4892,2.8544
2024-10-11T14:20:12.878Z,0.0221,-0.9836,0.0616,0.0171,-0.1221,0.1169,-0.0018,0.1261,-0.0209,3.0578,1.4892,2.8544
2024-10-11T14:20:12.889Z,0.0277,-0.9855,0.0663,-0.0419,-0.1094,0.1171,-0.0002,0.1237,-0.0215,3.0656,1.4890,2.8502
2024-10-11T14:20:12.899Z,0.0270,-0.9895,0.0701,-0.0419,-0.1094,0.1171,-0.0018,0.1220,-0.0230,3.0656,1.4890,2.8502
2024-10-11T14:20:12.909Z,0.0192,-0.9885,0.0726,-0.0419,-0.1094,0.1171,-0.0011,0.1149,-0.0249,3.0656,1.4890,2.8502
2024-10-11T14:20:12.919Z,0.0196,-0.9915,0.0764,0.0426,-0.0507,0.0193,0.0012,0.1122,-0.0292,3.0744,1.4888,2.8446
2024-10-11T14:20:12.928Z,0.0281,-1.0003,0.0753,0.0426,-0.0507,0.0193,0.0036,0.1042,-0.0274,3.0744,1.4888,2.8446
2024-10-11T14:20:12.939Z,0.0383,-1.0002,0.0696,0.0426,-0.0507,0.0193,0.0041,0.0991,-0.0281,3.0744,1.4888,2.8446
2024-10-11T14:20:12.949Z,0.0334,-0.9972,0.0683,-0.0861,0.0059,0.1007,0.0074,0.0944,-0.0297,3.0835,1.4884,2.8382
2024-10-11T14:20:12.959Z,0.0306,-0.9976,0.0696,-0.0861,0.0059,0.1007,0.0066,0.0913,-0.0280,3.0835,1.4884,2.8382
2024-10-11T14:20:12.969Z,0.0331,-0.9981,0.0651,-0.0861,0.0059,0.1007,0.0070,0.0890,-0.0277,3.0835,1.4884,2.8382
2024-10-11T14:20:12.980Z,0.0412,-0.9877,0.0706,-0.1569,-0.0873,0.0803,0.0089,0.0855,-0.0250,3.0920,1.4879,2.8319
2024-10-11T14:20:12.989Z,0.0410,-0.9824,0.0758,-0.1569,-0.0873,0.0803,0.0064,0.0859,-0.0262,3.0920,1.4879,2.8319
2024-10-11T14:20:12.999Z,0.0393,-0.9882,0.0781,-0.1569,-0.0873,0.0803,0.0091,0.0822,-0.0244,3.0920,1.4879,2.8319
2024-10-11T14:20:13.009Z,0.0409,-0.9925,0.0744,-0.1482,-0.0399,0.0456,0.0098,0.0803,-0.0252,3.0996,1.4875,2.8266
2024-10-11T14:20:13.019Z,0.0386,-0.9907,0.0681,-0.1482,-0.0399,0.0456,0.0092,0.0786,-0.0198,3.0996,1.4875,2.8266
2024-10-11T14:20:13.028Z,0.0369,-0.9910,0.0724,-0.1482,-0.0399,0.0456,0.0088,0.0749,-0.0215,3.0996,1.4875,2.8266
2024-10-11T14:20:13.039Z,0.0379,-0.9938,0.0795,-0.1140,-0.0261,-0.0005,0.0088,0.0737,-0.0199,3.1058,1.4870,2.8224
2024-10-11T14:20:13.049Z,0.0443,-0.9969,0.0834,-0.1140,-0.0261,-0.0005,0.0082,0.0715,-0.0176,3.1058,1.4870,2.8224
2024-10-11T14:20:13.059Z,0.0475,-0.9986,0.0817,-0.1140,-0.0261,-0.0005,0.0072,0.0646,-0.0158,3.1058,1.4870,2.8224
2024-10-11T14:20:13.069Z,0.0464,-0.9946,0.0832,-0.1941,-0.0187,-0.0344,0.0040,0.0592,-0.0172,3.1106,1.4867,2.8193
2024-10-11T14:20:13.078Z,0.0395,-1.0003,0.0877,-0.1941,-0.0187,-0.0344,0.0050,0.0575,-0.0165,3.1106,1.4867,2.8193
2024-10-11T14:20:13.089Z,0.0464,-1.0068,0.0881,-0.1941,-0.0187,-0.0344,0.0019,0.0586,-0.0160,3.1106,1.4867,2.8193
2024-10-11T14:20:13.099Z,0.0515,-1.0044,0.0819,-0.2414,0.0780,-0.0200,0.0046,0.0531,-0.0135,3.1146,1.4864,2.8167
2024-10-11T14:20:13.109Z,0.0473,-0.9966,0.0849,-0.2414,0.0780,-0.0200,0.0052,0.0508,-0.0103,3.1146,1.4864,2.8167
2024-10-11T14:20:13.118Z,0.0498,-1.0006,0.0858,-0.2414,0.0780,-0.0200,0.0047,0.0476,-0.0110,3.1146,1.4864,2.8167
2024-10-11T14:20:13.128Z,0.0505,-1.0067,0.0869,-0.2291,0.1003,-0.0676,0.0038,0.0424,-0.0070,3.1178,1.4862,2.8146
2024-10-11T14:20:13.139Z,0.0465,-1.0061,0.0846,-0.2291,0.1003,-0.0676,0.0001,0.0399,-0.0084,3.1178,1.4862,2.8146
2024-10-11T14:20:13.149Z,0.0470,-1.0081,0.0828,-0.2291,0.1003,-0.0676,0.0023,0.0362,-0.0085,3.1178,1.4862,2.8146
2024-10-11T14:20:13.159Z,0.0525,-1.0128,0.0831,-0.2477,0.1612,-0.0297,-0.0000,0.0354,-0.0062,3.1198,1.4861,2.8135
2024-10-11T14:20:13.169Z,0.0473,-1.0104,0.0872,-0.2477,0.1612,-0.0297,-0.0045,0.0327,-0.0061,3.1198,1.4861,2.8135
2024-10-11T14:20:13.179Z,0.0428,-1.0110,0.0831,-0.2477,0.1612,-0.0297,-0.0022,0.0306,-0.0058,3.1198,1.4861,2.8135
2024-10-11T14:20:13.189Z,0.0431,-1.0133,0.0838,-0.1544,0.1654,-0.0358,0.0010,0.0301,-0.0030,3.1215,1.4860,2.8123
2024-10-11T14:20:13.200Z,0.0504,-1.0128,0.0891,-0.1544,0.1654,-0.0358,0.0003,0.0286,-0.0039,3.1215,1.4860,2.8123
2024-10-11T14:20:13.209Z,0.0536,-1.0139,0.0795,-0.1544,0.1654,-0.0358,0.0031,0.0300,-0.0023,3.1215,1.4860,2.8123
2024-10-11T14:20:13.219Z,0.0586,-1.0128,0.0685,-0.3064,0.1607,0.1141,0.0032,0.0266,0.0021,3.1219,1.4860,2.8125
2024-10-11T14:20:13.228Z,0.0590,-1.0112,0.0752,-0.3064,0.1607,0.1141,0.0021,0.0301,0.0026,3.1219,1.4860,2.8125
2024-10-11T14:20:13.239Z,0.0631,-1.0125,0.0895,-0.3064,0.1607,0.1141,0.0021,0.0268,0.0067,3.1219,1.4860,2.8125
2024-10-11T14:20:13.249Z,0.0663,-1.0166,0.0853,-0.3842,0.1979,-0.0492,0.0027,0.0199,0.0097,3.1197,1.4859,2.8152
2024-10-11T14:20:13.260Z,0.0696,-1.0170,0.0841,-0.3842,0.1979,-0.0492,0.0007,0.0112,0.0174,3.1197,1.4859,2.8152
2024-10-11T14:20:13.269Z,0.0668,-1.0104,0.0871,-0.3842,0.1979,-0.0492,0.0007,0.0112,0.0174,3.1197,1.4859,2.8152
2024-10-11T14:20:13.279Z,0.0598,-1.0058,0.0804,-0.3251,0.0920,0.0003,0.0044,0.0099,0.0179,3.1140,1.4860,2.8211
2024-10-11T14:20:13.290Z,0.0513,-1.0049,0.0767,-0.3251,0.0920,0.0003,0.0047,0.0017,0.0179,3.1140,1.4860,2.8211
2024-10-11T14:20:13.299Z,0.0469,-1.0053,0.0764,-0.3251,0.0920,0.0003,0.0047,0.0017,0.0179,3.1140,1.4860,2.8211
2024-10-11T14:20:13.310Z,0.0428,-1.0107,0.0622,-0.1633,0.1405,0.1796,0.0087,-0.0110,0.0194,3.1077,1.4860,2.8271
2024-10-11T14:20:13.320Z,0.0425,-1.0097,0.0637,-0.1633,0.1405,0.1796,0.0074,-0.0131,0.0163,3.1077,1.4860,2.8271
2024-10-11T14:20:13.329Z,0.0387,-1.0056,0.0719,-0.1633,0.1405,0.1796,0.0074,-0.0131,0.0163,3.1077,1.4860,2.8271
2024-10-11T14:20:13.339Z,0.0374,-1.0057,0.0693,-0.1132,0.0912,0.1130,0.0111,-0.0216,0.0154,3.1015,1.4858,2.8325
2024-10-11T14:20:13.350Z,0.0443,-1.0079,0.0634,-0.1132,0.0912,0.1130,0.0119,-0.0272,0.0182,3.1015,1.4858,2.8325
2024-10-11T14:20:13.359Z,0.0455,-1.0030,0.0711,-0.1132,0.0912,0.1130,0.0125,-0.0271,0.0165,3.1015,1.4858,2.8325
2024-10-11T14:20:13.369Z,0.0446,-0.9976,0.0738,-0.1878,0.0119,0.0719,0.0101,-0.0340,0.0190,3.0951,1.4856,2.8378
2024-10-11T14:20:13.379Z,0.0476,-0.9956,0.0803,-0.1878,0.0119,0.0719,0.0101,-0.0340,0.0190,3.0951,1.4856,2.8378
2024-10-11T14:20:13.389Z,0.0406,-0.9949,0.0844,-0.1878,0.0119,0.0719,0.0095,-0.0422,0.0158,3.0951,1.4856,2.8378
2024-10-11T14:20:13.400Z,0.0387,-0.9955,0.0812,-0.1341,-0.0083,0.0021,0.0125,-0.0460,0.0177,3.0880,1.4855,2.8435
2024-10-11T14:20:13.409Z,0.0375,-0.9990,0.0712,-0.1341,-0.0083,0.0021,0.0125,-0.0460,0.0177,3.0880,1.4855,2.8435
2024-10-11T14:20:13.419Z,0.0386,-1.0059,0.0702,-0.1341,-0.0083,0.0021,0.0116,-0.0450,0.0201,3.0880,1.4855,2.8435
2024-10-11T14:20:13.430Z,0.0417,-1.0092,0.0744,-0.1681,0.1259,0.0726,0.0117,-0.0460,0.0200,3.0803,1.4853,2.8495
2024-10-11T14:20:13.439Z,0.0400,-1.0085,0.0816,-0.1681,0.1259,0.0726,0.0108,-0.0476,0.0207,3.0803,1.4853,2.8495
2024-10-11T14:20:13.450Z,0.0395,-1.0067,0.0895,-0.1681,0.1259,0.0726,0.0095,-0.0497,0.0210,3.0803,1.4853,2.8495
2024-10-11T14:20:13.459Z,0.0312,-1.0055,0.0885,-0.0698,0.0896,-0.0637,0.0082,-0.0525,0.0190,3.0727,1.4852,2.8555
2024-10-11T14:20:13.470Z,0.0281,-1.0068,0.0806,-0.0698,0.0896,-0.0637,0.0065,-0.0554,0.0183,3.0727,1.4852,2.8555
2024-10-11T14:20:13.479Z,0.0262,-1.0060,0.0778,-0.0698,0.0896,-0.0637,0.0085,-0.0563,0.0171,3.0727,1.4852,2.8555
2024-10-11T14:20:13.489Z,0.0160,-1.0034,0.0859,0.0756,0.0692,-0.0365,0.0068,-0.0618,0.0159,3.0659,1.4852,2.8603
2024-10-11T14:20:13.500Z,0.0121,-1.0046,0.0861,0.0756,0.0692,-0.0365,0.0088,-0.0656,0.0144,3.0659,1.4852,2.8603
2024-10-11T14:20:13.509Z,0.0166,-1.0057,0.0822,0.0756,0.0692,-0.0365,0.0058,-0.0675,0.0122,3.0659,1.4852,2.8603
2024-10-11T14:20:13.519Z,0.0245,-1.0059,0.0808,-0.0099,0.0942,0.0144,0.0070,-0.0726,0.0127,3.0608,1.4851,2.8631
2024-10-11T14:20:13.529Z,0.0257,-1.0060,0.0831,-0.0099,0.0942,0.0144,0.0087,-0.0709,0.0120,3.0608,1.4851,2.8631
2024-10-11T14:20:13.539Z,0.0231,-1.0028,0.0916,-0.0099,0.0942,0.0144,0.0109,-0.0687,0.0115,3.0608,1.4851,2.8631
2024-10-11T14:20:13.549Z,0.0213,-1.0014,0.0847,0.0200,0.0501,-0.0224,0.0072,-0.0694,0.0138,3.0560,1.4850,2.8656
2024-10-11T14:20:13.560Z,0.0234,-0.9928,0.0792,0.0200,0.0501,-0.0224,0.0072,-0.0678,0.0137,3.0560,1.4850,2.8656
2024-10-11T14:20:13.569Z,0.0234,-0.9928,0.0792,0.0200,0.0501,-0.0224,0.0071,-0.0682,0.0143,3.0560,1.4850,2.8656
2024-10-11T14:20:13.580Z,0.0247,-0.9965,0.0836,-0.0155,0.0020,-0.0098,0.0089,-0.0685,0.0164,3.0505,1.4849,2.8687
2024-10-11T14:20:13.589Z,0.0262,-1.0001,0.0788,-0.0155,0.0020,-0.0098,0.0115,-0.0743,0.0123,3.0505,1.4849,2.8687
2024-10-11T14:20:13.599Z,0.0167,-1.0055,0.0794,-0.0155,0.0020,-0.0098,0.0080,-0.0750,0.0133,3.0505,1.4849,2.8687
2024-10-11T14:20:13.609Z,0.0074,-1.0089,0.0812,0.1526,0.1240,0.0155,0.0088,-0.0720,0.0111,3.0451,1.4848,2.8717
2024-10-11T14:20:13.619Z,0.0145,-1.0129,0.0804,0.1526,0.1240,0.0155,0.0079,-0.0700,0.0130,3.0451,1.4848,2.8717
2024-10-11T14:20:13.629Z,0.0135,-1.0171,0.0842,0.1526,0.1240,0.0155,0.0059,-0.0655,0.0124,3.0451,1.4848,2.8717
2024-10-11T14:20:13.639Z,0.0182,-1.0134,0.0942,0.0452,0.1676,-0.1100,0.0075,-0.0678,0.0108,3.0406,1.4847,2.8738
2024-10-11T14:20:13.649Z,0.0148,-1.0136,0.0978,0.0452,0.1676,-0.1100,0.0046,-0.0620,0.0111,3.0406,1.4847,2.8738
2024-10-11T14:20:13.659Z,0.0195,-1.0136,0.0884,0.0452,0.1676,-0.1100,0.0091,-0.0651,0.0119,3.0406,1.4847,2.8738
2024-10-11T14:20:13.669Z,0.0142,-1.0121,0.0828,0.0830,0.1552,0.0027,0.0093,-0.0599,0.0109,3.0365,1.4846,2.8758
2024-10-11T14:20:13.680Z,0.0195,-1.0073,0.0779,0.0830,0.1552,0.0027,0.0117,-0.0576,0.0119,3.0365,1.4846,2.8758
2024-10-11T14:20:13.689Z,0.0216,-1.0003,0.0889,0.0830,0.1552,0.0027,0.0123,-0.0525,0.0125,3.0365,1.4846,2.8758
2024-10-11T14:20:13.699Z,0.0161,-0.9972,0.0887,0.0621,0.0095,-0.0524,0.0153,-0.0541,0.0099,3.0314,1.4843,2.8790
2024-10-11T14:20:13.710Z,0.0122,-0.9929,0.0889,0.0621,0.0095,-0.0524,0.0182,-0.0531,0.0120,3.0314,1.4843,2.8790
2024-10-11T14:20:13.719Z,0.0122,-0.9929,0.0889,0.0621,0.0095,-0.0524,0.0172,-0.0478,0.0078,3.0314,1.4843,2.8790
2024-10-11T14:20:13.729Z,0.0013,-0.9962,0.0975,0.2060,-0.0007,-0.1334,0.0180,-0.0454,0.0094,3.0265,1.4839,2.8821
2024-10-11T14:20:13.739Z,0.0026,-0.9969,0.0968,0.2060,-0.0007,-0.1334,0.0209,-0.0406,0.0027,3.0265,1.4839,2.8821
2024-10-11T14:20:13.749Z,0.0042,-0.9981,0.0917,0.2060,-0.0007,-0.1334,0.0200,-0.0393,0.0010,3.0265,1.4839,2.8821
2024-10-11T14:20:13.759Z,-0.0036,-0.9986,0.0992,0.2542,0.0233,-0.1448,0.0187,-0.0386,-0.0043,3.0239,1.4833,2.8832
2024-10-11T14:20:13.769Z,-0.0044,-1.0009,0.1050,0.2542,0.0233,-0.1448,0.0209,-0.0367,-0.0059,3.0239,1.4833,2.8832
2024-10-11T14:20:13.780Z,-0.0033,-1.0055,0.1011,0.2542,0.0233,-0.1448,0.0152,-0.0435,-0.0091,3.0239,1.4833,2.8832
2024-10-11T14:20:13.789Z,-0.0025,-1.0009,0.1128,0.2463,0.0471,-0.2728,0.0126,-0.0389,-0.0119,3.0240,1.4828,2.8816
2024-10-11T14:20:13.798Z,0.0053,-0.9964,0.1147,0.2463,0.0471,-0.2728,0.0121,-0.0426,-0.0118,3.0240,1.4828,2.8816
2024-10-11T14:20:13.809Z,0.0078,-0.9942,0.1099,0.2463,0.0471,-0.2728,0.0098,-0.0407,-0.0122,3.0240,1.4828,2.8816
2024-10-11T14:20:13.819Z,0.0106,-0.9952,0.1111,0.1493,-0.0185,-0.2416,0.0078,-0.0352,-0.0140,3.0264,1.4824,2.8778
2024-10-11T14:20:13.830Z,0.0106,-0.9952,0.1111,0.1493,-0.0185,-0.2416,0.0078,-0.0352,-0.0140,3.0264,1.4824,2.8778
2024-10-11T14:20:13.839Z,0.0117,-0.9962,0.1138,0.1493,-0.0185,-0.2416,0.0106,-0.0379,-0.0157,3.0264,1.4824,2.8778
2024-10-11T14:20:13.850Z,0.0102,-0.9922,0.1102,0.1166,0.0014,-0.2773,0.0084,-0.0391,-0.0161,3.0303,1.4820,2.8725
2024-10-11T14:20:13.859Z,0.0126,-0.9913,0.1050,0.1166,0.0014,-0.2773,0.0099,-0.0441,-0.0191,3.0303,1.4820,2.8725
2024-10-11T14:20:13.869Z,0.0117,-0.9930,0.1046,0.1166,0.0014,-0.2773,0.0120,-0.0402,-0.0182,3.0303,1.4820,2.8725
2024-10-11T14:20:13.880Z,0.0117,-0.9930,0.1046,0.1229,-0.0300,-0.1851,0.0099,-0.0350,-0.0177,3.0349,1.4816,2.8665
2024-10-11T14:20:13.889Z,0.0210,-0.9807,0.1219,0.1229,-0.0300,-0.1851,0.0060,-0.0340,-0.0185,3.0349,1.4816,2.8665
2024-10-11T14:20:13.899Z,0.0210,-0.9807,0.1219,0.1229,-0.0300,-0.1851,0.0055,-0.0387,-0.0179,3.0349,1.4816,2.8665
2024-10-11T14:20:13.909Z,0.0178,-0.9667,0.1179,0.0705,-0.2427,-0.2710,0.0050,-0.0354,-0.0176,3.0403,1.4813,2.8598
2024-10-11T14:20:13.919Z,0.0178,-0.9667,0.1179,0.0705,-0.2427,-0.2710,0.0007,-0.0344,-0.0185,3.0403,1.4813,2.8598
2024-10-11T14:20:13.931Z,0.0210,-0.9713,0.1173,0.0705,-0.2427,-0.2710,-0.0004,-0.0271,-0.0179,3.0403,1.4813,2.8598
2024-10-11T14:20:13.939Z,0.0293,-0.9818,0.1009,-0.0175,-0.1861,-0.2583,0.0031,-0.0230,-0.0139,3.0451,1.4811,2.8539
2024-10-11T14:20:13.949Z,0.0293,-0.9818,0.1009,-0.0175,-0.1861,-0.2583,-0.0004,-0.0178,-0.0114,3.0451,1.4811,2.8539
2024-10-11T14:20:13.960Z,0.0380,-0.9864,0.1132,-0.0175,-0.1861,-0.2583,-0.0021,-0.0162,-0.0077,3.0451,1.4811,2.8539
2024-10-11T14:20:13.969Z,0.0369,-0.9812,0.1101,-0.1202,-0.0937,-0.2677,-0.0060,-0.0140,-0.0044,3.0473,1.4810,2.8508
2024-10-11T14:20:13.981Z,0.0369,-0.9812,0.1101,-0.1202,-0.0937,-0.2677,-0.0039,-0.0111,0.0013,3.0473,1.4810,2.8508
2024-10-11T14:20:13.990Z,0.0336,-0.9828,0.1038,-0.1202,-0.0937,-0.2677,-0.0096,-0.0117,0.0025,3.0473,1.4810,2.8508
2024-10-11T14:20:13.999Z,0.0249,-0.9749,0.0909,-0.0768,-0.1292,-0.1767,-0.0086,-0.0136,0.0044,3.0473,1.4811,2.8502
2024-10-11T14:20:14.010Z,0.0245,-0.9627,0.0912,-0.0768,-0.1292,-0.1767,-0.0084,-0.0151,0.0045,3.0473,1.4811,2.8502
2024-10-11T14:20:14.019Z,0.0172,-0.9620,0.0943,-0.0768,-0.1292,-0.1767,-0.0108,-0.0172,0.0020,3.0473,1.4811,2.8502
2024-10-11T14:20:14.030Z,0.0172,-0.9620,0.0943,0.0838,-0.3336,-0.0856,-0.0089,-0.0178,0.0022,3.0470,1.4813,2.8497
2024-10-11T14:20:14.039Z,0.0142,-0.9636,0.0864,0.0838,-0.3336,-0.0856,-0.0075,-0.0209,0.0012,3.0470,1.4813,2.8497
2024-10-11T14:20:14.049Z,0.0142,-0.9636,0.0864,0.0838,-0.3336,-0.0856,-0.0044,-0.0240,-0.0002,3.0470,1.4813,2.8497
2024-10-11T14:20:14.058Z,0.0165,-0.9660,0.0819,0.0912,-0.2945,0.0344,-0.0077,-0.0219,0.0006,3.0476,1.4814,2.8482
2024-10-11T14:20:14.070Z,0.0261,-0.9689,0.0804,0.0912,-0.2945,0.0344,-0.0064,-0.0250,-0.0006,3.0476,1.4814,2.8482
2024-10-11T14:20:14.079Z,0.0261,-0.9689,0.0804,0.0912,-0.2945,0.0344,-0.0038,-0.0230,0.0018,3.0476,1.4814,2.8482
2024-10-11T14:20:14.089Z,0.0216,-0.9625,0.0835,-0.0106,-0.2698,0.0647,-0.0085,-0.0267,-0.0012,3.0479,1.4815,2.8470
2024-10-11T14:20:14.099Z,0.0213,-0.9614,0.0753,-0.0106,-0.2698,0.0647,-0.0039,-0.0306,-0.0005,3.0479,1.4815,2.8470
2024-10-11T14:20:14.109Z,0.0222,-0.9664,0.0670,-0.0106,-0.2698,0.0647,-0.0006,-0.0307,-0.0004,3.0479,1.4815,2.8470
2024-10-11T14:20:14.119Z,0.0212,-0.9743,0.0646,0.0372,-0.2902,0.1788,-0.0007,-0.0297,0.0002,3.0479,1.4816,2.8459
2024-10-11T14:20:14.129Z,0.0212,-0.9743,0.0646,0.0372,-0.2902,0.1788,-0.0061,-0.0299,-0.0057,3.0479,1.4816,2.8459
2024-10-11T14:20:14.139Z,0.0170,-0.9688,0.0682,0.0372,-0.2902,0.1788,-0.0035,-0.0288,-0.0045,3.0479,1.4816,2.8459
2024-10-11T14:20:14.149Z,0.0222,-0.9729,0.0581,0.0894,-0.2668,0.1650,-0.0032,-0.0321,-0.0050,3.0486,1.4817,2.8441
2024-10-11T14:20:14.159Z,0.0228,-0.9736,0.0697,0.0894,-0.2668,0.1650,-0.0055,-0.0339,-0.0051,3.0486,1.4817,2.8441
2024-10-11T14:20:14.169Z,0.0164,-0.9752,0.0801,0.0894,-0.2668,0.1650,-0.0040,-0.0366,-0.0082,3.0486,1.4817,2.8441
2024-10-11T14:20:14.179Z,0.0164,-0.9752,0.0801,0.0976,-0.2045,0.0478,-0.0019,-0.0384,-0.0094,3.0506,1.4817,2.8409
2024-10-11T14:20:14.189Z,0.0115,-0.9861,0.0646,0.0976,-0.2045,0.0478,0.0023,-0.0402,-0.0130,3.0506,1.4817,2.8409
2024-10-11T14:20:14.199Z,0.0079,-0.9843,0.0654,0.0976,-0.2045,0.0478,-0.0016,-0.0445,-0.0165,3.0506,1.4817,2.8409
2024-10-11T14:20:14.209Z,0.0107,-0.9826,0.0711,0.1857,-0.1154,0.1908,-0.0000,-0.0479,-0.0161,3.0549,1.4817,2.8351
2024-10-11T14:20:14.219Z,0.0206,-0.9829,0.0816,0.1857,-0.1154,0.1908,-0.0049,-0.0480,-0.0161,3.0549,1.4817,2.8351
2024-10-11T14:20:14.230Z,0.0230,-0.9896,0.0819,0.1857,-0.1154,0.1908,-0.0037,-0.0497,-0.0146,3.0549,1.4817,2.8351
2024-10-11T14:20:14.239Z,0.0220,-0.9984,0.0747,0.0433,-0.0633,0.0278,-0.0026,-0.0508,-0.0159,3.0596,1.4816,2.8287
2024-10-11T14:20:14.249Z,0.0220,-0.9984,0.0747,0.0433,-0.0633,0.0278,-0.0009,-0.0497,-0.0134,3.0596,1.4816,2.8287
2024-10-11T14:20:14.259Z,0.0348,-0.9987,0.0799,0.0433,-0.0633,0.0278,-0.0025,-0.0477,-0.0120,3.0596,1.4816,2.8287
2024-10-11T14:20:14.269Z,0.0399,-0.9988,0.0728,-0.0680,0.0266,0.0460,-0.0024,-0.0441,-0.0111,3.0637,1.4816,2.8230
2024-10-11T14:20:14.281Z,0.0344,-1.0066,0.0670,-0.0680,0.0266,0.0460,-0.0019,-0.0433,-0.0081,3.0637,1.4816,2.8230
2024-10-11T14:20:14.289Z,0.0329,-1.0101,0.0684,-0.0680,0.0266,0.0460,0.0024,-0.0454,-0.0074,3.0637,1.4816,2.8230
2024-10-11T14:20:14.299Z,0.0280,-1.0156,0.0615,-0.0457,0.1381,0.1584,0.0041,-0.0475,-0.0066,3.0658,1.4816,2.8193
2024-10-11T14:20:14.309Z,0.0256,-1.0184,0.0555,-0.0457,0.1381,0.1584,0.0044,-0.0480,-0.0052,3.0658,1.4816,2.8193
2024-10-11T14:20:14.320Z,0.0309,-1.0166,0.0670,-0.0457,0.1381,0.1584,0.0028,-0.0450,-0.0031,3.0658,1.4816,2.8193
2024-10-11T14:20:14.330Z,0.0309,-1.0166,0.0670,-0.0236,0.2021,0.1722,0.0033,-0.0414,-0.0014,3.0664,1.4814,2.8171
2024-10-11T14:20:14.339Z,0.0315,-1.0242,0.0678,-0.0236,0.2021,0.1722,0.0036,-0.0393,0.0007,3.0664,1.4814,2.8171
2024-10-11T14:20:14.350Z,0.0331,-1.0257,0.0738,-0.0236,0.2021,0.1722,-0.0009,-0.0339,0.0012,3.0664,1.4814,2.8171
2024-10-11T14:20:14.358Z,0.0299,-1.0291,0.0781,-0.0442,0.2913,0.1063,-0.0017,-0.0298,0.0017,3.0659,1.4814,2.8162
2024-10-11T14:20:14.369Z,0.0370,-1.0324,0.0795,-0.0442,0.2913,0.1063,-0.0048,-0.0248,0.0037,3.0659,1.4814,2.8162
2024-10-11T14:20:14.379Z,0.0450,-1.0275,0.0753,-0.0442,0.2913,0.1063,-0.0007,-0.0192,0.0068,3.0659,1.4814,2.8162
2024-10-11T14:20:14.389Z,0.0415,-1.0243,0.0738,-0.1626,0.3087,0.0907,-0.0006,-0.0180,0.0108,3.0642,1.4815,2.8169
2024-10-11T14:20:14.399Z,0.0388,-1.0303,0.0755,-0.1626,0.3087,0.0907,-0.0016,-0.0194,0.0146,3.0642,1.4815,2.8169
2024-10-11T14:20:14.409Z,0.0403,-1.0334,0.0846,-0.1626,0.3087,0.0907,-0.0051,-0.0125,0.0139,3.0642,1.4815,2.8169
2024-10-11T14:20:14.419Z,0.0444,-1.0312,0.0901,-0.1195,0.3670,-0.0021,-0.0034,-0.0099,0.0190,3.0599,1.4817,2.8205
2024-10-11T14:20:14.429Z,0.0409,-1.0310,0.0882,-0.1195,0.3670,-0.0021,-0.0099,-0.0104,0.0199,3.0599,1.4817,2.8205
2024-10-11T14:20:14.439Z,0.0422,-1.0304,0.0941,-0.1195,0.3670,-0.0021,-0.0094,-0.0145,0.0228,3.0599,1.4817,2.8205
2024-10-11T14:20:14.449Z,0.0335,-1.0325,0.0896,-0.1442,0.3365,-0.0973,-0.0066,-0.0214,0.0212,3.0539,1.4822,2.8257
2024-10-11T14:20:14.459Z,0.0265,-1.0375,0.0835,-0.1442,0.3365,-0.0973,-0.0103,-0.0226,0.0224,3.0539,1.4822,2.8257
2024-10-11T14:20:14.468Z,0.0266,-1.0391,0.0831,-0.1442,0.3365,-0.0973,-0.0130,-0.0243,0.0210,3.0539,1.4822,2.8257
2024-10-11T14:20:14.481Z,0.0244,-1.0377,0.0880,0.0038,0.4220,0.0072,-0.0104,-0.0273,0.0227,3.0481,1.4827,2.8306
2024-10-11T14:20:14.489Z,0.0255,-1.0426,0.0826,0.0038,0.4220,0.0072,-0.0108,-0.0322,0.0204,3.0481,1.4827,2.8306
2024-10-11T14:20:14.499Z,0.0283,-1.0437,0.0777,0.0038,0.4220,0.0072,-0.0079,-0.0350,0.0221,3.0481,1.4827,2.8306
2024-10-11T14:20:14.509Z,0.0288,-1.0389,0.0798,-0.0180,0.4664,0.0562,-0.0140,-0.0346,0.0226,3.0425,1.4831,2.8350
2024-10-11T14:20:14.519Z,0.0322,-1.0381,0.0793,-0.0180,0.4664,0.0562,-0.0076,-0.0360,0.0233,3.0425,1.4831,2.8350
2024-10-11T14:20:14.529Z,0.0325,-1.0362,0.0743,-0.0180,0.4664,0.0562,-0.0058,-0.0382,0.0250,3.0425,1.4831,2.8350
2024-10-11T14:20:14.539Z,0.0304,-1.0320,0.0730,-0.0657,0.3922,0.0870,-0.0061,-0.0369,0.0230,3.0359,1.4836,2.8402
2024-10-11T14:20:14.549Z,0.0223,-1.0296,0.0746,-0.0657,0.3922,0.0870,-0.0064,-0.0429,0.0223,3.0359,1.4836,2.8402
2024-10-11T14:20:14.559Z,0.0176,-1.0280,0.0777,-0.0657,0.3922,0.0870,-0.0068,-0.0411,0.0227,3.0359,1.4836,2.8402
2024-10-11T14:20:14.569Z,0.0181,-1.0279,0.0796,0.0752,0.3119,0.0516,-0.0074,-0.0403,0.0191,3.0292,1.4840,2.8455
2024-10-11T14:20:14.580Z,0.0178,-1.0312,0.0773,0.0752,0.3119,0.0516,-0.0039,-0.0411,0.0190,3.0292,1.4840,2.8455
2024-10-11T14:20:14.589Z,0.0164,-1.0250,0.0839,0.0752,0.3119,0.0516,-0.0042,-0.0434,0.0166,3.0292,1.4840,2.8455
2024-10-11T14:20:14.599Z,0.0134,-1.0175,0.0871,0.0827,0.2816,-0.0112,-0.0034,-0.0447,0.0159,3.0235,1.4843,2.8496
2024-10-11T14:20:14.609Z,0.0132,-1.0129,0.0886,0.0827,0.2816,-0.0112,-0.0040,-0.0430,0.0160,3.0235,1.4843,2.8496
2024-10-11T14:20:14.619Z,0.0080,-1.0082,0.0931,0.0827,0.2816,-0.0112,-0.0043,-0.0409,0.0161,3.0235,1.4843,2.8496
2024-10-11T14:20:14.630Z,0.0069,-1.0012,0.0877,0.1619,0.1167,-0.1034,-0.0026,-0.0389,0.0118,3.0188,1.4846,2.8528
2024-10-11T14:20:14.639Z,0.0061,-0.9978,0.0845,0.1619,0.1167,-0.1034,-0.0020,-0.0375,0.0137,3.0188,1.4846,2.8528
2024-10-11T14:20:14.649Z,0.0102,-0.9963,0.0825,0.1619,0.1167,-0.1034,0.0031,-0.0366,0.0120,3.0188,1.4846,2.8528
2024-10-11T14:20:14.659Z,0.0124,-0.9928,0.0886,0.1376,-0.0003,0.0002,0.0034,-0.0377,0.0126,3.0140,1.4847,2.8561
2024-10-11T14:20:14.669Z,0.0104,-0.9902,0.0896,0.1376,-0.0003,0.0002,0.0085,-0.0311,0.0122,3.0140,1.4847,2.8561
2024-10-11T14:20:14.680Z,0.0116,-0.9912,0.0862,0.1376,-0.0003,0.0002,0.0088,-0.0262,0.0114,3.0140,1.4847,2.8561
2024-10-11T14:20:14.689Z,0.0114,-0.9868,0.0955,0.1208,-0.0499,-0.0336,0.0107,-0.0235,0.0116,3.0090,1.4846,2.8599
2024-10-11T14:20:14.699Z,0.0102,-0.9852,0.0938,0.1208,-0.0499,-0.0336,0.0090,-0.0253,0.0093,3.0090,1.4846,2.8599
2024-10-11T14:20:14.709Z,0.0052,-0.9809,0.0911,0.1208,-0.0499,-0.0336,0.0114,-0.0262,0.0063,3.0090,1.4846,2.8599
2024-10-11T14:20:14.719Z,-0.0011,-0.9816,0.0853,0.1813,-0.1503,-0.0788,0.0123,-0.0295,0.0053,3.0043,1.4843,2.8636
2024-10-11T14:20:14.730Z,-0.0016,-0.9802,0.0709,0.1813,-0.1503,-0.0788,0.0193,-0.0309,0.0053,3.0043,1.4843,2.8636
2024-10-11T14:20:14.739Z,-0.0023,-0.9823,0.0622,0.1813,-0.1503,-0.0788,0.0256,-0.0322,-0.0013,3.0043,1.4843,2.8636
2024-10-11T14:20:14.749Z,0.0005,-0.9814,0.0668,0.2547,-0.1362,0.2110,0.0284,-0.0339,-0.0026,3.0009,1.4837,2.8658
2024-10-11T14:20:14.759Z,0.0036,-0.9792,0.0680,0.2547,-0.1362,0.2110,0.0335,-0.0318,0.0007,3.0009,1.4837,2.8658
2024-10-11T14:20:14.769Z,0.0074,-0.9730,0.0711,0.2547,-0.1362,0.2110,0.0358,-0.0326,-0.0061,3.0009,1.4837,2.8658
2024-10-11T14:20:14.780Z,0.0106,-0.9668,0.0794,0.1611,-0.2269,0.1334,0.0386,-0.0316,-0.0029,2.9979,1.4827,2.8676
2024-10-11T14:20:14.789Z,0.0093,-0.9622,0.0834,0.1611,-0.2269,0.1334,0.0396,-0.0287,-0.0047,2.9979,1.4827,2.8676
2024-10-11T14:20:14.799Z,0.0214,-0.9552,0.0844,0.1611,-0.2269,0.1334,0.0405,-0.0270,-0.0031,2.9979,1.4827,2.8676
2024-10-11T14:20:14.809Z,0.0180,-0.9517,0.0811,0.0253,-0.4007,0.0148,0.0427,-0.0198,-0.0031,2.9948,1.4815,2.8696
2024-10-11T14:20:14.819Z,0.0154,-0.9477,0.0921,0.0253,-0.4007,0.0148,0.0472,-0.0111,-0.0014,2.9948,1.4815,2.8696
2024-10-11T14:20:14.829Z,0.0165,-0.9429,0.0864,0.0253,-0.4007,0.0148,0.0498,-0.0065,0.0004,2.9948,1.4815,2.8696
2024-10-11T14:20:14.839Z,0.0200,-0.9382,0.0829,0.0735,-0.5198,0.0079,0.0541,-0.0012,0.0014,2.9902,1.4802,2.8736
2024-10-11T14:20:14.850Z,0.0209,-0.9378,0.0868,0.0735,-0.5198,0.0079,0.0570,-0.0022,0.0021,2.9902,1.4802,2.8736
2024-10-11T14:20:14.859Z,0.0192,-0.9342,0.0931,0.0735,-0.5198,0.0079,0.0639,0.0053,0.0050,2.9902,1.4802,2.8736
2024-10-11T14:20:14.868Z,0.0182,-0.9396,0.0918,0.0451,-0.6037,-0.0411,0.0627,0.0070,0.0028,2.9837,1.4786,2.8798
2024-10-11T14:20:14.880Z,0.0139,-0.9414,0.0895,0.0451,-0.6037,-0.0411,0.0616,0.0128,0.0022,2.9837,1.4786,2.8798
2024-10-11T14:20:14.889Z,0.0034,-0.9403,0.1025,0.0451,-0.6037,-0.0411,0.0590,0.0150,0.0012,2.9837,1.4786,2.8798
2024-10-11T14:20:14.900Z,0.0010,-0.9304,0.1130,0.1987,-0.5425,-0.1148,0.0593,0.0161,-0.0025,2.9774,1.4768,2.8862
2024-10-11T14:20:14.909Z,-0.0023,-0.9223,0.1161,0.1987,-0.5425,-0.1148,0.0559,0.0151,-0.0020,2.9774,1.4768,2.8862
2024-10-11T14:20:14.919Z,0.0049,-0.9210,0.1159,0.1987,-0.5425,-0.1148,0.0549,0.0159,-0.0039,2.9774,1.4768,2.8862
2024-10-11T14:20:14.930Z,0.0092,-0.9260,0.1161,0.1841,-0.7303,-0.2300,0.0502,0.0203,-0.0020,2.9733,1.4752,2.8905
2024-10-11T14:20:14.939Z,0.0083,-0.9388,0.1091,0.1841,-0.7303,-0.2300,0.0500,0.0220,-0.0022,2.9733,1.4752,2.8905
2024-10-11T14:20:14.950Z,0.0165,-0.9484,0.1116,0.1841,-0.7303,-0.2300,0.0484,0.0235,0.0014,2.9733,1.4752,2.8905
2024-10-11T14:20:14.959Z,0.0232,-0.9525,0.1163,0.0705,-0.4602,-0.1737,0.0447,0.0270,0.0029,2.9694,1.4738,2.8948
2024-10-11T14:20:14.969Z,0.0202,-0.9531,0.1158,0.0705,-0.4602,-0.1737,0.0373,0.0315,-0.0012,2.9694,1.4738,2.8948
2024-10-11T14:20:14.981Z,0.0125,-0.9516,0.1115,0.0705,-0.4602,-0.1737,0.0360,0.0315,0.0025,2.9694,1.4738,2.8948
2024-10-11T14:20:14.989Z,0.0127,-0.9530,0.1048,0.1081,-0.4273,-0.1605,0.0349,0.0356,0.0010,2.9658,1.4726,2.8990
2024-10-11T14:20:15.000Z,0.0147,-0.9578,0.1051,0.1081,-0.4273,-0.1605,0.0324,0.0333,0.0004,2.9658,1.4726,2.8990
2024-10-11T14:20:15.009Z,0.0099,-0.9597,0.1063,0.1081,-0.4273,-0.1605,0.0298,0.0367,-0.0018,2.9658,1.4726,2.8990
2024-10-11T14:20:15.019Z,0.0042,-0.9677,0.1032,0.1326,-0.3476,-0.0991,0.0295,0.0392,-0.0063,2.9633,1.4717,2.9024
2024-10-11T14:20:15.030Z,-0.0004,-0.9755,0.1021,0.1326,-0.3476,-0.0991,0.0266,0.0386,-0.0076,2.9633,1.4717,2.9024
2024-10-11T14:20:15.039Z,-0.0012,-0.9756,0.1039,0.1326,-0.3476,-0.0991,0.0301,0.0338,-0.0118,2.9633,1.4717,2.9024
2024-10-11T14:20:15.049Z,0.0061,-0.9828,0.1110,0.2430,-0.1907,-0.0663,0.0288,0.0308,-0.0121,2.9629,1.4707,2.9036
2024-10-11T14:20:15.059Z,0.0076,-0.9892,0.1100,0.2430,-0.1907,-0.0663,0.0235,0.0327,-0.0127,2.9629,1.4707,2.9036
2024-10-11T14:20:15.069Z,0.0075,-0.9907,0.1146,0.2430,-0.1907,-0.0663,0.0226,0.0359,-0.0125,2.9629,1.4707,2.9036
2024-10-11T14:20:15.080Z,0.0132,-0.9934,0.1186,0.1605,-0.0414,-0.1638,0.0173,0.0385,-0.0141,2.9644,1.4699,2.9029
2024-10-11T14:20:15.089Z,0.0110,-1.0012,0.1155,0.1605,-0.0414,-0.1638,0.0161,0.0384,-0.0145,2.9644,1.4699,2.9029
2024-10-11T14:20:15.099Z,0.0117,-1.0091,0.1126,0.1605,-0.0414,-0.1638,0.0132,0.0369,-0.0170,2.9644,1.4699,2.9029
2024-10-11T14:20:15.109Z,0.0186,-1.0181,0.1122,0.1220,0.1402,-0.1393,0.0113,0.0412,-0.0172,2.9668,1.4693,2.9014
2024-10-11T14:20:15.119Z,0.0211,-1.0253,0.1075,0.1220,0.1402,-0.1393,0.0112,0.0468,-0.0146,2.9668,1.4693,2.9014
2024-10-11T14:20:15.131Z,0.0228,-1.0251,0.1066,0.0156,0.2974,-0.0764,0.0076,0.0485,-0.0155,2.9696,1.4689,2.8997
2024-10-11T14:20:15.139Z,0.0177,-1.0246,0.1095,0.0156,0.2974,-0.0764,0.0017,0.0541,-0.0162,2.9696,1.4689,2.8997
2024-10-11T14:20:15.149Z,0.0111,-1.0262,0.1062,0.0156,0.2974,-0.0764,-0.0018,0.0552,-0.0185,2.9696,1.4689,2.8997
2024-10-11T14:20:15.158Z,0.0100,-1.0281,0.1074,0.0156,0.2974,-0.0764,-0.0080,0.0563,-0.0217,2.9696,1.4689,2.8997
2024-10-11T14:20:15.169Z,0.0128,-1.0317,0.0986,0.1445,0.3270,-0.0850,-0.0110,0.0615,-0.0244,2.9746,1.4688,2.8962
2024-10-11T14:20:15.180Z,0.0134,-1.0439,0.0833,0.1445,0.3270,-0.0850,-0.0126,0.0693,-0.0282,2.9746,1.4688,2.8962
2024-10-11T14:20:15.189Z,0.0163,-1.0476,0.0763,0.1445,0.3270,-0.0850,-0.0142,0.0683,-0.0300,2.9746,1.4688,2.8962
2024-10-11T14:20:15.199Z,0.0191,-1.0480,0.0780,0.0888,0.5175,0.2170,-0.0148,0.0697,-0.0325,2.9829,1.4690,2.8896
2024-10-11T14:20:15.209Z,0.0276,-1.0472,0.0909,0.0888,0.5175,0.2170,-0.0191,0.0756,-0.0297,2.9829,1.4690,2.8896
2024-10-11T14:20:15.219Z,0.0301,-1.0452,0.0882,0.0888,0.5175,0.2170,-0.0233,0.0800,-0.0304,2.9829,1.4690,2.8896
2024-10-11T14:20:15.230Z,0.0332,-1.0413,0.0871,-0.0403,0.4936,0.0953,-0.0228,0.0839,-0.0286,2.9923,1.4693,2.8823
2024-10-11T14:20:15.239Z,0.0360,-1.0399,0.0855,-0.0403,0.4936,0.0953,-0.0246,0.0873,-0.0278,2.9923,1.4693,2.8823
2024-10-11T14:20:15.249Z,0.0358,-1.0385,0.0859,-0.0403,0.4936,0.0953,-0.0303,0.0866,-0.0294,2.9923,1.4693,2.8823
2024-10-11T14:20:15.259Z,0.0363,-1.0316,0.0888,-0.0908,0.4281,0.1109,-0.0302,0.0924,-0.0233,3.0021,1.4698,2.8750
2024-10-11T14:20:15.269Z,0.0398,-1.0277,0.0902,-0.0908,0.4281,0.1109,-0.0340,0.0992,-0.0266,3.0021,1.4698,2.8750
2024-10-11T14:20:15.279Z,0.0341,-1.0254,0.0983,-0.0908,0.4281,0.1109,-0.0412,0.1099,-0.0254,3.0021,1.4698,2.8750
2024-10-11T14:20:15.289Z,0.0303,-1.0200,0.1053,-0.0691,0.2984,-0.0197,-0.0433,0.1158,-0.0263,3.0119,1.4706,2.8681
2024-10-11T14:20:15.299Z,0.0380,-1.0151,0.1059,-0.0691,0.2984,-0.0197,-0.0449,0.1164,-0.0253,3.0119,1.4706,2.8681
2024-10-11T14:20:15.309Z,0.0368,-1.0135,0.1061,-0.0691,0.2984,-0.0197,-0.0484,0.1191,-0.0273,3.0119,1.4706,2.8681
2024-10-11T14:20:15.319Z,0.0260,-1.0070,0.1107,-0.0915,0.1801,-0.1087,-0.0517,0.1226,-0.0281,3.0232,1.4718,2.8601
2024-10-11T14:20:15.329Z,0.0239,-1.0048,0.1039,-0.0915,0.1801,-0.1087,-0.0508,0.1245,-0.0282,3.0232,1.4718,2.8601
2024-10-11T14:20:15.339Z,0.0345,-1.0056,0.0990,-0.0915,0.1801,-0.1087,-0.0539,0.1266,-0.0273,3.0232,1.4718,2.8601
2024-10-11T14:20:15.349Z,0.0358,-1.0036,0.0964,-0.0641,0.1015,-0.0536,-0.0528,0.1289,-0.0269,3.0356,1.4730,2.8512
2024-10-11T14:20:15.358Z,0.0375,-0.9952,0.0936,-0.0641,0.1015,-0.0536,-0.0516,0.1256,-0.0238,3.0356,1.4730,2.8512
2024-10-11T14:20:15.369Z,0.0424,-0.9921,0.0864,-0.0641,0.1015,-0.0536,-0.0519,0.1306,-0.0212,3.0356,1.4730,2.8512
2024-10-11T14:20:15.378Z,0.0460,-0.9901,0.0859,-0.1384,-0.0316,0.0564,-0.0506,0.1334,-0.0199,3.0467,1.4743,2.8437
2024-10-11T14:20:15.389Z,0.0429,-0.9852,0.0892,-0.1384,-0.0316,0.0564,-0.0514,0.1345,-0.0197,3.0467,1.4743,2.8437
2024-10-11T14:20:15.398Z,0.0267,-0.9942,0.0914,-0.1384,-0.0316,0.0564,-0.0531,0.1328,-0.0199,3.0467,1.4743,2.8437
2024-10-11T14:20:15.409Z,0.0267,-0.9995,0.0939,0.0174,-0.0129,-0.0067,-0.0535,0.1288,-0.0163,3.0567,1.4756,2.8375
2024-10-11T14:20:15.419Z,0.0259,-0.9981,0.0919,0.0174,-0.0129,-0.0067,-0.0582,0.1312,-0.0163,3.0567,1.4756,2.8375
2024-10-11T14:20:15.429Z,0.0222,-0.9895,0.0864,0.0174,-0.0129,-0.0067,-0.0563,0.1336,-0.0145,3.0567,1.4756,2.8375
2024-10-11T14:20:15.439Z,0.0176,-0.9934,0.0728,0.0621,-0.0596,0.0273,-0.0533,0.1333,-0.0158,3.0662,1.4771,2.8317
2024-10-11T14:20:15.449Z,0.0200,-0.9953,0.0651,0.0621,-0.0596,0.0273,-0.0497,0.1315,-0.0145,3.0662,1.4771,2.8317
2024-10-11T14:20:15.459Z,0.0094,-0.9998,0.0687,0.0621,-0.0596,0.0273,-0.0451,0.1258,-0.0138,3.0662,1.4771,2.8317
2024-10-11T14:20:15.469Z,0.0132,-1.0010,0.0705,0.1885,0.0401,0.1873,-0.0436,0.1265,-0.0155,3.0750,1.4783,2.8265
2024-10-11T14:20:15.479Z,0.0262,-1.0002,0.0766,0.1885,0.0401,0.1873,-0.0401,0.1296,-0.0121,3.0750,1.4783,2.8265
2024-10-11T14:20:15.489Z,0.0206,-1.0010,0.0815,0.1885,0.0401,0.1873,-0.0356,0.1335,-0.0096,3.0750,1.4783,2.8265
2024-10-11T14:20:15.498Z,0.0289,-0.9991,0.0832,0.0783,0.0507,0.0512,-0.0328,0.1366,-0.0075,3.0824,1.4793,2.8229
2024-10-11T14:20:15.509Z,0.0282,-0.9995,0.0828,0.0783,0.0507,0.0512,-0.0281,0.1413,-0.0064,3.0824,1.4793,2.8229
2024-10-11T14:20:15.519Z,0.0257,-1.0021,0.0814,0.0783,0.0507,0.0512,-0.0247,0.1444,-0.0060,3.0824,1.4793,2.8229
2024-10-11T14:20:15.529Z,0.0370,-1.0027,0.0816,0.0271,0.0609,0.0457,-0.0189,0.1470,-0.0025,3.0873,1.4800,2.8220
2024-10-11T14:20:15.538Z,0.0419,-0.9948,0.0808,0.0271,0.0609,0.0457,-0.0175,0.1508,-0.0012,3.0873,1.4800,2.8220
2024-10-11T14:20:15.549Z,0.0426,-0.9886,0.0894,0.0271,0.0609,0.0457,-0.0126,0.1509,0.0029,3.0873,1.4800,2.8220
2024-10-11T14:20:15.559Z,0.0428,-0.9851,0.0904,-0.1431,-0.0723,-0.0361,-0.0084,0.1469,0.0061,3.0882,1.4805,2.8252
2024-10-11T14:20:15.569Z,0.0408,-0.9845,0.0887,-0.1431,-0.0723,-0.0361,-0.0068,0.1437,0.0079,3.0882,1.4805,2.8252
2024-10-11T14:20:15.580Z,0.0389,-0.9835,0.0930,-0.1126,-0.1220,-0.0721,-0.0047,0.1364,0.0100,3.0862,1.4807,2.8313
2024-10-11T14:20:15.589Z,0.0368,-0.9812,0.1004,-0.1126,-0.1220,-0.0721,-0.0052,0.1342,0.0101,3.0862,1.4807,2.8313
2024-10-11T14:20:15.599Z,0.0294,-0.9764,0.1016,-0.1126,-0.1220,-0.0721,-0.0019,0.1261,0.0108,3.0862,1.4807,2.8313
2024-10-11T14:20:15.610Z,0.0287,-0.9761,0.0956,-0.0179,-0.1949,-0.0975,-0.0008,0.1244,0.0091,3.0832,1.4809,2.8379
2024-10-11T14:20:15.619Z,0.0332,-0.9784,0.0927,-0.0179,-0.1949,-0.0975,0.0017,0.1151,0.0086,3.0832,1.4809,2.8379
2024-10-11T14:20:15.629Z,0.0404,-0.9793,0.0889,-0.0179,-0.1949,-0.0975,0.0009,0.1044,0.0106,3.0832,1.4809,2.8379
2024-10-11T14:20:15.640Z,0.0408,-0.9803,0.0883,-0.1430,-0.1538,-0.0230,0.0120,0.0951,0.0096,3.0787,1.4807,2.8451
2024-10-11T14:20:15.648Z,0.0463,-0.9836,0.0916,-0.1430,-0.1538,-0.0230,0.0151,0.0849,0.0143,3.0787,1.4807,2.8451
2024-10-11T14:20:15.659Z,0.0503,-0.9879,0.0970,-0.1430,-0.1538,-0.0230,0.0185,0.0827,0.0189,3.0787,1.4807,2.8451
2024-10-11T14:20:15.670Z,0.0528,-0.9917,0.0963,-0.2675,-0.0413,-0.0951,0.0179,0.0720,0.0210,3.0708,1.4804,2.8551
2024-10-11T14:20:15.679Z,0.0600,-0.9910,0.0952,-0.2675,-0.0413,-0.0951,0.0219,0.0634,0.0281,3.0708,1.4804,2.8551
2024-10-11T14:20:15.689Z,0.0583,-0.9910,0.0978,-0.2675,-0.0413,-0.0951,0.0201,0.0595,0.0330,3.0708,1.4804,2.8551
2024-10-11T14:20:15.698Z,0.0563,-0.9881,0.0955,-0.2675,-0.0413,-0.0951,0.0182,0.0479,0.0362,3.0708,1.4804,2.8551
2024-10-11T14:20:15.709Z,0.0520,-0.9872,0.0859,-0.3131,-0.0763,-0.0818,0.0196,0.0421,0.0377,3.0584,1.4801,2.8688
2024-10-11T14:20:15.719Z,0.0429,-0.9891,0.0767,-0.3131,-0.0763,-0.0818,0.0179,0.0348,0.0397,3.0584,1.4801,2.8688
2024-10-11T14:20:15.730Z,0.0441,-0.9954,0.0830,-0.2057,-0.0050,0.0465,0.0186,0.0294,0.0379,3.0440,1.4799,2.8839
2024-10-11T14:20:15.739Z,0.0353,-0.9937,0.0809,-0.2057,-0.0050,0.0465,0.0185,0.0249,0.0390,3.0440,1.4799,2.8839
2024-10-11T14:20:15.748Z,0.0282,-0.9942,0.0781,-0.2057,-0.0050,0.0465,0.0175,0.0118,0.0391,3.0440,1.4799,2.8839
2024-10-11T14:20:15.760Z,0.0284,-0.9925,0.0824,-0.0634,-0.0332,0.0575,0.0143,0.0041,0.0389,3.0302,1.4797,2.8978
2024-10-11T14:20:15.769Z,0.0270,-0.9956,0.0848,-0.0634,-0.0332,0.0575,0.0135,0.0029,0.0374,3.0302,1.4797,2.8978
2024-10-11T14:20:15.779Z,0.0256,-1.0007,0.0809,-0.0634,-0.0332,0.0575,0.0108,0.0009,0.0378,3.0302,1.4797,2.8978
2024-10-11T14:20:15.788Z,0.0260,-1.0024,0.0751,-0.0634,-0.0332,0.0575,0.0093,-0.0014,0.0364,3.0302,1.4797,2.8978
2024-10-11T14:20:15.799Z,0.0279,-0.9990,0.0762,-0.0503,0.0642,0.1325,0.0099,-0.0055,0.0340,3.0174,1.4797,2.9102
2024-10-11T14:20:15.808Z,0.0323,-0.9953,0.0706,-0.0503,0.0642,0.1325,0.0066,-0.0061,0.0338,3.0174,1.4797,2.9102
2024-10-11T14:20:15.820Z,0.0303,-0.9945,0.0691,-0.1019,-0.0133,0.1932,0.0064,-0.0145,0.0317,3.0060,1.4797,2.9209
2024-10-11T14:20:15.829Z,0.0262,-0.9911,0.0736,-0.1019,-0.0133,0.1932,0.0065,-0.0177,0.0292,3.0060,1.4797,2.9209
2024-10-11T14:20:15.840Z,0.0309,-0.9852,0.0811,-0.1019,-0.0133,0.1932,0.0057,-0.0276,0.0275,3.0060,1.4797,2.9209
2024-10-11T14:20:15.851Z,0.0204,-0.9824,0.0820,-0.0123,-0.1324,0.0673,0.0024,-0.0391,0.0270,2.9967,1.4797,2.9289
2024-10-11T14:20:15.859Z,0.0236,-0.9786,0.0798,-0.0123,-0.1324,0.0673,0.0007,-0.0550,0.0240,2.9967,1.4797,2.9289
2024-10-11T14:20:15.869Z,0.0191,-0.9752,0.0761,-0.0123,-0.1324,0.0673,0.0018,-0.0643,0.0233,2.9967,1.4797,2.9289
2024-10-11T14:20:15.880Z,0.0160,-0.9749,0.0755,0.0261,-0.2054,0.1319,0.0000,-0.0746,0.0227,2.9889,1.4798,2.9344
2024-10-11T14:20:15.889Z,0.0169,-0.9769,0.0789,0.0261,-0.2054,0.1319,0.0027,-0.0899,0.0185,2.9889,1.4798,2.9344
2024-10-11T14:20:15.898Z,0.0153,-0.9806,0.0778,0.0261,-0.2054,0.1319,0.0057,-0.1011,0.0145,2.9889,1.4798,2.9344
2024-10-11T14:20:15.908Z,0.0211,-0.9828,0.0722,0.0261,-0.2054,0.1319,0.0142,-0.1142,0.0157,2.9889,1.4798,2.9344
2024-10-11T14:20:15.919Z,0.0245,-0.9743,0.0723,-0.0254,-0.1284,0.1655,0.0137,-0.1217,0.0154,2.9828,1.4797,2.9371
2024-10-11T14:20:15.929Z,0.0247,-0.9708,0.0791,-0.0254,-0.1284,0.1655,0.0146,-0.1264,0.0129,2.9828,1.4797,2.9371
2024-10-11T14:20:15.939Z,0.0259,-0.9657,0.0857,-0.0728,-0.2955,0.0361,0.0123,-0.1329,0.0130,2.9777,1.4794,2.9380
2024-10-11T14:20:15.949Z,0.0324,-0.9640,0.0864,-0.0728,-0.2955,0.0361,0.0132,-0.1410,0.0114,2.9777,1.4794,2.9380
2024-10-11T14:20:15.959Z,0.0333,-0.9621,0.0849,-0.0728,-0.2955,0.0361,0.0127,-0.1495,0.0132,2.9777,1.4794,2.9380
2024-10-11T14:20:15.970Z,0.0352,-0.9662,0.0743,-0.1643,-0.2900,0.1513,0.0195,-0.1559,0.0137,2.9720,1.4790,2.9390
2024-10-11T14:20:15.979Z,0.0358,-0.9707,0.0806,-0.1643,-0.2900,0.1513,0.0174,-0.1591,0.0166,2.9720,1.4790,2.9390
2024-10-11T14:20:15.989Z,0.0305,-0.9755,0.0783,-0.1643,-0.2900,0.1513,0.0189,-0.1630,0.0178,2.9720,1.4790,2.9390
2024-10-11T14:20:16.000Z,0.0275,-0.9782,0.0804,-0.0888,-0.1719,0.0963,0.0206,-0.1716,0.0151,2.9655,1.4786,2.9402
2024-10-11T14:20:16.009Z,0.0264,-0.9773,0.0840,-0.0888,-0.1719,0.0963,0.0193,-0.1811,0.0130,2.9655,1.4786,2.9402
2024-10-11T14:20:16.019Z,0.0199,-0.9829,0.0885,-0.0888,-0.1719,0.0963,0.0198,-0.1905,0.0146,2.9655,1.4786,2.9402
2024-10-11T14:20:16.029Z,0.0254,-0.9875,0.0847,-0.0674,-0.0806,0.0593,0.0179,-0.1964,0.0116,2.9596,1.4781,2.9401
2024-10-11T14:20:16.039Z,0.0253,-0.9905,0.0850,-0.0674,-0.0806,0.0593,0.0182,-0.1993,0.0110,2.9596,1.4781,2.9401
2024-10-11T14:20:16.049Z,0.0282,-0.9896,0.0851,-0.0674,-0.0806,0.0593,0.0167,-0.2022,0.0132,2.9596,1.4781,2.9401
2024-10-11T14:20:16.059Z,0.0384,-0.9899,0.0761,-0.1939,-0.0568,0.1479,0.0146,-0.2054,0.0147,2.9535,1.4776,2.9397
2024-10-11T14:20:16.069Z,0.0355,-0.9856,0.0786,-0.1939,-0.0568,0.1479,0.0147,-0.2068,0.0167,2.9535,1.4776,2.9397
2024-10-11T14:20:16.079Z,0.0298,-0.9864,0.0880,-0.1939,-0.0568,0.1479,0.0163,-0.2114,0.0186,2.9535,1.4776,2.9397
2024-10-11T14:20:16.089Z,0.0240,-0.9922,0.0925,-0.0514,-0.0341,-0.0099,0.0168,-0.2148,0.0195,2.9468,1.4773,2.9398
2024-10-11T14:20:16.099Z,0.0305,-0.9908,0.0917,-0.0514,-0.0341,-0.0099,0.0140,-0.2149,0.0188,2.9468,1.4773,2.9398
2024-10-11T14:20:16.109Z,0.0287,-0.9874,0.0945,-0.0514,-0.0341,-0.0099,0.0110,-0.2107,0.0196,2.9468,1.4773,2.9398
2024-10-11T14:20:16.119Z,0.0227,-0.9865,0.0949,-0.0393,-0.0895,-0.0313,0.0122,-0.2143,0.0216,2.9394,1.4770,2.9405
2024-10-11T14:20:16.129Z,0.0218,-0.9849,0.0921,-0.0393,-0.0895,-0.0313,0.0125,-0.2113,0.0202,2.9394,1.4770,2.9405
2024-10-11T14:20:16.139Z,0.0086,-0.9861,0.0847,-0.0393,-0.0895,-0.0313,0.0181,-0.2125,0.0180,2.9394,1.4770,2.9405
2024-10-11T14:20:16.150Z,0.0007,-0.9904,0.0767,0.1773,-0.0503,0.1517,0.0175,-0.2103,0.0180,2.9322,1.4767,2.9410
2024-10-11T14:20:16.159Z,-0.0010,-0.9902,0.0795,0.1773,-0.0503,0.1517,0.0209,-0.2093,0.0166,2.9322,1.4767,2.9410
2024-10-11T14:20:16.169Z,-0.0076,-0.9887,0.0791,0.1773,-0.0503,0.1517,0.0218,-0.2052,0.0135,2.9322,1.4767,2.9410
2024-10-11T14:20:16.179Z,-0.0064,-0.9889,0.0872,0.2486,-0.0649,0.0534,0.0237,-0.2046,0.0125,2.9267,1.4761,2.9401
2024-10-11T14:20:16.189Z,-0.0108,-0.9887,0.0959,0.2486,-0.0649,0.0534,0.0187,-0.1985,0.0083,2.9267,1.4761,2.9401
2024-10-11T14:20:16.199Z,-0.0119,-0.9882,0.1019,0.2486,-0.0649,0.0534,0.0173,-0.1950,0.0050,2.9267,1.4761,2.9401
2024-10-11T14:20:16.209Z,-0.0100,-0.9996,0.1033,0.2868,0.0401,-0.1003,0.0156,-0.1924,0.0048,2.9232,1.4756,2.9374
2024-10-11T14:20:16.219Z,-0.0130,-1.0171,0.0897,0.2868,0.0401,-0.1003,0.0210,-0.1847,0.0055,2.9232,1.4756,2.9374
2024-10-11T14:20:16.229Z,-0.0040,-1.0222,0.0843,0.2868,0.0401,-0.1003,0.0207,-0.1755,0.0031,2.9232,1.4756,2.9374
2024-10-11T14:20:16.239Z,-0.0011,-1.0253,0.0819,0.2039,0.2926,0.1139,0.0196,-0.1642,0.0013,2.9205,1.4751,2.9346
2024-10-11T14:20:16.250Z,-0.0051,-1.0246,0.0890,0.2039,0.2926,0.1139,0.0205,-0.1558,0.0031,2.9205,1.4751,2.9346
2024-10-11T14:20:16.259Z,-0.0105,-1.0196,0.0971,0.2039,0.2926,0.1139,0.0191,-0.1480,0.0015,2.9205,1.4751,2.9346
2024-10-11T14:20:16.269Z,-0.0197,-1.0195,0.1046,0.3904,0.2366,-0.1037,0.0184,-0.1389,-0.0018,2.9190,1.4745,2.9314
2024-10-11T14:20:16.279Z,-0.0253,-1.0240,0.1126,0.3904,0.2366,-0.1037,0.0144,-0.1320,-0.0053,2.9190,1.4745,2.9314
2024-10-11T14:20:16.290Z,-0.0296,-1.0237,0.1199,0.3904,0.2366,-0.1037,0.0112,-0.1280,-0.0081,2.9190,1.4745,2.9314
2024-10-11T14:20:16.300Z,-0.0352,-1.0244,0.1148,0.5482,0.2849,-0.2016,0.0085,-0.1175,-0.0139,2.9210,1.4741,2.9253
2024-10-11T14:20:16.308Z,-0.0332,-1.0291,0.1106,0.5482,0.2849,-0.2016,0.0055,-0.1094,-0.0146,2.9210,1.4741,2.9253
2024-10-11T14:20:16.319Z,-0.0338,-1.0274,0.1146,0.5482,0.2849,-0.2016,0.0041,-0.1066,-0.0200,2.9210,1.4741,2.9253
2024-10-11T14:20:16.329Z,-0.0320,-1.0231,0.1219,0.5264,0.2731,-0.2704,-0.0008,-0.0954,-0.0246,2.9271,1.4739,2.9160
2024-10-11T14:20:16.339Z,-0.0325,-1.0206,0.1211,0.5264,0.2731,-0.2704,-0.0026,-0.0900,-0.0286,2.9271,1.4739,2.9160
2024-10-11T14:20:16.349Z,-0.0213,-1.0191,0.1200,0.5264,0.2731,-0.2704,-0.0112,-0.0804,-0.0320,2.9271,1.4739,2.9160
2024-10-11T14:20:16.359Z,-0.0157,-1.0123,0.1276,0.3778,0.1664,-0.3302,-0.0185,-0.0694,-0.0332,2.9367,1.4740,2.9038
2024-10-11T14:20:16.369Z,-0.0044,-1.0122,0.1292,0.3778,0.1664,-0.3302,-0.0208,-0.0582,-0.0328,2.9367,1.4740,2.9038
2024-10-11T14:20:16.379Z,0.0017,-1.0163,0.1302,0.3778,0.1664,-0.3302,-0.0236,-0.0464,-0.0340,2.9367,1.4740,2.9038
2024-10-11T14:20:16.389Z,0.0056,-1.0167,0.1279,0.1794,0.2096,-0.3402,-0.0273,-0.0360,-0.0309,2.9480,1.4744,2.8909
2024-10-11T14:20:16.399Z,0.0039,-1.0175,0.1268,0.1794,0.2096,-0.3402,-0.0312,-0.0283,-0.0328,2.9480,1.4744,2.8909
2024-10-11T14:20:16.408Z,0.0010,-1.0214,0.1200,0.1794,0.2096,-0.3402,-0.0305,-0.0194,-0.0354,2.9480,1.4744,2.8909
2024-10-11T14:20:16.419Z,0.0055,-1.0195,0.1189,0.1898,0.2362,-0.2610,-0.0327,-0.0079,-0.0327,2.9597,1.4751,2.8785
2024-10-11T14:20:16.429Z,0.0046,-1.0168,0.1108,0.1898,0.2362,-0.2610,-0.0329,0.0012,-0.0335,2.9597,1.4751,2.8785
2024-10-11T14:20:16.438Z,0.0043,-1.0238,0.0995,0.1898,0.2362,-0.2610,-0.0337,0.0091,-0.0327,2.9597,1.4751,2.8785
2024-10-11T14:20:16.450Z,0.0053,-1.0222,0.0991,0.2006,0.2617,-0.0766,-0.0375,0.0168,-0.0348,2.9722,1.4758,2.8661
2024-10-11T14:20:16.458Z,0.0050,-1.0164,0.1070,0.2006,0.2617,-0.0766,-0.0392,0.0199,-0.0329,2.9722,1.4758,2.8661
2024-10-11T14:20:16.469Z,0.0080,-1.0164,0.0981,0.2006,0.2617,-0.0766,-0.0447,0.0266,-0.0325,2.9722,1.4758,2.8661
2024-10-11T14:20:16.480Z,0.0142,-1.0213,0.0899,0.1215,0.2526,0.0011,-0.0448,0.0336,-0.0290,2.9848,1.4768,2.8542
2024-10-11T14:20:16.489Z,0.0272,-1.0192,0.0808,0.1215,0.2526,0.0011,-0.0453,0.0467,-0.0256,2.9848,1.4768,2.8542
2024-10-11T14:20:16.499Z,0.0251,-1.0179,0.0749,0.1215,0.2526,0.0011,-0.0440,0.0579,-0.0233,2.9848,1.4768,2.8542
2024-10-11T14:20:16.508Z,0.0263,-1.0139,0.0781,0.0080,0.1786,0.1039,-0.0461,0.0726,-0.0241,2.9956,1.4779,2.8450
2024-10-11T14:20:16.519Z,0.0287,-1.0127,0.0770,0.0080,0.1786,0.1039,-0.0466,0.0804,-0.0197,2.9956,1.4779,2.8450
2024-10-11T14:20:16.529Z,0.0325,-1.0146,0.0776,0.0080,0.1786,0.1039,-0.0446,0.0896,-0.0136,2.9956,1.4779,2.8450
2024-10-11T14:20:16.539Z,0.0303,-1.0143,0.0729,-0.0302,0.1815,0.1422,-0.0431,0.0999,-0.0097,3.0034,1.4791,2.8398
2024-10-11T14:20:16.549Z,0.0310,-1.0119,0.0700,-0.0302,0.1815,0.1422,-0.0440,0.1101,-0.0059,3.0034,1.4791,2.8398
2024-10-11T14:20:16.559Z,0.0308,-1.0081,0.0688,-0.0302,0.1815,0.1422,-0.0450,0.1228,-0.0056,3.0034,1.4791,2.8398
2024-10-11T14:20:16.569Z,0.0270,-1.0021,0.0632,-0.0003,0.0611,0.2260,-0.0446,0.1288,-0.0027,3.0084,1.4803,2.8381
2024-10-11T14:20:16.579Z,0.0189,-0.9949,0.0656,-0.0003,0.0611,0.2260,-0.0399,0.1380,-0.0009,3.0084,1.4803,2.8381
2024-10-11T14:20:16.589Z,0.0243,-0.9922,0.0577,-0.0003,0.0611,0.2260,-0.0351,0.1449,0.0013,3.0084,1.4803,2.8381
2024-10-11T14:20:16.599Z,0.0249,-0.9889,0.0544,0.0168,-0.0700,0.3027,-0.0338,0.1540,0.0008,3.0113,1.4813,2.8394
2024-10-11T14:20:16.608Z,0.0165,-0.9847,0.0595,0.0168,-0.0700,0.3027,-0.0311,0.1610,0.0025,3.0113,1.4813,2.8394
2024-10-11T14:20:16.619Z,0.0224,-0.9799,0.0592,0.0168,-0.0700,0.3027,-0.0281,0.1724,0.0043,3.0113,1.4813,2.8394
2024-10-11T14:20:16.629Z,0.0288,-0.9796,0.0598,-0.0279,-0.1615,0.2434,-0.0246,0.1778,0.0047,3.0120,1.4822,2.8437
2024-10-11T14:20:16.639Z,0.0333,-0.9760,0.0597,-0.0279,-0.1615,0.2434,-0.0197,0.1900,0.0090,3.0120,1.4822,2.8437
2024-10-11T14:20:16.649Z,0.0311,-0.9744,0.0567,-0.0279,-0.1615,0.2434,-0.0159,0.1957,0.0111,3.0120,1.4822,2.8437
2024-10-11T14:20:16.659Z,0.0345,-0.9716,0.0597,-0.0920,-0.2406,0.2404,-0.0155,0.2034,0.0136,3.0095,1.4828,2.8520
2024-10-11T14:20:16.668Z,0.0348,-0.9645,0.0591,-0.0920,-0.2406,0.2404,-0.0153,0.2108,0.0155,3.0095,1.4828,2.8520
2024-10-11T14:20:16.679Z,0.0354,-0.9620,0.0575,-0.0920,-0.2406,0.2404,-0.0097,0.2122,0.0181,3.0095,1.4828,2.8520
2024-10-11T14:20:16.689Z,0.0240,-0.9641,0.0548,0.0000,-0.3142,0.2876,-0.0077,0.2163,0.0180,3.0039,1.4832,2.8637
2024-10-11T14:20:16.700Z,0.0170,-0.9686,0.0624,0.0000,-0.3142,0.2876,0.0003,0.2144,0.0166,3.0039,1.4832,2.8637
2024-10-11T14:20:16.709Z,0.0109,-0.9755,0.0741,0.0000,-0.3142,0.2876,0.0014,0.2154,0.0138,3.0039,1.4832,2.8637
2024-10-11T14:20:16.719Z,0.0047,-0.9824,0.0724,0.1796,-0.1352,0.1170,0.0054,0.2140,0.0142,2.9986,1.4833,2.8752
2024-10-11T14:20:16.730Z,0.0118,-0.9840,0.0779,0.1796,-0.1352,0.1170,0.0034,0.2168,0.0118,2.9986,1.4833,2.8752
2024-10-11T14:20:16.739Z,0.0178,-0.9803,0.0843,0.1796,-0.1352,0.1170,0.0027,0.2180,0.0107,2.9986,1.4833,2.8752
2024-10-11T14:20:16.749Z,0.0227,-0.9769,0.0886,-0.0048,-0.1895,-0.0396,-0.0001,0.2168,0.0093,2.9949,1.4833,2.8850
2024-10-11T14:20:16.759Z,0.0173,-0.9734,0.0975,-0.0048,-0.1895,-0.0396,-0.0033,0.2154,0.0088,2.9949,1.4833,2.8850
2024-10-11T14:20:16.769Z,0.0126,-0.9763,0.0985,-0.0048,-0.1895,-0.0396,-0.0016,0.2150,0.0037,2.9949,1.4833,2.8850
2024-10-11T14:20:16.778Z,0.0254,-0.9758,0.0976,-0.0391,-0.2001,-0.1274,-0.0034,0.2157,0.0037,2.9929,1.4834,2.8933
2024-10-11T14:20:16.789Z,0.0219,-0.9810,0.0911,-0.0391,-0.2001,-0.1274,-0.0064,0.2129,0.0049,2.9929,1.4834,2.8933
2024-10-11T14:20:16.799Z,0.0294,-0.9773,0.0987,-0.0391,-0.2001,-0.1274,-0.0070,0.2097,0.0063,2.9929,1.4834,2.8933
2024-10-11T14:20:16.809Z,0.0263,-0.9759,0.1035,-0.0545,-0.1988,-0.1861,-0.0119,0.2091,0.0030,2.9917,1.4836,2.9006
2024-10-11T14:20:16.819Z,0.0276,-0.9775,0.1093,-0.0545,-0.1988,-0.1861,-0.0108,0.2037,0.0043,2.9917,1.4836,2.9006
2024-10-11T14:20:16.829Z,0.0350,-0.9814,0.1053,-0.0545,-0.1988,-0.1861,-0.0118,0.2030,0.0014,2.9917,1.4836,2.9006
2024-10-11T14:20:16.838Z,0.0359,-0.9814,0.0964,-0.1540,-0.1451,-0.1188,-0.0139,0.1976,0.0032,2.9913,1.4840,2.9069
2024-10-11T14:20:16.849Z,0.0367,-0.9831,0.0926,-0.1540,-0.1451,-0.1188,-0.0146,0.1930,0.0030,2.9913,1.4840,2.9069
2024-10-11T14:20:16.859Z,0.0299,-0.9858,0.0870,-0.1540,-0.1451,-0.1188,-0.0112,0.1874,-0.0001,2.9913,1.4840,2.9069
2024-10-11T14:20:16.868Z,0.0276,-0.9915,0.0752,-0.0779,-0.0470,0.0867,-0.0117,0.1838,-0.0014,2.9920,1.4843,2.9115
2024-10-11T14:20:16.879Z,0.0344,-0.9955,0.0653,-0.0779,-0.0470,0.0867,-0.0121,0.1763,-0.0028,2.9920,1.4843,2.9115
2024-10-11T14:20:16.889Z,0.0335,-0.9952,0.0755,-0.0779,-0.0470,0.0867,-0.0097,0.1730,-0.0032,2.9920,1.4843,2.9115
2024-10-11T14:20:16.899Z,0.0410,-0.9980,0.0782,-0.2126,0.0167,0.0556,-0.0103,0.1635,-0.0028,2.9938,1.4846,2.9145
2024-10-11T14:20:16.909Z,0.0484,-0.9967,0.0831,-0.2126,0.0167,0.0556,-0.0113,0.1574,-0.0006,2.9938,1.4846,2.9145
2024-10-11T14:20:16.919Z,0.0565,-0.9905,0.0840,-0.2126,0.0167,0.0556,-0.0129,0.1481,0.0035,2.9938,1.4846,2.9145
2024-10-11T14:20:16.929Z,0.0627,-0.9847,0.0827,-0.4295,-0.1144,0.0071,-0.0187,0.1462,0.0055,2.9939,1.4851,2.9188
2024-10-11T14:20:16.939Z,0.0583,-0.9866,0.0802,-0.4295,-0.1144,0.0071,-0.0227,0.1461,0.0087,2.9939,1.4851,2.9188
2024-10-11T14:20:16.950Z,0.0610,-0.9929,0.0824,-0.4295,-0.1144,0.0071,-0.0169,0.1398,0.0127,2.9939,1.4851,2.9188
2024-10-11T14:20:16.959Z,0.0552,-0.9966,0.0862,-0.3622,0.0016,-0.0320,-0.0206,0.1301,0.0129,2.9915,1.4858,2.9251
2024-10-11T14:20:16.969Z,0.0436,-0.9964,0.0860,-0.3622,0.0016,-0.0320,-0.0189,0.1218,0.0136,2.9915,1.4858,2.9251
2024-10-11T14:20:16.979Z,0.0449,-0.9939,0.0906,-0.3622,0.0016,-0.0320,-0.0223,0.1163,0.0112,2.9915,1.4858,2.9251
2024-10-11T14:20:16.989Z,0.0448,-0.9918,0.0912,-0.2668,-0.0459,-0.0877,-0.0242,0.1124,0.0137,2.9887,1.4865,2.9312
2024-10-11T14:20:16.999Z,0.0408,-0.9934,0.0914,-0.2668,-0.0459,-0.0877,-0.0274,0.1079,0.0096,2.9887,1.4865,2.9312
2024-10-11T14:20:17.009Z,0.0266,-0.9947,0.0881,-0.2668,-0.0459,-0.0877,-0.0241,0.0984,0.0060,2.9887,1.4865,2.9312
2024-10-11T14:20:17.019Z,0.0308,-0.9973,0.0880,-0.1347,0.0078,-0.0625,-0.0246,0.0879,0.0061,2.9875,1.4873,2.9350
2024-10-11T14:20:17.029Z,0.0304,-0.9963,0.0818,-0.1347,0.0078,-0.0625,-0.0221,0.0791,0.0053,2.9875,1.4873,2.9350
2024-10-11T14:20:17.039Z,0.0285,-0.9941,0.0797,-0.1347,0.0078,-0.0625,-0.0217,0.0748,0.0020,2.9875,1.4873,2.9350
2024-10-11T14:20:17.049Z,0.0379,-0.9912,0.0833,-0.2074,-0.0524,-0.0219,-0.0213,0.0740,0.0037,2.9874,1.4880,2.9372
2024-10-11T14:20:17.059Z,0.0368,-0.9908,0.0869,-0.2074,-0.0524,-0.0219,-0.0210,0.0693,0.0048,2.9874,1.4880,2.9372
2024-10-11T14:20:17.069Z,0.0308,-0.9909,0.0842,-0.2074,-0.0524,-0.0219,-0.0186,0.0654,0.0043,2.9874,1.4880,2.9372
2024-10-11T14:20:17.079Z,0.0352,-0.9931,0.0775,-0.1832,-0.0350,0.0287,-0.0198,0.0664,0.0040,2.9874,1.4886,2.9389
2024-10-11T14:20:17.089Z,0.0351,-0.9912,0.0884,-0.1832,-0.0350,0.0287,-0.0199,0.0623,0.0028,2.9874,1.4886,2.9389
2024-10-11T14:20:17.099Z,0.0379,-0.9893,0.0893,-0.1832,-0.0350,0.0287,-0.0253,0.0610,0.0042,2.9874,1.4886,2.9389
2024-10-11T14:20:17.109Z,0.0343,-0.9892,0.0799,-0.1766,-0.0731,-0.0012,-0.0206,0.0575,0.0056,2.9876,1.4893,2.9403
2024-10-11T14:20:17.119Z,0.0262,-0.9986,0.0710,-0.1766,-0.0731,-0.0012,-0.0193,0.0506,-0.0002,2.9876,1.4893,2.9403
2024-10-11T14:20:17.129Z,0.0217,-1.0027,0.0659,-0.1766,-0.0731,-0.0012,-0.0162,0.0524,0.0014,2.9876,1.4893,2.9403
2024-10-11T14:20:17.139Z,0.0132,-1.0025,0.0619,0.0295,0.0567,0.1713,-0.0113,0.0495,-0.0049,2.9888,1.4897,2.9404
2024-10-11T14:20:17.151Z,0.0057,-1.0041,0.0617,0.0295,0.0567,0.1713,-0.0108,0.0499,-0.0039,2.9888,1.4897,2.9404
2024-10-11T14:20:17.159Z,0.0083,-0.9983,0.0721,0.0295,0.0567,0.1713,-0.0048,0.0461,-0.0090,2.9888,1.4897,2.9404
2024-10-11T14:20:17.170Z,0.0062,-0.9893,0.0765,0.0992,-0.0728,0.0272,-0.0057,0.0451,-0.0111,2.9922,1.4898,2.9381
2024-10-11T14:20:17.179Z,0.0036,-0.9830,0.0782,0.0992,-0.0728,0.0272,-0.0058,0.0431,-0.0134,2.9922,1.4898,2.9381
2024-10-11T14:20:17.189Z,0.0035,-0.9774,0.0853,0.0992,-0.0728,0.0272,-0.0071,0.0485,-0.0145,2.9922,1.4898,2.9381
2024-10-11T14:20:17.199Z,0.0090,-0.9799,0.0825,0.0750,-0.1652,-0.0336,-0.0077,0.0515,-0.0158,2.9979,1.4899,2.9336
2024-10-11T14:20:17.209Z,0.0105,-0.9872,0.0709,0.0750,-0.1652,-0.0336,-0.0038,0.0534,-0.0179,2.9979,1.4899,2.9336
2024-10-11T14:20:17.219Z,0.0067,-0.9960,0.0708,0.0750,-0.1652,-0.0336,-0.0008,0.0502,-0.0186,2.9979,1.4899,2.9336
2024-10-11T14:20:17.229Z,0.0101,-0.9969,0.0775,0.0695,0.0013,0.0151,-0.0016,0.0513,-0.0193,3.0050,1.4899,2.9277
2024-10-11T14:20:17.239Z,0.0131,-0.9984,0.0816,0.0695,0.0013,0.0151,-0.0040,0.0517,-0.0236,3.0050,1.4899,2.9277
2024-10-11T14:20:17.249Z,0.0099,-1.0010,0.0820,0.0695,0.0013,0.0151,-0.0024,0.0519,-0.0232,3.0050,1.4899,2.9277
2024-10-11T14:20:17.259Z,0.0040,-0.9990,0.0841,0.1348,0.0220,-0.0511,-0.0041,0.0501,-0.0250,3.0134,1.4898,2.9205
2024-10-11T14:20:17.268Z,0.0021,-0.9948,0.0837,0.1348,0.0220,-0.0511,-0.0049,0.0477,-0.0292,3.0134,1.4898,2.9205
2024-10-11T14:20:17.279Z,0.0059,-0.9942,0.0706,0.1348,0.0220,-0.0511,-0.0051,0.0455,-0.0308,3.0134,1.4898,2.9205
2024-10-11T14:20:17.289Z,0.0063,-0.9942,0.0648,0.1194,-0.0244,0.1379,-0.0019,0.0474,-0.0314,3.0235,1.4897,2.9115
2024-10-11T14:20:17.299Z,0.0058,-0.9920,0.0608,0.1194,-0.0244,0.1379,-0.0011,0.0461,-0.0309,3.0235,1.4897,2.9115
2024-10-11T14:20:17.309Z,0.0049,-0.9945,0.0569,0.1194,-0.0244,0.1379,0.0017,0.0456,-0.0343,3.0235,1.4897,2.9115
2024-10-11T14:20:17.319Z,0.0109,-0.9964,0.0544,0.0829,-0.0032,0.2402,0.0035,0.0438,-0.0340,3.0350,1.4895,2.9012
2024-10-11T14:20:17.329Z,0.0161,-0.9999,0.0593,0.0829,-0.0032,0.2402,0.0017,0.0470,-0.0341,3.0350,1.4895,2.9012
2024-10-11T14:20:17.339Z,0.0166,-1.0082,0.0629,0.0829,-0.0032,0.2402,0.0015,0.0532,-0.0363,3.0350,1.4895,2.9012
2024-10-11T14:20:17.350Z,0.0264,-1.0152,0.0615,-0.0605,0.1817,0.1728,0.0047,0.0569,-0.0326,3.0463,1.4891,2.8912
2024-10-11T14:20:17.359Z,0.0293,-1.0181,0.0673,-0.0605,0.1817,0.1728,0.0075,0.0596,-0.0345,3.0463,1.4891,2.8912
2024-10-11T14:20:17.369Z,0.0221,-1.0160,0.0710,-0.0605,0.1817,0.1728,0.0076,0.0574,-0.0327,3.0463,1.4891,2.8912
2024-10-11T14:20:17.379Z,0.0122,-1.0154,0.0756,0.0877,0.1840,0.0364,0.0062,0.0546,-0.0352,3.0574,1.4886,2.8816
2024-10-11T14:20:17.390Z,0.0073,-1.0115,0.0829,0.0877,0.1840,0.0364,0.0056,0.0575,-0.0365,3.0574,1.4886,2.8816
2024-10-11T14:20:17.401Z,0.0086,-1.0098,0.0898,0.0877,0.1840,0.0364,0.0030,0.0570,-0.0410,3.0574,1.4886,2.8816
2024-10-11T14:20:17.409Z,0.0102,-1.0117,0.0903,0.1167,0.1487,-0.1059,0.0025,0.0554,-0.0406,3.0704,1.4882,2.8700
2024-10-11T14:20:17.419Z,0.0120,-1.0159,0.0983,0.1167,0.1487,-0.1059,-0.0011,0.0544,-0.0418,3.0704,1.4882,2.8700
2024-10-11T14:20:17.429Z,0.0132,-1.0196,0.1005,0.1167,0.1487,-0.1059,0.0028,0.0565,-0.0423,3.0704,1.4882,2.8700
2024-10-11T14:20:17.439Z,0.0106,-1.0233,0.1007,0.1242,0.2626,-0.2076,-0.0009,0.0574,-0.0425,3.0842,1.4878,2.8577
2024-10-11T14:20:17.450Z,0.0180,-1.0205,0.0993,0.1242,0.2626,-0.2076,0.0010,0.0617,-0.0405,3.0842,1.4878,2.8577
2024-10-11T14:20:17.459Z,0.0141,-1.0164,0.1050,0.1242,0.2626,-0.2076,-0.0006,0.0667,-0.0425,3.0842,1.4878,2.8577
2024-10-11T14:20:17.469Z,0.0086,-1.0169,0.1051,0.1549,0.1997,-0.2511,-0.0037,0.0693,-0.0450,3.0994,1.4875,2.8442
2024-10-11T14:20:17.479Z,0.0122,-1.0165,0.1084,0.1549,0.1997,-0.2511,-0.0076,0.0718,-0.0461,3.0994,1.4875,2.8442
2024-10-11T14:20:17.489Z,0.0112,-1.0181,0.1118,0.1549,0.1997,-0.2511,-0.0076,0.0727,-0.0480,3.0994,1.4875,2.8442
2024-10-11T14:20:17.500Z,0.0161,-1.0216,0.1055,0.0935,0.2460,-0.2564,-0.0097,0.0761,-0.0479,3.1160,1.4873,2.8296
2024-10-11T14:20:17.509Z,0.0218,-1.0250,0.1025,0.0935,0.2460,-0.2564,-0.0119,0.0788,-0.0470,3.1160,1.4873,2.8296
2024-10-11T14:20:17.519Z,0.0264,-1.0246,0.1048,0.0935,0.2460,-0.2564,-0.0128,0.0818,-0.0455,3.1160,1.4873,2.8296
2024-10-11T14:20:17.529Z,0.0280,-1.0248,0.1056,-0.0116,0.2778,-0.2596,-0.0138,0.0854,-0.0459,3.1326,1.4872,2.8153
2024-10-11T14:20:17.539Z,0.0290,-1.0208,0.1005,-0.0116,0.2778,-0.2596,-0.0149,0.0856,-0.0433,3.1326,1.4872,2.8153
2024-10-11T14:20:17.550Z,0.0307,-1.0122,0.0973,-0.0116,0.2778,-0.2596,-0.0143,0.0831,-0.0423,3.1326,1.4872,2.8153
2024-10-11T14:20:17.558Z,0.0253,-1.0062,0.0875,0.0250,0.0949,-0.0859,-0.0123,0.0832,-0.0426,-3.1342,1.4872,2.8011
2024-10-11T14:20:17.569Z,0.0226,-1.0018,0.0813,0.0250,0.0949,-0.0859,-0.0152,0.0819,-0.0453,-3.1342,1.4872,2.8011
2024-10-11T14:20:17.579Z,0.0257,-1.0010,0.0810,0.0250,0.0949,-0.0859,-0.0151,0.0847,-0.0458,-3.1342,1.4872,2.8011
2024-10-11T14:20:17.589Z,0.0282,-1.0023,0.0710,0.0080,0.0571,0.0724,-0.0103,0.0832,-0.0447,-3.1175,1.4871,2.7868
2024-10-11T14:20:17.601Z,0.0352,-1.0058,0.0687,0.0080,0.0571,0.0724,-0.0103,0.0857,-0.0431,-3.1175,1.4871,2.7868
2024-10-11T14:20:17.610Z,0.0381,-1.0094,0.0774,0.0080,0.0571,0.0724,-0.0107,0.0892,-0.0387,-3.1175,1.4871,2.7868
2024-10-11T14:20:17.618Z,0.0398,-1.0079,0.0877,-0.0959,0.1120,-0.0929,-0.0083,0.0871,-0.0374,-3.1033,1.4869,2.7749
2024-10-11T14:20:17.629Z,0.0463,-1.0112,0.0821,-0.0959,0.1120,-0.0929,-0.0081,0.0889,-0.0328,-3.1033,1.4869,2.7749
2024-10-11T14:20:17.639Z,0.0424,-1.0124,0.0731,-0.0959,0.1120,-0.0929,-0.0051,0.0890,-0.0318,-3.1033,1.4869,2.7749
2024-10-11T14:20:17.650Z,0.0414,-1.0130,0.0765,-0.1050,0.1623,0.0158,-0.0025,0.0912,-0.0277,-3.0928,1.4867,2.7669
2024-10-11T14:20:17.659Z,0.0414,-1.0090,0.0864,-0.1050,0.1623,0.0158,-0.0066,0.0951,-0.0280,-3.0928,1.4867,2.7669
2024-10-11T14:20:17.669Z,0.0380,-1.0042,0.0925,-0.1050,0.1623,0.0158,-0.0040,0.0974,-0.0248,-3.0928,1.4867,2.7669
2024-10-11T14:20:17.679Z,0.0362,-1.0004,0.0990,-0.0488,0.0389,-0.2053,-0.0079,0.0964,-0.0245,-3.0843,1.4866,2.7609
2024-10-11T14:20:17.689Z,0.0329,-1.0027,0.0961,-0.0488,0.0389,-0.2053,-0.0079,0.0992,-0.0223,-3.0843,1.4866,2.7609
2024-10-11T14:20:17.700Z,0.0402,-1.0063,0.0861,-0.0488,0.0389,-0.2053,-0.0069,0.0986,-0.0180,-3.0843,1.4866,2.7609
2024-10-11T14:20:17.709Z,0.0403,-1.0085,0.0801,-0.0853,0.1180,-0.0212,-0.0048,0.0980,-0.0200,-3.0773,1.4866,2.7567
2024-10-11T14:20:17.718Z,0.0442,-1.0129,0.0786,-0.0853,0.1180,-0.0212,-0.0014,0.0974,-0.0152,-3.0773,1.4866,2.7567
2024-10-11T14:20:17.729Z,0.0491,-1.0143,0.0784,-0.0853,0.1180,-0.0212,0.0011,0.1013,-0.0112,-3.0773,1.4866,2.7567
2024-10-11T14:20:17.739Z,0.0536,-1.0149,0.0748,-0.2146,0.1813,0.0321,0.0052,0.1036,-0.0101,-3.0735,1.4864,2.7558
2024-10-11T14:20:17.752Z,0.0490,-1.0171,0.0717,-0.2146,0.1813,0.0321,0.0112,0.1066,-0.0037,-3.0735,1.4864,2.7558
2024-10-11T14:20:17.759Z,0.0520,-1.0185,0.0729,-0.2146,0.1813,0.0321,0.0112,0.1066,-0.0037,-3.0735,1.4864,2.7558
2024-10-11T14:20:17.769Z,0.0595,-1.0150,0.0759,-0.2739,0.1822,0.0253,0.0114,0.1096,0.0015,-3.0742,1.4861,2.7594
2024-10-11T14:20:17.780Z,0.0636,-1.0150,0.0809,-0.2739,0.1822,0.0253,0.0097,0.1067,0.0077,-3.0742,1.4861,2.7594
2024-10-11T14:20:17.789Z,0.0622,-1.0137,0.0824,-0.2739,0.1822,0.0253,0.0074,0.1108,0.0136,-3.0742,1.4861,2.7594
2024-10-11T14:20:17.801Z,0.0561,-1.0184,0.0809,-0.2458,0.2157,-0.0191,0.0074,0.1075,0.0127,-3.0786,1.4859,2.7668
2024-10-11T14:20:17.809Z,0.0548,-1.0239,0.0909,-0.2458,0.2157,-0.0191,0.0074,0.1075,0.0127,-3.0786,1.4859,2.7668
2024-10-11T14:20:17.820Z,0.0532,-1.0282,0.0963,-0.2458,0.2157,-0.0191,0.0052,0.1005,0.0148,-3.0786,1.4859,2.7668
2024-10-11T14:20:17.830Z,0.0464,-1.0254,0.0922,-0.1577,0.2849,-0.1276,0.0029,0.0990,0.0169,-3.0845,1.4859,2.7755
2024-10-11T14:20:17.840Z,0.0418,-1.0227,0.0869,-0.1577,0.2849,-0.1276,0.0020,0.0946,0.0182,-3.0845,1.4859,2.7755
2024-10-11T14:20:17.850Z,0.0485,-1.0260,0.0934,-0.1577,0.2849,-0.1276,-0.0004,0.0890,0.0189,-3.0845,1.4859,2.7755
2024-10-11T14:20:17.859Z,0.0423,-1.0264,0.0997,-0.1243,0.2941,-0.2000,-0.0043,0.0869,0.0172,-3.0907,1.4860,2.7841
2024-10-11T14:20:17.870Z,0.0424,-1.0271,0.1048,-0.1243,0.2941,-0.2000,-0.0050,0.0791,0.0191,-3.0907,1.4860,2.7841
2024-10-11T14:20:17.880Z,0.0478,-1.0246,0.1022,-0.1243,0.2941,-0.2000,-0.0062,0.0758,0.0187,-3.0907,1.4860,2.7841
2024-10-11T14:20:17.890Z,0.0440,-1.0249,0.1015,-0.1484,0.2795,-0.2186,-0.0117,0.0686,0.0195,-3.0965,1.4864,2.7919
2024-10-11T14:20:17.900Z,0.0359,-1.0198,0.0991,-0.1484,0.2795,-0.2186,-0.0161,0.0659,0.0159,-3.0965,1.4864,2.7919
2024-10-11T14:20:17.910Z,0.0374,-1.0195,0.1001,-0.1484,0.2795,-0.2186,-0.0161,0.0575,0.0149,-3.0965,1.4864,2.7919
2024-10-11T14:20:17.918Z,0.0331,-1.0158,0.1023,-0.0472,0.1896,-0.2294,-0.0161,0.0575,0.0149,-3.1004,1.4869,2.7974
2024-10-11T14:20:17.929Z,0.0279,-1.0176,0.1010,-0.0472,0.1896,-0.2294,-0.0178,0.0462,0.0127,-3.1004,1.4869,2.7974
2024-10-11T14:20:17.940Z,0.0235,-1.0195,0.0925,-0.0472,0.1896,-0.2294,-0.0198,0.0392,0.0069,-3.1004,1.4869,2.7974
2024-10-11T14:20:17.949Z,0.0347,-1.0202,0.0849,-0.0666,0.2321,-0.0642,-0.0196,0.0372,0.0085,-3.1016,1.4875,2.7997
2024-10-11T14:20:17.959Z,0.0289,-1.0162,0.0819,-0.0666,0.2321,-0.0642,-0.0159,0.0343,0.0065,-3.1016,1.4875,2.7997
2024-10-11T14:20:17.970Z,0.0306,-1.0075,0.0649,-0.0666,0.2321,-0.0642,-0.0159,0.0343,0.0065,-3.1016,1.4875,2.7997
2024-10-11T14:20:17.979Z,0.0306,-1.0075,0.0649,-0.0292,0.1071,0.1285,-0.0093,0.0214,0.0031,-3.1023,1.4880,2.8010
2024-10-11T14:20:17.989Z,0.0242,-1.0050,0.0569,-0.0292,0.1071,0.1285,-0.0082,0.0190,0.0039,-3.1023,1.4880,2.8010
2024-10-11T14:20:18.000Z,0.0229,-1.0023,0.0602,-0.0292,0.1071,0.1285,-0.0049,0.0167,-0.0004,-3.1023,1.4880,2.8010
2024-10-11T14:20:18.009Z,0.0260,-1.0028,0.0593,0.0151,0.0610,0.1819,-0.0025,0.0156,0.0021,-3.1026,1.4882,2.8016
2024-10-11T14:20:18.019Z,0.0314,-1.0074,0.0558,0.0151,0.0610,0.1819,-0.0025,0.0156,0.0021,-3.1026,1.4882,2.8016
2024-10-11T14:20:18.030Z,0.0353,-1.0021,0.0665,0.0151,0.0610,0.1819,0.0005,0.0101,-0.0025,-3.1026,1.4882,2.8016
2024-10-11T14:20:18.039Z,0.0265,-0.9985,0.0737,0.0098,0.0185,0.0406,-0.0023,0.0129,-0.0029,-3.1029,1.4882,2.8020
2024-10-11T14:20:18.049Z,0.0190,-0.9980,0.0844,0.0098,0.0185,0.0406,-0.0028,0.0099,-0.0030,-3.1029,1.4882,2.8020
2024-10-11T14:20:18.059Z,0.0185,-0.9986,0.0898,0.0098,0.0185,0.0406,-0.0031,0.0140,-0.0055,-3.1029,1.4882,2.8020
2024-10-11T14:20:18.068Z,0.0188,-0.9987,0.0872,0.0860,0.0210,-0.0932,-0.0031,0.0140,-0.0055,-3.1013,1.4882,2.8004
2024-10-11T14:20:18.079Z,0.0140,-0.9985,0.0790,0.0860,0.0210,-0.0932,0.0037,0.0120,-0.0068,-3.1013,1.4882,2.8004
2024-10-11T14:20:18.089Z,0.0196,-1.0028,0.0812,0.0860,0.0210,-0.0932,0.0022,0.0146,-0.0065,-3.1013,1.4882,2.8004
2024-10-11T14:20:18.099Z,0.0256,-1.0039,0.0859,0.0215,0.0715,-0.0798,0.0008,0.0180,-0.0088,-3.0994,1.4881,2.7986
2024-10-11T14:20:18.109Z,0.0220,-1.0069,0.0939,0.0215,0.0715,-0.0798,-0.0025,0.0194,-0.0111,-3.0994,1.4881,2.7986
2024-10-11T14:20:18.119Z,0.0164,-1.0135,0.1017,0.0215,0.0715,-0.0798,-0.0040,0.0259,-0.0102,-3.0994,1.4881,2.7986
2024-10-11T14:20:18.129Z,0.0149,-1.0185,0.1017,0.1284,0.2153,-0.2343,-0.0068,0.0256,-0.0083,-3.0967,1.4880,2.7962
2024-10-11T14:20:18.139Z,0.0152,-1.0173,0.0974,0.1284,0.2153,-0.2343,-0.0091,0.0281,-0.0113,-3.0967,1.4880,2.7962
2024-10-11T14:20:18.150Z,0.0169,-1.0094,0.0975,0.1284,0.2153,-0.2343,-0.0099,0.0313,-0.0105,-3.0967,1.4880,2.7962
2024-10-11T14:20:18.159Z,0.0169,-1.0094,0.0975,0.1115,0.1259,-0.1948,-0.0121,0.0358,-0.0128,-3.0926,1.4881,2.7927
2024-10-11T14:20:18.169Z,0.0198,-1.0097,0.0910,0.1115,0.1259,-0.1948,-0.0073,0.0327,-0.0116,-3.0926,1.4881,2.7927
2024-10-11T14:20:18.179Z,0.0190,-1.0124,0.0897,0.1115,0.1259,-0.1948,-0.0107,0.0355,-0.0133,-3.0926,1.4881,2.7927
2024-10-11T14:20:18.189Z,0.0214,-1.0125,0.0900,0.0688,0.1817,-0.0723,-0.0122,0.0383,-0.0125,-3.0877,1.4882,2.7887
2024-10-11T14:20:18.199Z,0.0262,-1.0082,0.0942,0.0688,0.1817,-0.0723,-0.0122,0.0408,-0.0121,-3.0877,1.4882,2.7887
2024-10-11T14:20:18.210Z,0.0312,-1.0022,0.0896,0.0688,0.1817,-0.0723,-0.0150,0.0449,-0.0108,-3.0877,1.4882,2.7887
2024-10-11T14:20:18.219Z,0.0312,-1.0022,0.0896,-0.0245,0.0544,-0.1232,-0.0150,0.0449,-0.0108,-3.0831,1.4884,2.7851
2024-10-11T14:20:18.229Z,0.0303,-0.9986,0.0867,-0.0245,0.0544,-0.1232,-0.0161,0.0419,-0.0100,-3.0831,1.4884,2.7851
2024-10-11T14:20:18.240Z,0.0303,-0.9986,0.0867,-0.0245,0.0544,-0.1232,-0.0135,0.0378,-0.0090,-3.0831,1.4884,2.7851
2024-10-11T14:20:18.249Z,0.0290,-0.9972,0.0773,-0.0015,0.0056,-0.0051,-0.0103,0.0401,-0.0061,-3.0791,1.4887,2.7821
2024-10-11T14:20:18.260Z,0.0310,-0.9887,0.0598,-0.0015,0.0056,-0.0051,-0.0101,0.0383,-0.0077,-3.0791,1.4887,2.7821
2024-10-11T14:20:18.269Z,0.0310,-0.9887,0.0598,-0.0015,0.0056,-0.0051,-0.0085,0.0403,-0.0042,-3.0791,1.4887,2.7821
2024-10-11T14:20:18.280Z,0.0294,-0.9751,0.0739,0.0390,-0.1644,0.1322,-0.0100,0.0366,-0.0067,-3.0759,1.4889,2.7798
2024-10-11T14:20:18.289Z,0.0294,-0.9751,0.0739,0.0390,-0.1644,0.1322,-0.0074,0.0356,-0.0056,-3.0759,1.4889,2.7798
2024-10-11T14:20:18.300Z,0.0254,-0.9845,0.0728,0.0390,-0.1644,0.1322,-0.0061,0.0371,-0.0074,-3.0759,1.4889,2.7798
2024-10-11T14:20:18.310Z,0.0213,-0.9870,0.0709,0.0357,-0.1190,0.0345,-0.0034,0.0351,-0.0067,-3.0736,1.4890,2.7783
2024-10-11T14:20:18.319Z,0.0213,-0.9870,0.0709,0.0357,-0.1190,0.0345,-0.0049,0.0324,-0.0082,-3.0736,1.4890,2.7783
2024-10-11T14:20:18.329Z,0.0186,-0.9829,0.0783,0.0357,-0.1190,0.0345,-0.0032,0.0299,-0.0067,-3.0736,1.4890,2.7783
2024-10-11T14:20:18.340Z,0.0148,-0.9845,0.0719,0.1036,-0.1352,-0.0199,-0.0022,0.0262,-0.0109,-3.0709,1.4890,2.7764
2024-10-11T14:20:18.349Z,0.0017,-0.9816,0.0664,0.1036,-0.1352,-0.0199,0.0004,0.0230,-0.0152,-3.0709,1.4890,2.7764
2024-10-11T14:20:18.360Z,0.0032,-0.9743,0.0623,0.1036,-0.1352,-0.0199,0.0023,0.0236,-0.0172,-3.0709,1.4890,2.7764
2024-10-11T14:20:18.370Z,0.0084,-0.9700,0.0590,0.2588,-0.2192,0.1371,0.0023,0.0236,-0.0172,-3.0662,1.4889,2.7722
2024-10-11T14:20:18.380Z,0.0096,-0.9612,0.0603,0.2588,-0.2192,0.1371,0.0079,0.0211,-0.0200,-3.0662,1.4889,2.7722
2024-10-11T14:20:18.388Z,0.0096,-0.9612,0.0603,0.2588,-0.2192,0.1371,0.0091,0.0211,-0.0210,-3.0662,1.4889,2.7722
2024-10-11T14:20:18.399Z,0.0092,-0.9506,0.0583,0.1939,-0.4323,0.1644,0.0122,0.0162,-0.0242,-3.0608,1.4884,2.7671
2024-10-11T14:20:18.410Z,0.0079,-0.9620,0.0524,0.1939,-0.4323,0.1644,0.0186,0.0119,-0.0277,-3.0608,1.4884,2.7671
2024-10-11T14:20:18.419Z,0.0079,-0.9620,0.0524,0.1939,-0.4323,0.1644,0.0235,0.0155,-0.0265,-3.0608,1.4884,2.7671
2024-10-11T14:20:18.429Z,0.0155,-0.9777,0.0533,0.1811,-0.2532,0.2505,0.0306,0.0149,-0.0270,-3.0552,1.4876,2.7618
2024-10-11T14:20:18.440Z,0.0160,-0.9793,0.0665,0.1811,-0.2532,0.2505,0.0302,0.0168,-0.0288,-3.0552,1.4876,2.7618
2024-10-11T14:20:18.450Z,0.0143,-0.9743,0.0779,0.1811,-0.2532,0.2505,0.0258,0.0184,-0.0271,-3.0552,1.4876,2.7618
2024-10-11T14:20:18.459Z,0.0156,-0.9679,0.0880,0.1691,-0.2172,0.0002,0.0248,0.0204,-0.0283,-3.0503,1.4866,2.7572
2024-10-11T14:20:18.469Z,0.0156,-0.9679,0.0880,0.1691,-0.2172,0.0002,0.0193,0.0222,-0.0322,-3.0503,1.4866,2.7572
2024-10-11T14:20:18.479Z,0.0046,-0.9656,0.1094,0.1691,-0.2172,0.0002,0.0165,0.0225,-0.0322,-3.0503,1.4866,2.7572
2024-10-11T14:20:18.489Z,0.0110,-0.9674,0.1037,0.2717,-0.3023,-0.3026,0.0167,0.0241,-0.0341,-3.0440,1.4858,2.7513
2024-10-11T14:20:18.500Z,0.0102,-0.9750,0.0939,0.2717,-0.3023,-0.3026,0.0170,0.0237,-0.0355,-3.0440,1.4858,2.7513
2024-10-11T14:20:18.509Z,0.0151,-0.9791,0.1010,0.2717,-0.3023,-0.3026,0.0152,0.0210,-0.0363,-3.0440,1.4858,2.7513
2024-10-11T14:20:18.519Z,0.0151,-0.9791,0.1010,0.1776,-0.1693,-0.2160,0.0097,0.0216,-0.0370,-3.0354,1.4850,2.7432
2024-10-11T14:20:18.529Z,0.0209,-0.9894,0.1140,0.1776,-0.1693,-0.2160,0.0116,0.0194,-0.0373,-3.0354,1.4850,2.7432
2024-10-11T14:20:18.539Z,0.0263,-0.9975,0.1117,0.1776,-0.1693,-0.2160,0.0080,0.0175,-0.0395,-3.0354,1.4850,2.7432
2024-10-11T14:20:18.549Z,0.0321,-0.9921,0.1184,0.0783,0.0123,-0.3180,0.0019,0.0172,-0.0398,-3.0251,1.4843,2.7333
2024-10-11T14:20:18.559Z,0.0327,-0.9815,0.1211,0.0783,0.0123,-0.3180,-0.0020,0.0158,-0.0382,-3.0251,1.4843,2.7333
2024-10-11T14:20:18.569Z,0.0327,-0.9815,0.1211,0.0783,0.0123,-0.3180,-0.0057,0.0140,-0.0378,-3.0251,1.4843,2.7333
2024-10-11T14:20:18.579Z,0.0360,-0.9732,0.1214,0.0664,-0.2082,-0.4281,-0.0113,0.0175,-0.0381,-3.0136,1.4839,2.7222
2024-10-11T14:20:18.589Z,0.0372,-0.9742,0.1041,0.0664,-0.2082,-0.4281,-0.0121,0.0162,-0.0375,-3.0136,1.4839,2.7222
2024-10-11T14:20:18.599Z,0.0333,-0.9765,0.0856,0.0664,-0.2082,-0.4281,-0.0105,0.0179,-0.0386,-3.0136,1.4839,2.7222
2024-10-11T14:20:18.609Z,0.0357,-0.9750,0.0774,0.0303,-0.1933,-0.0644,-0.0063,0.0144,-0.0350,-3.0015,1.4837,2.7104
2024-10-11T14:20:18.619Z,0.0357,-0.9750,0.0774,0.0303,-0.1933,-0.0644,-0.0054,0.0131,-0.0341,-3.0015,1.4837,2.7104
2024-10-11T14:20:18.629Z,0.0477,-0.9746,0.0738,0.0303,-0.1933,-0.0644,-0.0024,0.0168,-0.0297,-3.0015,1.4837,2.7104
2024-10-11T14:20:18.639Z,0.0416,-0.9684,0.0713,-0.1019,-0.2119,0.0513,-0.0019,0.0174,-0.0254,-2.9917,1.4833,2.7010
2024-10-11T14:20:18.649Z,0.0426,-0.9632,0.0677,-0.1019,-0.2119,0.0513,-0.0032,0.0205,-0.0242,-2.9917,1.4833,2.7010
2024-10-11T14:20:18.659Z,0.0487,-0.9596,0.0625,-0.1019,-0.2119,0.0513,-0.0024,0.0210,-0.0187,-2.9917,1.4833,2.7010
2024-10-11T14:20:18.670Z,0.0487,-0.9596,0.0625,-0.1060,-0.3583,0.1630,0.0013,0.0177,-0.0188,-2.9855,1.4830,2.6952
2024-10-11T14:20:18.679Z,0.0457,-0.9564,0.0547,-0.1060,-0.3583,0.1630,0.0044,0.0220,-0.0163,-2.9855,1.4830,2.6952
2024-10-11T14:20:18.690Z,0.0566,-0.9545,0.0429,-0.1060,-0.3583,0.1630,0.0068,0.0225,-0.0114,-2.9855,1.4830,2.6952
2024-10-11T14:20:18.699Z,0.0576,-0.9521,0.0432,-0.1797,-0.4081,0.3573,0.0083,0.0259,-0.0084,-2.9819,1.4826,2.6920
2024-10-11T14:20:18.709Z,0.0535,-0.9506,0.0544,-0.1797,-0.4081,0.3573,0.0109,0.0307,-0.0056,-2.9819,1.4826,2.6920
2024-10-11T14:20:18.720Z,0.0535,-0.9506,0.0544,-0.1797,-0.4081,0.3573,0.0147,0.0288,-0.0047,-2.9819,1.4826,2.6920
2024-10-11T14:20:18.729Z,0.0404,-0.9541,0.0634,-0.0154,-0.4335,0.1825,0.0144,0.0273,-0.0047,-2.9819,1.4822,2.6927
2024-10-11T14:20:18.739Z,0.0390,-0.9560,0.0619,-0.0154,-0.4335,0.1825,0.0197,0.0256,-0.0039,-2.9819,1.4822,2.6927
2024-10-11T14:20:18.749Z,0.0344,-0.9600,0.0641,-0.0154,-0.4335,0.1825,0.0193,0.0250,-0.0018,-2.9819,1.4822,2.6927
2024-10-11T14:20:18.759Z,0.0385,-0.9582,0.0732,0.0396,-0.3533,0.1587,0.0192,0.0278,-0.0001,-2.9835,1.4817,2.6948
2024-10-11T14:20:18.769Z,0.0385,-0.9582,0.0732,0.0396,-0.3533,0.1587,0.0150,0.0282,0.0007,-2.9835,1.4817,2.6948
2024-10-11T14:20:18.779Z,0.0359,-0.9546,0.0905,0.0396,-0.3533,0.1587,0.0125,0.0273,0.0012,-2.9835,1.4817,2.6948
2024-10-11T14:20:18.789Z,0.0328,-0.9543,0.0899,0.0243,-0.4064,-0.0961,0.0140,0.0275,0.0035,-2.9855,1.4813,2.6973
2024-10-11T14:20:18.798Z,0.0332,-0.9572,0.0938,0.0243,-0.4064,-0.0961,0.0120,0.0290,0.0028,-2.9855,1.4813,2.6973
2024-10-11T14:20:18.809Z,0.0332,-0.9610,0.0927,0.0243,-0.4064,-0.0961,0.0118,0.0261,0.0006,-2.9855,1.4813,2.6973
2024-10-11T14:20:18.820Z,0.0351,-0.9659,0.1037,0.0499,-0.3436,-0.1148,0.0090,0.0289,0.0046,-2.9878,1.4811,2.7003
2024-10-11T14:20:18.829Z,0.0313,-0.9690,0.1059,0.0499,-0.3436,-0.1148,0.0050,0.0321,0.0018,-2.9878,1.4811,2.7003
2024-10-11T14:20:18.839Z,0.0276,-0.9719,0.1012,0.0499,-0.3436,-0.1148,0.0045,0.0319,0.0039,-2.9878,1.4811,2.7003
2024-10-11T14:20:18.849Z,0.0275,-0.9698,0.0930,0.1029,-0.2365,-0.1969,0.0022,0.0341,0.0058,-2.9902,1.4810,2.7033
2024-10-11T14:20:18.859Z,0.0307,-0.9662,0.0932,0.1029,-0.2365,-0.1969,0.0000,0.0389,0.0047,-2.9902,1.4810,2.7033
2024-10-11T14:20:18.869Z,0.0307,-0.9662,0.0932,0.1029,-0.2365,-0.1969,-0.0003,0.0403,0.0065,-2.9902,1.4810,2.7033
2024-10-11T14:20:18.879Z,0.0198,-0.9618,0.0921,0.1213,-0.3407,-0.1221,-0.0007,0.0383,0.0058,-2.9925,1.4810,2.7064
2024-10-11T14:20:18.889Z,0.0236,-0.9615,0.0943,0.1213,-0.3407,-0.1221,-0.0057,0.0472,0.0048,-2.9925,1.4810,2.7064
2024-10-11T14:20:18.899Z,0.0261,-0.9614,0.0954,0.1213,-0.3407,-0.1221,-0.0072,0.0510,0.0058,-2.9925,1.4810,2.7064
2024-10-11T14:20:18.909Z,0.0321,-0.9622,0.0972,0.1114,-0.3390,-0.1385,-0.0124,0.0593,0.0075,-2.9946,1.4812,2.7097
2024-10-11T14:20:18.920Z,0.0270,-0.9628,0.0952,0.1114,-0.3390,-0.1385,-0.0122,0.0609,0.0108,-2.9946,1.4812,2.7097
2024-10-11T14:20:18.929Z,0.0258,-0.9618,0.0896,0.1114,-0.3390,-0.1385,-0.0109,0.0626,0.0084,-2.9946,1.4812,2.7097
2024-10-11T14:20:18.939Z,0.0271,-0.9650,0.0756,0.1092,-0.3358,-0.0831,-0.0090,0.0669,0.0095,-2.9972,1.4815,2.7138
2024-10-11T14:20:18.949Z,0.0315,-0.9667,0.0722,0.1092,-0.3358,-0.0831,-0.0098,0.0649,0.0132,-2.9972,1.4815,2.7138
2024-10-11T14:20:18.959Z,0.0354,-0.9651,0.0751,0.1092,-0.3358,-0.0831,-0.0079,0.0692,0.0106,-2.9972,1.4815,2.7138
2024-10-11T14:20:18.969Z,0.0354,-0.9651,0.0751,0.0105,-0.3040,0.0570,-0.0105,0.0655,0.0164,-3.0005,1.4819,2.7188
2024-10-11T14:20:18.979Z,0.0332,-0.9697,0.0779,0.0105,-0.3040,0.0570,-0.0086,0.0636,0.0151,-3.0005,1.4819,2.7188
2024-10-11T14:20:18.988Z,0.0308,-0.9708,0.0728,0.0105,-0.3040,0.0570,-0.0056,0.0648,0.0185,-3.0005,1.4819,2.7188
2024-10-11T14:20:18.999Z,0.0260,-0.9730,0.0731,0.0486,-0.2478,0.0790,-0.0042,0.0594,0.0178,-3.0049,1.4823,2.7248
2024-10-11T14:20:19.009Z,0.0283,-0.9747,0.0812,0.0486,-0.2478,0.0790,-0.0054,0.0575,0.0160,-3.0049,1.4823,2.7248
2024-10-11T14:20:19.020Z,0.0223,-0.9726,0.0868,0.0486,-0.2478,0.0790,-0.0084,0.0602,0.0162,-3.0049,1.4823,2.7248
2024-10-11T14:20:19.029Z,0.0088,-0.9720,0.0853,0.1259,-0.2303,-0.0600,-0.0104,0.0636,0.0131,-3.0093,1.4827,2.7308
2024-10-11T14:20:19.038Z,0.0125,-0.9715,0.0858,0.1259,-0.2303,-0.0600,-0.0113,0.0636,0.0103,-3.0093,1.4827,2.7308
2024-10-11T14:20:19.049Z,0.0130,-0.9719,0.0816,0.1259,-0.2303,-0.0600,-0.0109,0.0614,0.0072,-3.0093,1.4827,2.7308
2024-10-11T14:20:19.059Z,0.0141,-0.9726,0.0805,0.2132,-0.2377,-0.0111,-0.0090,0.0589,0.0081,-3.0116,1.4831,2.7346
2024-10-11T14:20:19.069Z,0.0153,-0.9755,0.0799,0.2132,-0.2377,-0.0111,-0.0082,0.0568,0.0083,-3.0116,1.4831,2.7346
2024-10-11T14:20:19.079Z,0.0162,-0.9756,0.0777,0.2132,-0.2377,-0.0111,-0.0070,0.0626,0.0066,-3.0116,1.4831,2.7346
2024-10-11T14:20:19.089Z,0.0159,-0.9718,0.0758,0.1775,-0.2019,0.0260,-0.0106,0.0671,0.0044,-3.0134,1.4834,2.7379
2024-10-11T14:20:19.099Z,0.0130,-0.9706,0.0765,0.1775,-0.2019,0.0260,-0.0072,0.0683,0.0061,-3.0134,1.4834,2.7379
2024-10-11T14:20:19.109Z,0.0184,-0.9683,0.0762,0.1775,-0.2019,0.0260,-0.0079,0.0690,0.0041,-3.0134,1.4834,2.7379
2024-10-11T14:20:19.121Z,0.0169,-0.9660,0.0742,0.1525,-0.2741,0.0399,-0.0029,0.0669,0.0054,-3.0148,1.4836,2.7409
2024-10-11T14:20:19.129Z,0.0169,-0.9690,0.0774,0.1525,-0.2741,0.0399,-0.0027,0.0659,0.0057,-3.0148,1.4836,2.7409
2024-10-11T14:20:19.139Z,0.0197,-0.9725,0.0824,0.1525,-0.2741,0.0399,-0.0022,0.0621,0.0036,-3.0148,1.4836,2.7409
2024-10-11T14:20:19.149Z,0.0155,-0.9752,0.0912,0.1375,-0.2323,-0.0216,-0.0058,0.0644,0.0042,-3.0160,1.4837,2.7438
2024-10-11T14:20:19.159Z,0.0162,-0.9766,0.0937,0.1375,-0.2323,-0.0216,-0.0089,0.0687,0.0026,-3.0160,1.4837,2.7438
2024-10-11T14:20:19.169Z,0.0165,-0.9774,0.0959,0.1375,-0.2323,-0.0216,-0.0101,0.0678,0.0024,-3.0160,1.4837,2.7438
2024-10-11T14:20:19.179Z,0.0120,-0.9799,0.0931,0.1660,-0.1850,-0.1554,-0.0087,0.0665,0.0010,-3.0163,1.4839,2.7457
2024-10-11T14:20:19.188Z,0.0170,-0.9764,0.0919,0.1660,-0.1850,-0.1554,-0.0121,0.0675,0.0016,-3.0163,1.4839,2.7457
2024-10-11T14:20:19.199Z,0.0197,-0.9740,0.0942,0.1660,-0.1850,-0.1554,-0.0124,0.0666,-0.0017,-3.0163,1.4839,2.7457
2024-10-11T14:20:19.209Z,0.0149,-0.9735,0.0961,0.1335,-0.2185,-0.1414,-0.0138,0.0652,-0.0018,-3.0152,1.4842,2.7464
2024-10-11T14:20:19.220Z,0.0190,-0.9769,0.1015,0.1335,-0.2185,-0.1414,-0.0162,0.0656,-0.0021,-3.0152,1.4842,2.7464
2024-10-11T14:20:19.229Z,0.0284,-0.9797,0.0968,0.1335,-0.2185,-0.1414,-0.0183,0.0665,-0.0020,-3.0152,1.4842,2.7464
2024-10-11T14:20:19.238Z,0.0289,-0.9806,0.0967,0.0467,-0.1629,-0.1705,-0.0188,0.0655,0.0006,-3.0129,1.4846,2.7458
2024-10-11T14:20:19.249Z,0.0252,-0.9847,0.0952,0.0467,-0.1629,-0.1705,-0.0185,0.0676,-0.0038,-3.0129,1.4846,2.7458
2024-10-11T14:20:19.259Z,0.0332,-0.9866,0.0969,0.0467,-0.1629,-0.1705,-0.0169,0.0644,0.0002,-3.0129,1.4846,2.7458
2024-10-11T14:20:19.269Z,0.0385,-0.9858,0.0954,-0.0017,-0.0958,-0.1763,-0.0193,0.0663,-0.0001,-3.0108,1.4851,2.7454
2024-10-11T14:20:19.279Z,0.0312,-0.9825,0.0888,-0.0017,-0.0958,-0.1763,-0.0177,0.0675,-0.0005,-3.0108,1.4851,2.7454
2024-10-11T14:20:19.288Z,0.0312,-0.9825,0.0888,-0.0017,-0.0958,-0.1763,-0.0189,0.0667,0.0007,-3.0108,1.4851,2.7454
2024-10-11T14:20:19.299Z,0.0306,-0.9707,0.0723,0.0463,-0.2007,-0.0308,-0.0196,0.0704,0.0004,-3.0087,1.4857,2.7450
2024-10-11T14:20:19.309Z,0.0336,-0.9720,0.0629,0.0463,-0.2007,-0.0308,-0.0178,0.0722,0.0022,-3.0087,1.4857,2.7450
2024-10-11T14:20:19.321Z,0.0371,-0.9746,0.0579,0.0463,-0.2007,-0.0308,-0.0133,0.0670,0.0019,-3.0087,1.4857,2.7450
2024-10-11T14:20:19.329Z,0.0341,-0.9810,0.0628,-0.0438,-0.2141,0.1980,-0.0118,0.0630,0.0054,-3.0076,1.4861,2.7456
2024-10-11T14:20:19.339Z,0.0320,-0.9884,0.0659,-0.0438,-0.2141,0.1980,-0.0089,0.0651,0.0062,-3.0076,1.4861,2.7456
2024-10-11T14:20:19.349Z,0.0329,-0.9950,0.0726,-0.0438,-0.2141,0.1980,-0.0066,0.0616,0.0066,-3.0076,1.4861,2.7456
2024-10-11T14:20:19.359Z,0.0334,-0.9963,0.0682,-0.0056,-0.0137,0.0511,-0.0056,0.0635,0.0071,-3.0084,1.4864,2.7480
2024-10-11T14:20:19.370Z,0.0328,-0.9957,0.0681,-0.0056,-0.0137,0.0511,-0.0010,0.0656,0.0073,-3.0084,1.4864,2.7480
2024-10-11T14:20:19.379Z,0.0372,-0.9921,0.0609,-0.0056,-0.0137,0.0511,-0.0006,0.0653,0.0087,-3.0084,1.4864,2.7480
2024-10-11T14:20:19.388Z,0.0349,-0.9854,0.0599,-0.0513,-0.0424,0.1665,0.0037,0.0670,0.0094,-3.0113,1.4865,2.7525
2024-10-11T14:20:19.399Z,0.0257,-0.9818,0.0582,-0.0513,-0.0424,0.1665,0.0059,0.0645,0.0076,-3.0113,1.4865,2.7525
2024-10-11T14:20:19.409Z,0.0200,-0.9822,0.0564,-0.0513,-0.0424,0.1665,0.0064,0.0629,0.0041,-3.0113,1.4865,2.7525
2024-10-11T14:20:19.419Z,0.0248,-0.9818,0.0561,0.1131,-0.1401,0.2128,0.0097,0.0630,0.0067,-3.0145,1.4865,2.7574
2024-10-11T14:20:19.429Z,0.0255,-0.9884,0.0554,0.1131,-0.1401,0.2128,0.0117,0.0627,0.0052,-3.0145,1.4865,2.7574
2024-10-11T14:20:19.438Z,0.0222,-0.9962,0.0617,0.1131,-0.1401,0.2128,0.0156,0.0551,0.0061,-3.0145,1.4865,2.7574
2024-10-11T14:20:19.449Z,0.0225,-1.0008,0.0697,0.0895,-0.0017,0.1648,0.0176,0.0493,0.0019,-3.0177,1.4862,2.7622
2024-10-11T14:20:19.459Z,0.0169,-1.0062,0.0763,0.0895,-0.0017,0.1648,0.0170,0.0490,-0.0013,-3.0177,1.4862,2.7622
2024-10-11T14:20:19.469Z,0.0190,-1.0090,0.0794,0.0895,-0.0017,0.1648,0.0181,0.0426,-0.0047,-3.0177,1.4862,2.7622
2024-10-11T14:20:19.479Z,0.0228,-1.0112,0.0805,0.1200,0.1241,-0.0037,0.0185,0.0435,-0.0038,-3.0196,1.4857,2.7653
2024-10-11T14:20:19.489Z,0.0191,-1.0098,0.0877,0.1200,0.1241,-0.0037,0.0137,0.0417,-0.0047,-3.0196,1.4857,2.7653
2024-10-11T14:20:19.499Z,0.0191,-1.0110,0.0880,0.1200,0.1241,-0.0037,0.0134,0.0416,-0.0091,-3.0196,1.4857,2.7653
2024-10-11T14:20:19.508Z,0.0267,-1.0085,0.0816,0.1192,0.1439,-0.0829,0.0141,0.0346,-0.0091,-3.0199,1.4853,2.7665
2024-10-11T14:20:19.519Z,0.0257,-1.0051,0.0858,0.1192,0.1439,-0.0829,0.0145,0.0329,-0.0109,-3.0199,1.4853,2.7665
2024-10-11T14:20:19.529Z,0.0236,-1.0013,0.0864,0.1192,0.1439,-0.0829,0.0105,0.0295,-0.0093,-3.0199,1.4853,2.7665
2024-10-11T14:20:19.539Z,0.0235,-0.9988,0.0876,0.0774,0.0484,-0.0650,0.0149,0.0282,-0.0118,-3.0183,1.4849,2.7658
2024-10-11T14:20:19.549Z,0.0203,-0.9969,0.0847,0.0774,0.0484,-0.0650,0.0134,0.0273,-0.0138,-3.0183,1.4849,2.7658
2024-10-11T14:20:19.559Z,0.0211,-0.9932,0.0792,0.0774,0.0484,-0.0650,0.0135,0.0262,-0.0132,-3.0183,1.4849,2.7658
2024-10-11T14:20:19.570Z,0.0271,-0.9911,0.0830,0.1047,-0.0304,0.0108,0.0176,0.0245,-0.0140,-3.0171,1.4844,2.7651
2024-10-11T14:20:19.579Z,0.0276,-0.9943,0.0838,0.1047,-0.0304,0.0108,0.0192,0.0247,-0.0159,-3.0171,1.4844,2.7651
2024-10-11T14:20:19.590Z,0.0244,-0.9975,0.0876,0.1047,-0.0304,0.0108,0.0201,0.0183,-0.0150,-3.0171,1.4844,2.7651
2024-10-11T14:20:19.599Z,0.0300,-0.9993,0.0912,0.0760,0.0125,-0.0656,0.0206,0.0195,-0.0150,-3.0152,1.4836,2.7636
2024-10-11T14:20:19.609Z,0.0284,-1.0028,0.0897,0.0760,0.0125,-0.0656,0.0173,0.0194,-0.0164,-3.0152,1.4836,2.7636
2024-10-11T14:20:19.619Z,0.0274,-1.0056,0.0970,0.0760,0.0125,-0.0656,0.0127,0.0164,-0.0177,-3.0152,1.4836,2.7636
2024-10-11T14:20:19.629Z,0.0306,-1.0100,0.0946,0.0511,0.0924,-0.1527,0.0087,0.0156,-0.0200,-3.0120,1.4830,2.7607
2024-10-11T14:20:19.639Z,0.0290,-1.0147,0.0925,0.0511,0.0924,-0.1527,0.0122,0.0107,-0.0194,-3.0120,1.4830,2.7607
2024-10-11T14:20:19.649Z,0.0246,-1.0140,0.0934,0.0511,0.0924,-0.1527,0.0107,0.0093,-0.0220,-3.0120,1.4830,2.7607
2024-10-11T14:20:19.659Z,0.0285,-1.0123,0.0872,0.0838,0.1754,-0.1134,0.0107,0.0076,-0.0224,-3.0077,1.4824,2.7565
2024-10-11T14:20:19.669Z,0.0297,-1.0098,0.0901,0.0838,0.1754,-0.1134,0.0107,0.0061,-0.0213,-3.0077,1.4824,2.7565
2024-10-11T14:20:19.678Z,0.0336,-1.0085,0.0954,0.0838,0.1754,-0.1134,0.0087,0.0086,-0.0206,-3.0077,1.4824,2.7565
2024-10-11T14:20:19.689Z,0.0387,-1.0038,0.1011,0.0009,0.1218,-0.1308,0.0052,0.0022,-0.0179,-3.0029,1.4819,2.7517
2024-10-11T14:20:19.699Z,0.0350,-1.0048,0.1020,0.0009,0.1218,-0.1308,0.0059,0.0032,-0.0207,-3.0029,1.4819,2.7517
2024-10-11T14:20:19.709Z,0.0344,-1.0069,0.0942,0.0009,0.1218,-0.1308,0.0066,0.0002,-0.0185,-3.0029,1.4819,2.7517
2024-10-11T14:20:19.719Z,0.0399,-1.0106,0.0872,-0.0015,0.1069,-0.1161,0.0084,0.0028,-0.0147,-2.9986,1.4815,2.7472
2024-10-11T14:20:19.729Z,0.0441,-1.0099,0.0879,-0.0015,0.1069,-0.1161,0.0095,0.0042,-0.0159,-2.9986,1.4815,2.7472
2024-10-11T14:20:19.739Z,0.0378,-1.0109,0.0842,-0.0015,0.1069,-0.1161,0.0072,0.0041,-0.0156,-2.9986,1.4815,2.7472
2024-10-11T14:20:19.749Z,0.0356,-1.0136,0.0790,-0.0310,0.1468,-0.0159,0.0108,0.0098,-0.0112,-2.9960,1.4811,2.7445
2024-10-11T14:20:19.759Z,0.0421,-1.0179,0.0653,-0.0310,0.1468,-0.0159,0.0119,0.0129,-0.0105,-2.9960,1.4811,2.7445
2024-10-11T14:20:19.769Z,0.0421,-1.0220,0.0678,-0.0310,0.1468,-0.0159,0.0107,0.0167,-0.0098,-2.9960,1.4811,2.7445
2024-10-11T14:20:19.779Z,0.0401,-1.0245,0.0698,-0.0709,0.2552,0.1493,0.0163,0.0204,-0.0064,-2.9951,1.4806,2.7437
2024-10-11T14:20:19.790Z,0.0481,-1.0245,0.0677,-0.0709,0.2552,0.1493,0.0153,0.0226,-0.0001,-2.9951,1.4806,2.7437
2024-10-11T14:20:19.799Z,0.0506,-1.0161,0.0706,-0.0709,0.2552,0.1493,0.0147,0.0229,0.0027,-2.9951,1.4806,2.7437
2024-10-11T14:20:19.809Z,0.0490,-1.0092,0.0690,-0.1547,0.1980,0.1269,0.0191,0.0248,0.0024,-2.9972,1.4802,2.7462
2024-10-11T14:20:19.821Z,0.0438,-1.0084,0.0699,-0.1547,0.1980,0.1269,0.0173,0.0258,0.0055,-2.9972,1.4802,2.7462
2024-10-11T14:20:19.829Z,0.0435,-1.0142,0.0785,-0.1547,0.1980,0.1269,0.0208,0.0265,0.0079,-2.9972,1.4802,2.7462
2024-10-11T14:20:19.839Z,0.0476,-1.0197,0.0824,-0.0872,0.1799,0.0554,0.0204,0.0258,0.0083,-3.0018,1.4797,2.7513
2024-10-11T14:20:19.848Z,0.0459,-1.0269,0.0882,-0.0872,0.1799,0.0554,0.0235,0.0261,0.0087,-3.0018,1.4797,2.7513
2024-10-11T14:20:19.859Z,0.0454,-1.0330,0.0931,-0.0872,0.1799,0.0554,0.0204,0.0252,0.0104,-3.0018,1.4797,2.7513
2024-10-11T14:20:19.869Z,0.0506,-1.0363,0.0991,-0.1095,0.3652,-0.0818,0.0178,0.0218,0.0144,-3.0076,1.4792,2.7576
2024-10-11T14:20:19.879Z,0.0511,-1.0362,0.1023,-0.1095,0.3652,-0.0818,0.0201,0.0182,0.0145,-3.0076,1.4792,2.7576
2024-10-11T14:20:19.889Z,0.0504,-1.0320,0.0991,-0.1095,0.3652,-0.0818,0.0139,0.0116,0.0150,-3.0076,1.4792,2.7576
2024-10-11T14:20:19.899Z,0.0483,-1.0294,0.0994,-0.1621,0.3550,-0.1350,0.0177,0.0075,0.0176,-3.0141,1.4789,2.7643
2024-10-11T14:20:19.909Z,0.0550,-1.0283,0.0951,-0.1621,0.3550,-0.1350,0.0162,0.0016,0.0183,-3.0141,1.4789,2.7643
2024-10-11T14:20:19.921Z,0.0496,-1.0240,0.0989,-0.1598,0.2772,-0.1294,0.0091,0.0038,0.0182,-3.0207,1.4787,2.7706
2024-10-11T14:20:19.929Z,0.0504,-1.0190,0.1082,-0.1598,0.2772,-0.1294,0.0081,-0.0056,0.0183,-3.0207,1.4787,2.7706
2024-10-11T14:20:19.939Z,0.0587,-1.0199,0.1074,-0.1598,0.2772,-0.1294,0.0076,-0.0162,0.0195,-3.0207,1.4787,2.7706
2024-10-11T14:20:19.948Z,0.0604,-1.0263,0.1037,-0.1598,0.2772,-0.1294,0.0050,-0.0186,0.0208,-3.0207,1.4787,2.7706
2024-10-11T14:20:19.959Z,0.0583,-1.0319,0.0995,-0.2705,0.2998,-0.1746,0.0060,-0.0238,0.0195,-3.0276,1.4787,2.7769
2024-10-11T14:20:19.969Z,0.0573,-1.0324,0.0988,-0.2705,0.2998,-0.1746,0.0076,-0.0334,0.0211,-3.0276,1.4787,2.7769
2024-10-11T14:20:19.979Z,0.0536,-1.0302,0.0978,-0.2705,0.2998,-0.1746,0.0054,-0.0391,0.0219,-3.0276,1.4787,2.7769
2024-10-11T14:20:19.989Z,0.0536,-1.0249,0.0925,-0.2088,0.3382,-0.1139,0.0076,-0.0499,0.0210,-3.0352,1.4786,2.7831
2024-10-11T14:20:19.999Z,0.0533,-1.0197,0.0848,-0.2088,0.3382,-0.1139,0.0072,-0.0555,0.0224,-3.0352,1.4786,2.7831
2024-10-11T14:20:20.010Z,0.0467,-1.0166,0.0771,-0.1456,0.2046,0.0909,0.0073,-0.0622,0.0228,-3.0427,1.4786,2.7885
2024-10-11T14:20:20.020Z,0.0390,-1.0158,0.0766,-0.1456,0.2046,0.0909,0.0076,-0.0600,0.0212,-3.0427,1.4786,2.7885
2024-10-11T14:20:20.029Z,0.0394,-1.0148,0.0820,-0.1456,0.2046,0.0909,0.0075,-0.0632,0.0191,-3.0427,1.4786,2.7885
2024-10-11T14:20:20.038Z,0.0465,-1.0186,0.0851,-0.1456,0.2046,0.0909,0.0070,-0.0654,0.0243,-3.0427,1.4786,2.7885
2024-10-11T14:20:20.048Z,0.0438,-1.0171,0.0904,-0.1476,0.2246,0.0145,0.0042,-0.0653,0.0225,-3.0498,1.4786,2.7934
2024-10-11T14:20:20.058Z,0.0390,-1.0162,0.0903,-0.1476,0.2246,0.0145,0.0058,-0.0656,0.0199,-3.0498,1.4786,2.7934
2024-10-11T14:20:20.072Z,0.0383,-1.0214,0.0868,-0.0722,0.2514,-0.0007,0.0089,-0.0672,0.0223,-3.0578,1.4786,2.7991
2024-10-11T14:20:20.079Z,0.0318,-1.0251,0.0839,-0.0722,0.2514,-0.0007,0.0092,-0.0722,0.0199,-3.0578,1.4786,2.7991
2024-10-11T14:20:20.089Z,0.0370,-1.0247,0.0838,-0.0722,0.2514,-0.0007,0.0149,-0.0750,0.0228,-3.0578,1.4786,2.7991
2024-10-11T14:20:20.101Z,0.0361,-1.0231,0.0849,-0.0551,0.2682,0.0215,0.0150,-0.0771,0.0226,-3.0666,1.4784,2.8053
2024-10-11T14:20:20.109Z,0.0340,-1.0174,0.0858,-0.0551,0.2682,0.0215,0.0120,-0.0780,0.0198,-3.0666,1.4784,2.8053
2024-10-11T14:20:20.120Z,0.0307,-1.0086,0.0959,-0.0551,0.2682,0.0215,0.0111,-0.0810,0.0203,-3.0666,1.4784,2.8053
2024-10-11T14:20:20.130Z,0.0328,-1.0069,0.1049,-0.0270,0.1092,-0.1720,0.0082,-0.0825,0.0201,-3.0743,1.4783,2.8103
2024-10-11T14:20:20.139Z,0.0291,-1.0097,0.1068,-0.0270,0.1092,-0.1720,0.0057,-0.0857,0.0203,-3.0743,1.4783,2.8103
2024-10-11T14:20:20.149Z,0.0268,-1.0182,0.1064,-0.0270,0.1092,-0.1720,0.0074,-0.0898,0.0182,-3.0743,1.4783,2.8103
2024-10-11T14:20:20.160Z,0.0317,-1.0293,0.1025,-0.0197,0.3298,-0.1464,0.0095,-0.0923,0.0169,-3.0813,1.4782,2.8144
2024-10-11T14:20:20.170Z,0.0321,-1.0374,0.1004,-0.0197,0.3298,-0.1464,0.0111,-0.0934,0.0187,-3.0813,1.4782,2.8144
2024-10-11T14:20:20.179Z,0.0372,-1.0353,0.0992,-0.0197,0.3298,-0.1464,0.0130,-0.0955,0.0206,-3.0813,1.4782,2.8144
2024-10-11T14:20:20.190Z,0.0427,-1.0312,0.1019,-0.1302,0.3485,-0.1374,0.0090,-0.0963,0.0181,-3.0886,1.4780,2.8186
2024-10-11T14:20:20.199Z,0.0404,-1.0233,0.1022,-0.1302,0.3485,-0.1374,0.0080,-0.0976,0.0211,-3.0886,1.4780,2.8186
2024-10-11T14:20:20.209Z,0.0426,-1.0196,0.0998,-0.1302,0.3485,-0.1374,0.0086,-0.0987,0.0222,-3.0886,1.4780,2.8186
2024-10-11T14:20:20.222Z,0.0361,-1.0157,0.0988,-0.0698,0.1966,-0.1052,0.0066,-0.0999,0.0231,-3.0964,1.4780,2.8231
2024-10-11T14:20:20.229Z,0.0340,-1.0175,0.0963,-0.0698,0.1966,-0.1052,0.0046,-0.0990,0.0237,-3.0964,1.4780,2.8231
2024-10-11T14:20:20.239Z,0.0327,-1.0209,0.0924,-0.0698,0.1966,-0.1052,0.0099,-0.1017,0.0214,-3.0964,1.4780,2.8231
2024-10-11T14:20:20.249Z,0.0339,-1.0257,0.0915,-0.0698,0.1966,-0.1052,0.0086,-0.1042,0.0200,-3.0964,1.4780,2.8231
2024-10-11T14:20:20.259Z,0.0290,-1.0290,0.0918,-0.0517,0.2946,-0.0325,0.0069,-0.1038,0.0198,-3.1046,1.4779,2.8280
2024-10-11T14:20:20.271Z,0.0313,-1.0304,0.0959,-0.0517,0.2946,-0.0325,0.0089,-0.1075,0.0221,-3.1046,1.4779,2.8280
2024-10-11T14:20:20.280Z,0.0326,-1.0284,0.0985,-0.0428,0.3207,-0.0995,0.0076,-0.1139,0.0235,-3.1127,1.4779,2.8324
2024-10-11T14:20:20.289Z,0.0338,-1.0281,0.1035,-0.0428,0.3207,-0.0995,0.0040,-0.1169,0.0236,-3.1127,1.4779,2.8324
2024-10-11T14:20:20.299Z,0.0292,-1.0250,0.1118,-0.0428,0.3207,-0.0995,-0.0003,-0.1168,0.0211,-3.1127,1.4779,2.8324
2024-10-11T14:20:20.310Z,0.0271,-1.0183,0.1102,0.0071,0.2215,-0.2150,-0.0006,-0.1219,0.0224,-3.1202,1.4780,2.8362
2024-10-11T14:20:20.319Z,0.0182,-1.0172,0.1007,0.0071,0.2215,-0.2150,-0.0016,-0.1209,0.0195,-3.1202,1.4780,2.8362
2024-10-11T14:20:20.329Z,0.0231,-1.0178,0.0960,0.0071,0.2215,-0.2150,-0.0033,-0.1226,0.0199,-3.1202,1.4780,2.8362
2024-10-11T14:20:20.340Z,0.0243,-1.0186,0.0883,0.0322,0.2242,-0.0005,0.0012,-0.1193,0.0198,-3.1266,1.4782,2.8387
2024-10-11T14:20:20.349Z,0.0215,-1.0180,0.0842,0.0322,0.2242,-0.0005,0.0055,-0.1224,0.0176,-3.1266,1.4782,2.8387
2024-10-11T14:20:20.359Z,0.0276,-1.0146,0.0833,0.0322,0.2242,-0.0005,0.0018,-0.1177,0.0181,-3.1266,1.4782,2.8387
2024-10-11T14:20:20.369Z,0.0246,-1.0108,0.0868,0.0266,0.1475,0.0142,0.0034,-0.1168,0.0164,-3.1329,1.4782,2.8413
2024-10-11T14:20:20.379Z,0.0194,-1.0075,0.0900,0.0266,0.1475,0.0142,0.0034,-0.1129,0.0172,-3.1329,1.4782,2.8413
2024-10-11T14:20:20.388Z,0.0203,-1.0031,0.0938,0.0266,0.1475,0.0142,0.0018,-0.1131,0.0212,-3.1329,1.4782,2.8413
2024-10-11T14:20:20.400Z,0.0232,-0.9979,0.0949,0.0380,0.0217,-0.0647,0.0019,-0.1105,0.0205,-3.1392,1.4783,2.8439
2024-10-11T14:20:20.409Z,0.0155,-0.9980,0.0809,0.0380,0.0217,-0.0647,0.0041,-0.1052,0.0196,-3.1392,1.4783,2.8439
2024-10-11T14:20:20.419Z,0.0115,-1.0004,0.0730,0.0380,0.0217,-0.0647,0.0080,-0.1020,0.0194,-3.1392,1.4783,2.8439
2024-10-11T14:20:20.429Z,0.0158,-1.0000,0.0741,0.1075,0.0419,0.1414,0.0095,-0.0972,0.0182,3.1369,1.4782,2.8476
2024-10-11T14:20:20.438Z,0.0161,-1.0007,0.0667,0.1075,0.0419,0.1414,0.0133,-0.0969,0.0169,3.1369,1.4782,2.8476
2024-10-11T14:20:20.449Z,0.0159,-0.9991,0.0647,0.1075,0.0419,0.1414,0.0200,-0.0976,0.0207,3.1369,1.4782,2.8476
2024-10-11T14:20:20.460Z,0.0224,-0.9986,0.0649,0.0404,0.0287,0.2361,0.0198,-0.0966,0.0200,3.1290,1.4779,2.8524
2024-10-11T14:20:20.469Z,0.0218,-0.9934,0.0708,0.0404,0.0287,0.2361,0.0234,-0.0922,0.0228,3.1290,1.4779,2.8524
2024-10-11T14:20:20.480Z,0.0181,-0.9899,0.0748,0.0404,0.0287,0.2361,0.0219,-0.0913,0.0194,3.1290,1.4779,2.8524
2024-10-11T14:20:20.490Z,0.0159,-0.9907,0.0819,0.1004,-0.0488,0.0751,0.0189,-0.0923,0.0189,3.1206,1.4774,2.8577
2024-10-11T14:20:20.499Z,0.0131,-0.9934,0.0854,0.1004,-0.0488,0.0751,0.0208,-0.0910,0.0168,3.1206,1.4774,2.8577
2024-10-11T14:20:20.509Z,0.0176,-0.9984,0.0796,0.1004,-0.0488,0.0751,0.0235,-0.0952,0.0158,3.1206,1.4774,2.8577
2024-10-11T14:20:20.519Z,0.0149,-1.0033,0.0728,0.1076,0.0757,0.1704,0.0232,-0.0906,0.0164,3.1132,1.4768,2.8619
2024-10-11T14:20:20.529Z,0.0160,-1.0085,0.0776,0.1076,0.0757,0.1704,0.0275,-0.0956,0.0130,3.1132,1.4768,2.8619
2024-10-11T14:20:20.538Z,0.0216,-1.0098,0.0845,0.1076,0.0757,0.1704,0.0252,-0.0980,0.0132,3.1132,1.4768,2.8619
2024-10-11T14:20:20.549Z,0.0200,-1.0101,0.0983,0.0566,0.1434,-0.0726,0.0261,-0.1008,0.0118,3.1068,1.4762,2.8652
2024-10-11T14:20:20.558Z,0.0255,-1.0057,0.1102,0.0566,0.1434,-0.0726,0.0205,-0.1047,0.0130,3.1068,1.4762,2.8652
2024-10-11T14:20:20.569Z,0.0247,-1.0014,0.1090,0.0566,0.1434,-0.0726,0.0186,-0.1065,0.0122,3.1068,1.4762,2.8652
2024-10-11T14:20:20.579Z,0.0198,-0.9999,0.1083,0.0585,0.0437,-0.1663,0.0159,-0.1067,0.0133,3.1015,1.4758,2.8669
2024-10-11T14:20:20.588Z,0.0158,-0.9986,0.1029,0.0585,0.0437,-0.1663,0.0135,-0.1085,0.0091,3.1015,1.4758,2.8669
2024-10-11T14:20:20.598Z,0.0172,-1.0020,0.0963,0.0585,0.0437,-0.1663,0.0141,-0.1066,0.0057,3.1015,1.4758,2.8669
2024-10-11T14:20:20.609Z,0.0196,-1.0075,0.0902,0.0613,0.1181,0.0142,0.0163,-0.1074,0.0042,3.0980,1.4754,2.8670
2024-10-11T14:20:20.619Z,0.0214,-1.0116,0.0938,0.0613,0.1181,0.0142,0.0156,-0.1084,0.0055,3.0980,1.4754,2.8670
2024-10-11T14:20:20.629Z,0.0213,-1.0109,0.1005,0.0613,0.1181,0.0142,0.0161,-0.1104,0.0051,3.0980,1.4754,2.8670
2024-10-11T14:20:20.639Z,0.0231,-1.0111,0.1063,0.0285,0.1536,-0.1401,0.0093,-0.1079,0.0044,3.0953,1.4750,2.8662
2024-10-11T14:20:20.649Z,0.0280,-1.0106,0.1095,0.0285,0.1536,-0.1401,0.0091,-0.1072,0.0028,3.0953,1.4750,2.8662
2024-10-11T14:20:20.659Z,0.0334,-1.0108,0.1116,0.0285,0.1536,-0.1401,0.0080,-0.1118,0.0045,3.0953,1.4750,2.8662
2024-10-11T14:20:20.670Z,0.0226,-1.0098,0.1096,0.0354,0.1411,-0.1711,0.0057,-0.1094,0.0017,3.0935,1.4748,2.8645
2024-10-11T14:20:20.679Z,0.0178,-1.0074,0.1023,0.0354,0.1411,-0.1711,0.0058,-0.1113,0.0002,3.0935,1.4748,2.8645
2024-10-11T14:20:20.688Z,0.0202,-1.0030,0.0984,0.0354,0.1411,-0.1711,0.0038,-0.1136,0.0002,3.0935,1.4748,2.8645
2024-10-11T14:20:20.699Z,0.0230,-1.0010,0.0896,0.0346,0.0551,0.0256,0.0068,-0.1137,-0.0013,3.0925,1.4747,2.8618
2024-10-11T14:20:20.709Z,0.0253,-1.0007,0.0795,0.0346,0.0551,0.0256,0.0069,-0.1149,-0.0009,3.0925,1.4747,2.8618
2024-10-11T14:20:20.719Z,0.0241,-1.0038,0.0777,0.0346,0.0551,0.0256,0.0075,-0.1168,-0.0031,3.0925,1.4747,2.8618
2024-10-11T14:20:20.729Z,0.0274,-0.9991,0.0846,-0.0056,0.0371,0.0760,0.0056,-0.1158,-0.0014,3.0919,1.4745,2.8587
2024-10-11T14:20:20.738Z,0.0279,-1.0004,0.0924,-0.0056,0.0371,0.0760,0.0068,-0.1126,0.0006,3.0919,1.4745,2.8587
2024-10-11T14:20:20.749Z,0.0235,-1.0016,0.0955,-0.0056,0.0371,0.0760,0.0038,-0.1129,-0.0004,3.0919,1.4745,2.8587
2024-10-11T14:20:20.759Z,0.0230,-1.0011,0.0981,0.0409,0.0563,-0.0561,0.0025,-0.1157,-0.0010,3.0914,1.4744,2.8556
2024-10-11T14:20:20.769Z,0.0255,-0.9991,0.0954,0.0409,0.0563,-0.0561,0.0033,-0.1098,-0.0006,3.0914,1.4744,2.8556
2024-10-11T14:20:20.779Z,0.0264,-0.9968,0.0928,0.0409,0.0563,-0.0561,0.0027,-0.1077,-0.0034,3.0914,1.4744,2.8556
2024-10-11T14:20:20.789Z,0.0257,-0.9939,0.0902,0.0177,-0.0144,0.0209,-0.0002,-0.1079,-0.0005,3.0909,1.4743,2.8525
2024-10-11T14:20:20.798Z,0.0285,-0.9923,0.0851,0.0177,-0.0144,0.0209,0.0024,-0.1058,-0.0006,3.0909,1.4743,2.8525
2024-10-11T14:20:20.809Z,0.0297,-0.9921,0.0863,0.0177,-0.0144,0.0209,0.0022,-0.1081,-0.0006,3.0909,1.4743,2.8525
2024-10-11T14:20:20.819Z,0.0272,-0.9876,0.0876,0.0054,-0.0762,0.0456,0.0016,-0.1068,-0.0015,3.0906,1.4743,2.8495
2024-10-11T14:20:20.829Z,0.0295,-0.9826,0.0918,0.0054,-0.0762,0.0456,0.0015,-0.1089,0.0014,3.0906,1.4743,2.8495
2024-10-11T14:20:20.838Z,0.0275,-0.9803,0.0917,0.0054,-0.0762,0.0456,0.0034,-0.1078,0.0009,3.0906,1.4743,2.8495
2024-10-11T14:20:20.849Z,0.0320,-0.9820,0.0897,-0.0391,-0.1305,0.0253,0.0040,-0.1081,0.0022,3.0894,1.4742,2.8471
2024-10-11T14:20:20.859Z,0.0400,-0.9816,0.0882,-0.0391,-0.1305,0.0253,0.0045,-0.1022,0.0050,3.0894,1.4742,2.8471
2024-10-11T14:20:20.869Z,0.0389,-0.9814,0.0845,-0.0391,-0.1305,0.0253,0.0036,-0.0956,0.0071,3.0894,1.4742,2.8471
2024-10-11T14:20:20.879Z,0.0324,-0.9820,0.0774,-0.0429,-0.1306,0.1463,0.0066,-0.0885,0.0088,3.0865,1.4742,2.8470
2024-10-11T14:20:20.889Z,0.0386,-0.9794,0.0817,-0.0429,-0.1306,0.1463,0.0060,-0.0791,0.0130,3.0865,1.4742,2.8470
2024-10-11T14:20:20.899Z,0.0356,-0.9782,0.0831,-0.0429,-0.1306,0.1463,0.0060,-0.0763,0.0144,3.0865,1.4742,2.8470
2024-10-11T14:20:20.909Z,0.0283,-0.9801,0.0788,-0.0047,-0.1496,0.1348,0.0075,-0.0744,0.0143,3.0813,1.4741,2.8496
2024-10-11T14:20:20.920Z,0.0313,-0.9806,0.0790,-0.0047,-0.1496,0.1348,0.0058,-0.0714,0.0185,3.0813,1.4741,2.8496
2024-10-11T14:20:20.929Z,0.0301,-0.9815,0.0829,-0.0047,-0.1496,0.1348,0.0094,-0.0717,0.0182,3.0813,1.4741,2.8496
2024-10-11T14:20:20.939Z,0.0261,-0.9837,0.0872,0.0136,-0.1143,0.0537,0.0104,-0.0676,0.0174,3.0749,1.4739,2.8537
2024-10-11T14:20:20.949Z,0.0236,-0.9855,0.0889,0.0136,-0.1143,0.0537,0.0100,-0.0667,0.0201,3.0749,1.4739,2.8537
2024-10-11T14:20:20.959Z,0.0267,-0.9818,0.0974,0.0136,-0.1143,0.0537,0.0050,-0.0637,0.0200,3.0749,1.4739,2.8537
2024-10-11T14:20:20.969Z,0.0229,-0.9780,0.0985,0.0402,-0.1694,-0.0554,0.0069,-0.0584,0.0210,3.0680,1.4739,2.8585
2024-10-11T14:20:20.979Z,0.0186,-0.9794,0.0968,0.0402,-0.1694,-0.0554,0.0045,-0.0581,0.0211,3.0680,1.4739,2.8585
2024-10-11T14:20:20.988Z,0.0168,-0.9799,0.0992,0.0402,-0.1694,-0.0554,0.0044,-0.0564,0.0185,3.0680,1.4739,2.8585
2024-10-11T14:20:20.999Z,0.0160,-0.9816,0.0994,0.1033,-0.1344,-0.0629,0.0068,-0.0522,0.0179,3.0612,1.4739,2.8634
2024-10-11T14:20:21.009Z,0.0214,-0.9867,0.0967,0.1033,-0.1344,-0.0629,0.0062,-0.0513,0.0195,3.0612,1.4739,2.8634
2024-10-11T14:20:21.019Z,0.0205,-0.9904,0.0979,0.1033,-0.1344,-0.0629,0.0033,-0.0533,0.0196,3.0612,1.4739,2.8634
2024-10-11T14:20:21.029Z,0.0219,-0.9886,0.0966,0.0411,-0.0654,-0.0343,0.0035,-0.0530,0.0208,3.0545,1.4740,2.8683
2024-10-11T14:20:21.039Z,0.0267,-0.9850,0.0905,0.0411,-0.0654,-0.0343,0.0057,-0.0528,0.0226,3.0545,1.4740,2.8683
2024-10-11T14:20:21.049Z,0.0235,-0.9841,0.0873,0.0411,-0.0654,-0.0343,0.0030,-0.0468,0.0233,3.0545,1.4740,2.8683
2024-10-11T14:20:21.059Z,0.0253,-0.9802,0.0884,0.0026,-0.1486,0.0461,0.0001,-0.0466,0.0228,3.0473,1.4741,2.8737
2024-10-11T14:20:21.069Z,0.0255,-0.9816,0.0919,0.0026,-0.1486,0.0461,0.0010,-0.0477,0.0209,3.0473,1.4741,2.8737
2024-10-11T14:20:21.079Z,0.0237,-0.9834,0.0858,0.0026,-0.1486,0.0461,0.0004,-0.0520,0.0202,3.0473,1.4741,2.8737
2024-10-11T14:20:21.091Z,0.0207,-0.9854,0.0883,0.0432,-0.0979,0.0461,-0.0035,-0.0476,0.0179,3.0413,1.4743,2.8781
2024-10-11T14:20:21.099Z,0.0217,-0.9875,0.0876,0.0432,-0.0979,0.0461,0.0014,-0.0469,0.0173,3.0413,1.4743,2.8781
2024-10-11T14:20:21.109Z,0.0231,-0.9879,0.0830,0.0432,-0.0979,0.0461,0.0009,-0.0502,0.0204,3.0413,1.4743,2.8781
2024-10-11T14:20:21.119Z,0.0230,-0.9807,0.0861,0.0170,-0.1440,0.0675,-0.0016,-0.0558,0.0178,3.0356,1.4744,2.8819
2024-10-11T14:20:21.129Z,0.0238,-0.9779,0.0869,0.0170,-0.1440,0.0675,-0.0022,-0.0602,0.0177,3.0356,1.4744,2.8819
2024-10-11T14:20:21.139Z,0.0242,-0.9773,0.0888,0.0170,-0.1440,0.0675,-0.0045,-0.0566,0.0171,3.0356,1.4744,2.8819
2024-10-11T14:20:21.149Z,0.0244,-0.9774,0.0916,-0.0003,-0.1760,0.0123,-0.0022,-0.0607,0.0140,3.0305,1.4746,2.8850
2024-10-11T14:20:21.158Z,0.0232,-0.9764,0.0898,-0.0003,-0.1760,0.0123,-0.0053,-0.0601,0.0154,3.0305,1.4746,2.8850
2024-10-11T14:20:21.169Z,0.0199,-0.9783,0.0851,-0.0003,-0.1760,0.0123,-0.0024,-0.0629,0.0141,3.0305,1.4746,2.8850
2024-10-11T14:20:21.179Z,0.0214,-0.9784,0.0805,0.0265,-0.1668,0.1205,-0.0026,-0.0599,0.0129,3.0263,1.4748,2.8873
2024-10-11T14:20:21.189Z,0.0192,-0.9817,0.0846,0.0265,-0.1668,0.1205,-0.0026,-0.0610,0.0115,3.0263,1.4748,2.8873
2024-10-11T14:20:21.199Z,0.0188,-0.9816,0.0956,0.0265,-0.1668,0.1205,-0.0049,-0.0637,0.0111,3.0263,1.4748,2.8873
2024-10-11T14:20:21.209Z,0.0175,-0.9768,0.0937,0.0639,-0.1823,-0.0099,-0.0054,-0.0627,0.0092,3.0232,1.4749,2.8883
2024-10-11T14:20:21.219Z,0.0241,-0.9702,0.0960,0.0639,-0.1823,-0.0099,-0.0061,-0.0619,0.0097,3.0232,1.4749,2.8883
2024-10-11T14:20:21.229Z,0.0293,-0.9733,0.0921,0.0639,-0.1823,-0.0099,-0.0067,-0.0603,0.0138,3.0232,1.4749,2.8883
2024-10-11T14:20:21.239Z,0.0282,-0.9776,0.0941,-0.0438,-0.1753,-0.0168,-0.0088,-0.0596,0.0133,3.0197,1.4752,2.8897
2024-10-11T14:20:21.249Z,0.0237,-0.9753,0.0917,-0.0438,-0.1753,-0.0168,-0.0105,-0.0566,0.0121,3.0197,1.4752,2.8897
2024-10-11T14:20:21.259Z,0.0192,-0.9699,0.0845,-0.0438,-0.1753,-0.0168,-0.0073,-0.0560,0.0139,3.0197,1.4752,2.8897
2024-10-11T14:20:21.269Z,0.0213,-0.9753,0.0882,0.0224,-0.1976,0.0388,-0.0112,-0.0554,0.0098,3.0165,1.4756,2.8911
2024-10-11T14:20:21.279Z,0.0196,-0.9736,0.0882,0.0224,-0.1976,0.0388,-0.0082,-0.0530,0.0122,3.0165,1.4756,2.8911
2024-10-11T14:20:21.289Z,0.0272,-0.9638,0.0809,0.0224,-0.1976,0.0388,-0.0124,-0.0495,0.0111,3.0165,1.4756,2.8911
2024-10-11T14:20:21.299Z,0.0279,-0.9677,0.0827,-0.0442,-0.2733,0.0889,-0.0146,-0.0518,0.0117,3.0136,1.4760,2.8922
2024-10-11T14:20:21.309Z,0.0284,-0.9661,0.0893,-0.0442,-0.2733,0.0889,-0.0160,-0.0475,0.0122,3.0136,1.4760,2.8922
2024-10-11T14:20:21.319Z,0.0313,-0.9594,0.0882,-0.0442,-0.2733,0.0889,-0.0139,-0.0501,0.0169,3.0136,1.4760,2.8922
2024-10-11T14:20:21.329Z,0.0319,-0.9664,0.0877,-0.0868,-0.2855,0.0354,-0.0141,-0.0486,0.0184,3.0096,1.4765,2.8944
2024-10-11T14:20:21.340Z,0.0273,-0.9699,0.0945,-0.0868,-0.2855,0.0354,-0.0142,-0.0469,0.0182,3.0096,1.4765,2.8944
2024-10-11T14:20:21.349Z,0.0213,-0.9616,0.0871,-0.0868,-0.2855,0.0354,-0.0136,-0.0444,0.0155,3.0096,1.4765,2.8944
2024-10-11T14:20:21.359Z,0.0192,-0.9643,0.0880,0.0346,-0.3074,0.0286,-0.0177,-0.0390,0.0107,3.0060,1.4770,2.8965
2024-10-11T14:20:21.369Z,0.0171,-0.9759,0.0792,0.0346,-0.3074,0.0286,-0.0140,-0.0414,0.0113,3.0060,1.4770,2.8965
2024-10-11T14:20:21.379Z,0.0232,-0.9746,0.0721,0.0346,-0.3074,0.0286,-0.0103,-0.0448,0.0096,3.0060,1.4770,2.8965
2024-10-11T14:20:21.389Z,0.0216,-0.9793,0.0689,0.0086,-0.1600,0.2127,-0.0060,-0.0455,0.0119,3.0029,1.4774,2.8979
2024-10-11T14:20:21.399Z,0.0253,-0.9727,0.0805,0.0086,-0.1600,0.2127,-0.0083,-0.0486,0.0128,3.0029,1.4774,2.8979
2024-10-11T14:20:21.408Z,0.0259,-0.9741,0.0796,0.0086,-0.1600,0.2127,-0.0085,-0.0539,0.0108,3.0029,1.4774,2.8979
2024-10-11T14:20:21.419Z,0.0263,-0.9694,0.0853,-0.0395,-0.2580,0.0485,-0.0127,-0.0502,0.0117,2.9997,1.4777,2.8995
2024-10-11T14:20:21.429Z,0.0241,-0.9755,0.0872,-0.0395,-0.2580,0.0485,-0.0131,-0.0489,0.0120,2.9997,1.4777,2.8995
2024-10-11T14:20:21.439Z,0.0188,-0.9780,0.0887,-0.0395,-0.2580,0.0485,-0.0142,-0.0483,0.0099,2.9997,1.4777,2.8995
2024-10-11T14:20:21.449Z,0.0181,-0.9848,0.0936,0.0392,-0.1072,-0.0371,-0.0131,-0.0449,0.0092,2.9972,1.4782,2.9003
2024-10-11T14:20:21.459Z,0.0238,-0.9865,0.0903,0.0392,-0.1072,-0.0371,-0.0142,-0.0460,0.0086,2.9972,1.4782,2.9003
2024-10-11T14:20:21.468Z,0.0240,-0.9864,0.0836,0.0392,-0.1072,-0.0371,-0.0088,-0.0468,0.0095,2.9972,1.4782,2.9003
2024-10-11T14:20:21.479Z,0.0237,-0.9814,0.0822,-0.0162,-0.1405,0.0715,-0.0066,-0.0470,0.0060,2.9955,1.4785,2.9004
2024-10-11T14:20:21.489Z,0.0204,-0.9756,0.0816,-0.0162,-0.1405,0.0715,-0.0085,-0.0452,0.0084,2.9955,1.4785,2.9004
2024-10-11T14:20:21.499Z,0.0178,-0.9735,0.0753,-0.0162,-0.1405,0.0715,-0.0067,-0.0456,0.0052,2.9955,1.4785,2.9004
