time,gFx,gFy,gFz,ax,ay,az,wx,wy,wz,yaw,pitch,roll
2024-10-11T12:15:33.622Z,-0.0056,-0.9913,0.1269,0.0382,0.0184,0.1639,0.0066,0.0065,-0.0017,-2.3206,1.4244,-3.1304
2024-10-11T12:15:33.627Z,-0.0036,-0.9931,0.1360,0.0382,0.0184,0.1639,0.0089,0.0043,-0.0049,-2.3206,1.4244,-3.1304
2024-10-11T12:15:33.637Z,0.0066,-0.9849,0.1296,0.0487,0.0251,0.1449,0.0147,-0.0048,-0.0023,-2.3199,1.4241,-3.1313
2024-10-11T12:15:33.647Z,-0.0042,-0.9981,0.1444,0.0487,0.0251,0.1449,0.0135,0.0008,-0.0038,-2.3199,1.4241,-3.1313
2024-10-11T12:15:33.657Z,-0.0157,-0.9905,0.1373,0.0487,0.0251,0.1449,0.0146,-0.0015,-0.0042,-2.3199,1.4241,-3.1313
2024-10-11T12:15:33.667Z,0.0124,-0.9889,0.1417,-0.0772,-0.0622,0.0840,0.0169,-0.0099,-0.0047,-2.3194,1.4237,-3.1321
2024-10-11T12:15:33.677Z,0.0124,-0.9889,0.1417,-0.0772,-0.0622,0.0840,0.0146,-0.0056,-0.0074,-2.3194,1.4237,-3.1321
2024-10-11T12:15:33.687Z,0.0002,-0.9909,0.1483,-0.0772,-0.0622,0.0840,0.0178,-0.0131,-0.0027,-2.3194,1.4237,-3.1321
2024-10-11T12:15:33.697Z,-0.0072,-0.9946,0.1486,-0.0261,0.0477,-0.0197,0.0153,-0.0082,-0.0037,-2.3188,1.4233,-3.1332
2024-10-11T12:15:33.707Z,-0.0074,-0.9876,0.1496,-0.0261,0.0477,-0.0197,0.0157,-0.0112,-0.0052,-2.3188,1.4233,-3.1332
2024-10-11T12:15:33.717Z,-0.0074,-0.9876,0.1496,-0.0261,0.0477,-0.0197,0.0113,-0.0121,-0.0053,-2.3188,1.4233,-3.1332
2024-10-11T12:15:33.727Z,0.0008,-0.9897,0.1536,-0.0009,-0.0054,-0.0756,0.0124,-0.0088,-0.0044,-2.3180,1.4229,-3.1346
2024-10-11T12:15:33.738Z,-0.0049,-0.9878,0.1557,-0.0009,-0.0054,-0.0756,0.0109,-0.0094,-0.0023,-2.3180,1.4229,-3.1346
2024-10-11T12:15:33.748Z,-0.0042,-0.9846,0.1578,-0.0009,-0.0054,-0.0756,0.0119,-0.0124,-0.0017,-2.3180,1.4229,-3.1346
2024-10-11T12:15:33.758Z,-0.0054,-0.9864,0.1585,0.0230,-0.0345,-0.1090,0.0096,-0.0129,-0.0014,-2.3176,1.4225,-3.1356
2024-10-11T12:15:33.768Z,-0.0080,-0.9850,0.1602,0.0230,-0.0345,-0.1090,0.0042,-0.0122,-0.0031,-2.3176,1.4225,-3.1356
2024-10-11T12:15:33.778Z,-0.0081,-0.9848,0.1640,0.0230,-0.0345,-0.1090,0.0042,-0.0160,-0.0019,-2.3176,1.4225,-3.1356
2024-10-11T12:15:33.788Z,-0.0067,-0.9857,0.1643,0.0598,-0.0401,-0.1636,0.0048,-0.0174,-0.0028,-2.3173,1.4223,-3.1366
2024-10-11T12:15:33.798Z,-0.0073,-0.9881,0.1653,0.0598,-0.0401,-0.1636,-0.0000,-0.0165,-0.0048,-2.3173,1.4223,-3.1366
2024-10-11T12:15:33.808Z,-0.0021,-0.9908,0.1630,0.0598,-0.0401,-0.1636,0.0004,-0.0160,-0.0024,-2.3173,1.4223,-3.1366
2024-10-11T12:15:33.818Z,-0.0013,-0.9925,0.1640,-0.0071,0.0247,-0.1572,-0.0010,-0.0211,-0.0027,-2.3167,1.4222,-3.1379
2024-10-11T12:15:33.827Z,-0.0013,-0.9925,0.1640,-0.0071,0.0247,-0.1572,0.0004,-0.0186,-0.0036,-2.3167,1.4222,-3.1379
2024-10-11T12:15:33.838Z,-0.0033,-0.9937,0.1575,-0.0071,0.0247,-0.1572,-0.0026,-0.0193,-0.0017,-2.3167,1.4222,-3.1379
2024-10-11T12:15:33.847Z,-0.0075,-0.9943,0.1534,0.0420,0.0419,-0.0701,-0.0034,-0.0179,-0.0037,-2.3165,1.4222,-3.1390
2024-10-11T12:15:33.858Z,-0.0081,-0.9957,0.1523,0.0420,0.0419,-0.0701,-0.0045,-0.0200,-0.0044,-2.3165,1.4222,-3.1390
2024-10-11T12:15:33.868Z,-0.0084,-0.9922,0.1533,0.0420,0.0419,-0.0701,-0.0038,-0.0205,-0.0054,-2.3165,1.4222,-3.1390
2024-10-11T12:15:33.877Z,-0.0056,-0.9915,0.1535,0.0710,0.0301,-0.0656,-0.0033,-0.0191,-0.0044,-2.3161,1.4222,-3.1402
2024-10-11T12:15:33.888Z,-0.0027,-0.9904,0.1535,0.0710,0.0301,-0.0656,-0.0034,-0.0200,-0.0037,-2.3161,1.4222,-3.1402
2024-10-11T12:15:33.897Z,-0.0045,-0.9897,0.1511,0.0710,0.0301,-0.0656,-0.0033,-0.0185,-0.0034,-2.3161,1.4222,-3.1402
2024-10-11T12:15:33.908Z,-0.0045,-0.9897,0.1511,0.0251,-0.0026,-0.0411,-0.0034,-0.0181,-0.0020,-2.3157,1.4222,-3.1414
2024-10-11T12:15:33.918Z,-0.0009,-0.9872,0.1504,0.0251,-0.0026,-0.0411,-0.0032,-0.0175,-0.0016,-2.3157,1.4222,-3.1414
2024-10-11T12:15:33.928Z,-0.0052,-0.9849,0.1497,0.0251,-0.0026,-0.0411,-0.0019,-0.0123,-0.0027,-2.3157,1.4222,-3.1414
2024-10-11T12:15:33.937Z,-0.0048,-0.9826,0.1479,0.0575,-0.0569,-0.0150,-0.0026,-0.0090,0.0010,-2.3156,1.4222,3.1409
2024-10-11T12:15:33.948Z,-0.0052,-0.9817,0.1459,0.0575,-0.0569,-0.0150,-0.0036,-0.0062,0.0012,-2.3156,1.4222,3.1409
2024-10-11T12:15:33.958Z,-0.0050,-0.9807,0.1429,0.0575,-0.0569,-0.0150,0.0004,-0.0042,-0.0012,-2.3156,1.4222,3.1409
2024-10-11T12:15:33.968Z,-0.0058,-0.9805,0.1424,0.0491,-0.0799,0.0521,-0.0025,-0.0007,-0.0000,-2.3161,1.4222,3.1410
2024-10-11T12:15:33.977Z,-0.0055,-0.9808,0.1436,0.0491,-0.0799,0.0521,0.0000,0.0016,0.0030,-2.3161,1.4222,3.1410
2024-10-11T12:15:33.988Z,-0.0082,-0.9819,0.1455,0.0491,-0.0799,0.0521,0.0025,0.0040,0.0044,-2.3161,1.4222,3.1410
2024-10-11T12:15:33.997Z,-0.0098,-0.9828,0.1460,0.0978,-0.0588,0.0311,0.0019,0.0111,0.0032,-2.3169,1.4221,3.1416
2024-10-11T12:15:34.008Z,-0.0051,-0.9825,0.1478,0.0978,-0.0588,0.0311,0.0017,0.0114,0.0028,-2.3169,1.4221,3.1416
2024-10-11T12:15:34.017Z,-0.0068,-0.9838,0.1445,0.0978,-0.0588,0.0311,0.0034,0.0152,0.0042,-2.3169,1.4221,3.1416
2024-10-11T12:15:34.028Z,-0.0046,-0.9853,0.1446,0.0546,-0.0386,0.0448,0.0068,0.0210,0.0066,-2.3180,1.4220,-3.1403
2024-10-11T12:15:34.037Z,-0.0061,-0.9838,0.1454,0.0546,-0.0386,0.0448,0.0030,0.0258,0.0035,-2.3180,1.4220,-3.1403
2024-10-11T12:15:34.047Z,-0.0085,-0.9831,0.1445,0.0546,-0.0386,0.0448,0.0028,0.0250,0.0067,-2.3180,1.4220,-3.1403
2024-10-11T12:15:34.058Z,-0.0067,-0.9827,0.1440,0.0785,-0.0580,0.0386,0.0062,0.0289,0.0028,-2.3196,1.4219,-3.1383
2024-10-11T12:15:34.067Z,-0.0077,-0.9816,0.1413,0.0785,-0.0580,0.0386,0.0054,0.0304,0.0017,-2.3196,1.4219,-3.1383
2024-10-11T12:15:34.077Z,-0.0063,-0.9828,0.1411,0.0785,-0.0580,0.0386,0.0072,0.0305,0.0043,-2.3196,1.4219,-3.1383
2024-10-11T12:15:34.087Z,-0.0048,-0.9823,0.1435,0.0336,-0.0563,0.0584,0.0095,0.0324,0.0018,-2.3226,1.4217,-3.1347
2024-10-11T12:15:34.098Z,-0.0042,-0.9818,0.1464,0.0336,-0.0563,0.0584,0.0050,0.0328,0.0039,-2.3226,1.4217,-3.1347
2024-10-11T12:15:34.109Z,0.0000,-0.9830,0.1465,0.0336,-0.0563,0.0584,0.0089,0.0347,0.0058,-2.3226,1.4217,-3.1347
2024-10-11T12:15:34.117Z,0.0002,-0.9823,0.1459,-0.0170,-0.0585,0.0242,0.0075,0.0353,0.0047,-2.3256,1.4217,-3.1309
2024-10-11T12:15:34.128Z,0.0020,-0.9831,0.1478,-0.0170,-0.0585,0.0242,0.0077,0.0352,0.0039,-2.3256,1.4217,-3.1309
2024-10-11T12:15:34.137Z,0.0004,-0.9852,0.1465,-0.0170,-0.0585,0.0242,0.0060,0.0360,0.0034,-2.3256,1.4217,-3.1309
2024-10-11T12:15:34.148Z,0.0018,-0.9861,0.1476,-0.0330,-0.0381,0.0176,0.0052,0.0361,0.0028,-2.3269,1.4215,-3.1288
2024-10-11T12:15:34.159Z,-0.0008,-0.9906,0.1502,-0.0330,-0.0381,0.0176,0.0102,0.0353,0.0056,-2.3269,1.4215,-3.1288
2024-10-11T12:15:34.168Z,0.0009,-0.9925,0.1536,-0.0330,-0.0381,0.0176,0.0099,0.0347,0.0035,-2.3269,1.4215,-3.1288
2024-10-11T12:15:34.177Z,0.0042,-0.9952,0.1563,-0.0560,0.0536,-0.0554,0.0057,0.0348,0.0038,-2.3281,1.4213,-3.1268
2024-10-11T12:15:34.187Z,0.0029,-0.9982,0.1549,-0.0560,0.0536,-0.0554,0.0064,0.0348,0.0055,-2.3281,1.4213,-3.1268
2024-10-11T12:15:34.198Z,0.0014,-1.0002,0.1574,-0.0560,0.0536,-0.0554,0.0028,0.0370,0.0050,-2.3281,1.4213,-3.1268
2024-10-11T12:15:34.208Z,0.0014,-1.0002,0.1574,-0.0242,0.1251,-0.0982,0.0045,0.0358,0.0053,-2.3294,1.4211,-3.1247
2024-10-11T12:15:34.217Z,-0.0028,-1.0032,0.1644,-0.0242,0.1251,-0.0982,0.0036,0.0362,0.0068,-2.3294,1.4211,-3.1247
2024-10-11T12:15:34.228Z,-0.0060,-1.0047,0.1661,-0.0242,0.1251,-0.0982,-0.0009,0.0378,0.0037,-2.3294,1.4211,-3.1247
2024-10-11T12:15:34.237Z,-0.0097,-1.0045,0.1698,0.0718,0.1565,-0.1826,-0.0017,0.0392,0.0029,-2.3305,1.4210,-3.1228
2024-10-11T12:15:34.247Z,-0.0057,-1.0043,0.1729,0.0718,0.1565,-0.1826,-0.0041,0.0369,0.0053,-2.3305,1.4210,-3.1228
2024-10-11T12:15:34.258Z,-0.0068,-1.0033,0.1711,0.0718,0.1565,-0.1826,-0.0036,0.0396,0.0029,-2.3305,1.4210,-3.1228
2024-10-11T12:15:34.267Z,-0.0047,-1.0014,0.1698,0.0258,0.1336,-0.2160,-0.0073,0.0353,0.0046,-2.3313,1.4211,-3.1211
2024-10-11T12:15:34.278Z,-0.0067,-1.0002,0.1679,0.0258,0.1336,-0.2160,-0.0092,0.0376,0.0039,-2.3313,1.4211,-3.1211
2024-10-11T12:15:34.287Z,-0.0050,-0.9974,0.1672,0.0258,0.1336,-0.2160,-0.0118,0.0374,0.0013,-2.3313,1.4211,-3.1211
2024-10-11T12:15:34.297Z,-0.0075,-0.9940,0.1643,0.0355,0.0670,-0.1727,-0.0130,0.0379,-0.0017,-2.3318,1.4214,-3.1197
2024-10-11T12:15:34.308Z,-0.0091,-0.9943,0.1603,0.0355,0.0670,-0.1727,-0.0126,0.0407,-0.0014,-2.3318,1.4214,-3.1197
2024-10-11T12:15:34.317Z,-0.0094,-0.9921,0.1571,0.0355,0.0670,-0.1727,-0.0143,0.0429,-0.0025,-2.3318,1.4214,-3.1197
2024-10-11T12:15:34.328Z,-0.0107,-0.9899,0.1531,0.0695,0.0244,-0.0662,-0.0157,0.0428,-0.0024,-2.3320,1.4218,-3.1186
2024-10-11T12:15:34.337Z,-0.0100,-0.9881,0.1531,0.0695,0.0244,-0.0662,-0.0160,0.0431,-0.0035,-2.3320,1.4218,-3.1186
2024-10-11T12:15:34.348Z,-0.0054,-0.9870,0.1505,0.0695,0.0244,-0.0662,-0.0162,0.0466,-0.0052,-2.3320,1.4218,-3.1186
2024-10-11T12:15:34.359Z,-0.0062,-0.9852,0.1476,0.0145,-0.0362,-0.0016,-0.0157,0.0440,-0.0038,-2.3315,1.4222,-3.1181
2024-10-11T12:15:34.368Z,-0.0057,-0.9853,0.1433,0.0145,-0.0362,-0.0016,-0.0162,0.0440,-0.0076,-2.3315,1.4222,-3.1181
2024-10-11T12:15:34.378Z,-0.0036,-0.9852,0.1408,0.0145,-0.0362,-0.0016,-0.0137,0.0428,-0.0094,-2.3315,1.4222,-3.1181
2024-10-11T12:15:34.388Z,-0.0027,-0.9844,0.1388,-0.0060,-0.0393,0.0777,-0.0134,0.0438,-0.0097,-2.3302,1.4226,-3.1183
2024-10-11T12:15:34.397Z,-0.0001,-0.9836,0.1354,-0.0060,-0.0393,0.0777,-0.0133,0.0419,-0.0092,-2.3302,1.4226,-3.1183
2024-10-11T12:15:34.410Z,0.0024,-0.9846,0.1348,-0.0060,-0.0393,0.0777,-0.0110,0.0399,-0.0078,-2.3302,1.4226,-3.1183
2024-10-11T12:15:34.417Z,-0.0000,-0.9864,0.1288,-0.0494,-0.0424,0.1479,-0.0081,0.0431,-0.0090,-2.3289,1.4229,-3.1186
2024-10-11T12:15:34.427Z,0.0001,-0.9857,0.1281,-0.0494,-0.0424,0.1479,-0.0072,0.0405,-0.0072,-2.3289,1.4229,-3.1186
2024-10-11T12:15:34.437Z,-0.0021,-0.9861,0.1288,-0.0494,-0.0424,0.1479,-0.0053,0.0424,-0.0061,-2.3289,1.4229,-3.1186
2024-10-11T12:15:34.447Z,-0.0047,-0.9864,0.1276,0.0008,-0.0255,0.1870,-0.0062,0.0416,-0.0103,-2.3273,1.4231,-3.1193
2024-10-11T12:15:34.458Z,-0.0061,-0.9862,0.1313,0.0008,-0.0255,0.1870,-0.0057,0.0436,-0.0117,-2.3273,1.4231,-3.1193
2024-10-11T12:15:34.467Z,-0.0080,-0.9865,0.1315,0.0008,-0.0255,0.1870,-0.0039,0.0413,-0.0082,-2.3273,1.4231,-3.1193
2024-10-11T12:15:34.477Z,-0.0096,-0.9861,0.1288,0.0591,-0.0291,0.1733,-0.0016,0.0424,-0.0145,-2.3253,1.4232,-3.1202
2024-10-11T12:15:34.487Z,-0.0055,-0.9833,0.1330,0.0591,-0.0291,0.1733,0.0006,0.0399,-0.0101,-2.3253,1.4232,-3.1202
2024-10-11T12:15:34.497Z,-0.0044,-0.9847,0.1345,0.0591,-0.0291,0.1733,0.0017,0.0387,-0.0123,-2.3253,1.4232,-3.1202
2024-10-11T12:15:34.508Z,-0.0018,-0.9850,0.1370,0.0007,-0.0360,0.1108,0.0038,0.0376,-0.0110,-2.3228,1.4232,-3.1217
2024-10-11T12:15:34.517Z,-0.0027,-0.9829,0.1379,0.0007,-0.0360,0.1108,0.0029,0.0388,-0.0126,-2.3228,1.4232,-3.1217
2024-10-11T12:15:34.527Z,-0.0037,-0.9838,0.1401,0.0007,-0.0360,0.1108,0.0042,0.0381,-0.0130,-2.3228,1.4232,-3.1217
2024-10-11T12:15:34.537Z,-0.0046,-0.9849,0.1410,0.0115,-0.0531,0.0622,0.0042,0.0394,-0.0128,-2.3206,1.4232,-3.1230
2024-10-11T12:15:34.547Z,-0.0032,-0.9881,0.1441,0.0115,-0.0531,0.0622,0.0045,0.0373,-0.0132,-2.3206,1.4232,-3.1230
2024-10-11T12:15:34.559Z,-0.0025,-0.9879,0.1466,0.0115,-0.0531,0.0622,0.0060,0.0397,-0.0103,-2.3206,1.4232,-3.1230
2024-10-11T12:15:34.567Z,0.0003,-0.9890,0.1461,-0.0230,-0.0037,0.0008,0.0073,0.0374,-0.0125,-2.3186,1.4230,-3.1241
2024-10-11T12:15:34.577Z,0.0002,-0.9906,0.1465,-0.0230,-0.0037,0.0008,0.0058,0.0359,-0.0107,-2.3186,1.4230,-3.1241
2024-10-11T12:15:34.587Z,0.0018,-0.9906,0.1491,-0.0230,-0.0037,0.0008,0.0045,0.0338,-0.0100,-2.3186,1.4230,-3.1241
2024-10-11T12:15:34.598Z,0.0017,-0.9909,0.1495,-0.0308,0.0175,-0.0154,0.0033,0.0306,-0.0097,-2.3166,1.4229,-3.1253
2024-10-11T12:15:34.609Z,0.0085,-0.9924,0.1557,-0.0308,0.0175,-0.0154,0.0017,0.0286,-0.0083,-2.3166,1.4229,-3.1253
2024-10-11T12:15:34.617Z,0.0103,-0.9904,0.1592,-0.0308,0.0175,-0.0154,0.0006,0.0248,-0.0059,-2.3166,1.4229,-3.1253
2024-10-11T12:15:34.627Z,0.0056,-0.9915,0.1584,-0.1034,0.0219,-0.1160,-0.0004,0.0190,-0.0089,-2.3150,1.4228,-3.1263
2024-10-11T12:15:34.637Z,0.0067,-0.9904,0.1602,-0.1034,0.0219,-0.1160,-0.0012,0.0167,-0.0068,-2.3150,1.4228,-3.1263
2024-10-11T12:15:34.647Z,0.0062,-0.9880,0.1613,-0.1034,0.0219,-0.1160,-0.0021,0.0121,-0.0071,-2.3150,1.4228,-3.1263
2024-10-11T12:15:34.658Z,0.0099,-0.9870,0.1634,-0.1005,-0.0245,-0.1467,-0.0046,0.0035,-0.0095,-2.3135,1.4228,-3.1276
2024-10-11T12:15:34.667Z,0.0138,-0.9876,0.1624,-0.1005,-0.0245,-0.1467,-0.0079,0.0004,-0.0091,-2.3135,1.4228,-3.1276
2024-10-11T12:15:34.677Z,0.0174,-0.9894,0.1621,-0.1005,-0.0245,-0.1467,-0.0091,-0.0067,-0.0066,-2.3135,1.4228,-3.1276
2024-10-11T12:15:34.687Z,0.0172,-0.9896,0.1570,-0.1921,0.0010,-0.1163,-0.0086,-0.0124,-0.0093,-2.3120,1.4230,-3.1294
2024-10-11T12:15:34.697Z,0.0192,-0.9884,0.1545,-0.1921,0.0010,-0.1163,-0.0089,-0.0202,-0.0066,-2.3120,1.4230,-3.1294
2024-10-11T12:15:34.708Z,0.0195,-0.9876,0.1530,-0.1921,0.0010,-0.1163,-0.0082,-0.0249,-0.0090,-2.3120,1.4230,-3.1294
2024-10-11T12:15:34.717Z,0.0191,-0.9871,0.1472,-0.2109,-0.0249,-0.0341,-0.0103,-0.0295,-0.0074,-2.3103,1.4232,-3.1320
2024-10-11T12:15:34.727Z,0.0170,-0.9898,0.1424,-0.2109,-0.0249,-0.0341,-0.0076,-0.0332,-0.0072,-2.3103,1.4232,-3.1320
2024-10-11T12:15:34.737Z,0.0120,-0.9901,0.1418,-0.2109,-0.0249,-0.0341,-0.0064,-0.0331,-0.0048,-2.3103,1.4232,-3.1320
2024-10-11T12:15:34.747Z,0.0084,-0.9923,0.1397,-0.1019,0.0249,0.0570,-0.0074,-0.0320,-0.0056,-2.3089,1.4233,-3.1346
2024-10-11T12:15:34.758Z,0.0056,-0.9921,0.1375,-0.1019,0.0249,0.0570,-0.0066,-0.0265,-0.0046,-2.3089,1.4233,-3.1346
2024-10-11T12:15:34.767Z,0.0069,-0.9889,0.1394,-0.1019,0.0249,0.0570,-0.0031,-0.0243,-0.0007,-2.3089,1.4233,-3.1346
2024-10-11T12:15:34.777Z,0.0059,-0.9866,0.1368,-0.0676,-0.0154,0.0817,-0.0058,-0.0234,0.0007,-2.3081,1.4234,-3.1365
2024-10-11T12:15:34.787Z,0.0082,-0.9836,0.1361,-0.0676,-0.0154,0.0817,-0.0034,-0.0209,0.0006,-2.3081,1.4234,-3.1365
2024-10-11T12:15:34.797Z,0.0095,-0.9820,0.1395,-0.0676,-0.0154,0.0817,-0.0027,-0.0198,0.0034,-2.3081,1.4234,-3.1365
2024-10-11T12:15:34.809Z,0.0116,-0.9792,0.1406,-0.1111,-0.0898,0.0692,-0.0018,-0.0222,0.0019,-2.3081,1.4235,-3.1374
2024-10-11T12:15:34.817Z,0.0113,-0.9792,0.1414,-0.1111,-0.0898,0.0692,0.0017,-0.0245,0.0035,-2.3081,1.4235,-3.1374
2024-10-11T12:15:34.828Z,0.0083,-0.9802,0.1398,-0.1111,-0.0898,0.0692,0.0040,-0.0230,0.0057,-2.3081,1.4235,-3.1374
2024-10-11T12:15:34.837Z,0.0065,-0.9819,0.1425,-0.0796,-0.0732,0.0584,0.0057,-0.0256,0.0040,-2.3088,1.4235,-3.1377
2024-10-11T12:15:34.847Z,0.0014,-0.9858,0.1442,-0.0796,-0.0732,0.0584,0.0067,-0.0279,0.0044,-2.3088,1.4235,-3.1377
2024-10-11T12:15:34.858Z,0.0062,-0.9930,0.1446,-0.0796,-0.0732,0.0584,0.0064,-0.0299,0.0051,-2.3088,1.4235,-3.1377
2024-10-11T12:15:34.867Z,0.0056,-0.9938,0.1471,-0.0727,0.0503,0.0057,0.0075,-0.0297,0.0049,-2.3097,1.4233,-3.1378
2024-10-11T12:15:34.877Z,0.0075,-0.9957,0.1487,-0.0727,0.0503,0.0057,0.0088,-0.0328,0.0067,-2.3097,1.4233,-3.1378
2024-10-11T12:15:34.887Z,0.0048,-0.9952,0.1448,-0.0727,0.0503,0.0057,0.0100,-0.0312,0.0063,-2.3097,1.4233,-3.1378
2024-10-11T12:15:34.897Z,0.0042,-0.9937,0.1435,-0.0435,0.0564,0.0261,0.0107,-0.0327,0.0050,-2.3107,1.4231,-3.1380
2024-10-11T12:15:34.908Z,0.0033,-0.9911,0.1441,-0.0435,0.0564,0.0261,0.0130,-0.0372,0.0037,-2.3107,1.4231,-3.1380
2024-10-11T12:15:34.917Z,0.0051,-0.9876,0.1447,-0.0435,0.0564,0.0261,0.0129,-0.0369,0.0068,-2.3107,1.4231,-3.1380
2024-10-11T12:15:34.927Z,0.0033,-0.9836,0.1475,-0.0474,-0.0376,0.0107,0.0116,-0.0375,0.0025,-2.3117,1.4228,-3.1383
2024-10-11T12:15:34.937Z,0.0059,-0.9807,0.1471,-0.0474,-0.0376,0.0107,0.0112,-0.0427,0.0047,-2.3117,1.4228,-3.1383
2024-10-11T12:15:34.947Z,0.0011,-0.9786,0.1465,-0.0474,-0.0376,0.0107,0.0151,-0.0429,0.0026,-2.3117,1.4228,-3.1383
2024-10-11T12:15:34.958Z,0.0018,-0.9760,0.1457,-0.0146,-0.1181,0.0200,0.0152,-0.0436,0.0020,-2.3125,1.4224,-3.1391
2024-10-11T12:15:34.967Z,0.0004,-0.9772,0.1431,-0.0146,-0.1181,0.0200,0.0167,-0.0440,0.0030,-2.3125,1.4224,-3.1391
2024-10-11T12:15:34.977Z,-0.0017,-0.9783,0.1455,-0.0146,-0.1181,0.0200,0.0158,-0.0420,0.0023,-2.3125,1.4224,-3.1391
2024-10-11T12:15:34.987Z,-0.0020,-0.9789,0.1465,0.0251,-0.0997,0.0238,0.0188,-0.0395,0.0016,-2.3129,1.4219,-3.1402
2024-10-11T12:15:34.997Z,-0.0021,-0.9784,0.1462,0.0251,-0.0997,0.0238,0.0179,-0.0390,0.0031,-2.3129,1.4219,-3.1402
2024-10-11T12:15:35.008Z,-0.0045,-0.9787,0.1440,0.0251,-0.0997,0.0238,0.0161,-0.0362,0.0025,-2.3129,1.4219,-3.1402
2024-10-11T12:15:35.017Z,-0.0037,-0.9806,0.1458,0.0527,-0.0916,0.0488,0.0206,-0.0337,0.0043,-2.3133,1.4214,-3.1412
2024-10-11T12:15:35.028Z,0.0012,-0.9817,0.1465,0.0527,-0.0916,0.0488,0.0163,-0.0323,0.0026,-2.3133,1.4214,-3.1412
2024-10-11T12:15:35.038Z,0.0022,-0.9818,0.1468,0.0527,-0.0916,0.0488,0.0178,-0.0326,0.0011,-2.3133,1.4214,-3.1412
2024-10-11T12:15:35.048Z,0.0029,-0.9841,0.1488,-0.0275,-0.0549,0.0238,0.0195,-0.0293,-0.0001,-2.3139,1.4208,3.1413
2024-10-11T12:15:35.060Z,0.0025,-0.9855,0.1500,-0.0275,-0.0549,0.0238,0.0184,-0.0291,0.0011,-2.3139,1.4208,3.1413
2024-10-11T12:15:35.067Z,0.0008,-0.9857,0.1482,-0.0275,-0.0549,0.0238,0.0176,-0.0260,-0.0012,-2.3139,1.4208,3.1413
2024-10-11T12:15:35.077Z,-0.0022,-0.9877,0.1523,0.0211,-0.0236,-0.0016,0.0189,-0.0241,-0.0003,-2.3144,1.4203,3.1407
2024-10-11T12:15:35.087Z,0.0027,-0.9875,0.1541,0.0211,-0.0236,-0.0016,0.0180,-0.0242,-0.0008,-2.3144,1.4203,3.1407
2024-10-11T12:15:35.097Z,-0.0018,-0.9892,0.1584,0.0211,-0.0236,-0.0016,0.0205,-0.0223,0.0005,-2.3144,1.4203,3.1407
2024-10-11T12:15:35.109Z,-0.0017,-0.9911,0.1592,0.0289,0.0144,-0.0884,0.0181,-0.0169,-0.0023,-2.3147,1.4197,3.1401
2024-10-11T12:15:35.117Z,-0.0012,-0.9926,0.1625,0.0289,0.0144,-0.0884,0.0161,-0.0175,0.0012,-2.3147,1.4197,3.1401
2024-10-11T12:15:35.127Z,-0.0017,-0.9929,0.1621,0.0289,0.0144,-0.0884,0.0158,-0.0181,-0.0003,-2.3147,1.4197,3.1401
2024-10-11T12:15:35.137Z,-0.0026,-0.9946,0.1593,0.0262,0.0512,-0.0970,0.0144,-0.0160,0.0012,-2.3149,1.4192,3.1394
2024-10-11T12:15:35.147Z,-0.0069,-0.9934,0.1610,0.0262,0.0512,-0.0970,0.0181,-0.0125,0.0018,-2.3149,1.4192,3.1394
2024-10-11T12:15:35.158Z,-0.0042,-0.9933,0.1621,0.0262,0.0512,-0.0970,0.0141,-0.0132,-0.0005,-2.3149,1.4192,3.1394
2024-10-11T12:15:35.167Z,-0.0023,-0.9926,0.1639,0.0277,0.0507,-0.1151,0.0124,-0.0139,-0.0036,-2.3149,1.4187,3.1388
2024-10-11T12:15:35.177Z,0.0003,-0.9938,0.1655,0.0277,0.0507,-0.1151,0.0097,-0.0143,-0.0012,-2.3149,1.4187,3.1388
2024-10-11T12:15:35.187Z,0.0004,-0.9939,0.1631,0.0277,0.0507,-0.1151,0.0098,-0.0128,-0.0045,-2.3149,1.4187,3.1388
2024-10-11T12:15:35.197Z,0.0011,-0.9968,0.1627,0.0090,0.0697,-0.1037,0.0078,-0.0117,-0.0009,-2.3147,1.4183,3.1380
2024-10-11T12:15:35.208Z,-0.0027,-0.9979,0.1624,0.0090,0.0697,-0.1037,0.0083,-0.0131,-0.0016,-2.3147,1.4183,3.1380
2024-10-11T12:15:35.217Z,-0.0002,-0.9991,0.1611,0.0090,0.0697,-0.1037,0.0071,-0.0110,-0.0033,-2.3147,1.4183,3.1380
2024-10-11T12:15:35.227Z,-0.0018,-1.0025,0.1629,-0.0021,0.1190,-0.0960,0.0056,-0.0093,-0.0043,-2.3145,1.4180,3.1372
2024-10-11T12:15:35.237Z,-0.0034,-1.0032,0.1615,-0.0021,0.1190,-0.0960,0.0033,-0.0131,-0.0038,-2.3145,1.4180,3.1372
2024-10-11T12:15:35.247Z,0.0009,-0.9997,0.1611,-0.0021,0.1190,-0.0960,0.0015,-0.0092,-0.0032,-2.3145,1.4180,3.1372
2024-10-11T12:15:35.259Z,-0.0021,-0.9988,0.1586,0.0169,0.0959,-0.0718,-0.0006,-0.0098,-0.0026,-2.3143,1.4179,3.1364
2024-10-11T12:15:35.268Z,-0.0001,-0.9965,0.1582,0.0169,0.0959,-0.0718,-0.0016,-0.0080,-0.0036,-2.3143,1.4179,3.1364
2024-10-11T12:15:35.277Z,-0.0016,-0.9958,0.1587,0.0169,0.0959,-0.0718,0.0005,-0.0055,-0.0023,-2.3143,1.4179,3.1364
2024-10-11T12:15:35.287Z,-0.0014,-0.9942,0.1555,0.0383,0.0759,-0.0491,-0.0009,-0.0062,-0.0021,-2.3141,1.4177,3.1357
2024-10-11T12:15:35.297Z,0.0061,-0.9897,0.1526,0.0383,0.0759,-0.0491,-0.0013,-0.0065,-0.0004,-2.3141,1.4177,3.1357
2024-10-11T12:15:35.311Z,0.0048,-0.9902,0.1527,-0.0453,0.0152,0.0145,-0.0037,-0.0076,0.0003,-2.3142,1.4177,3.1354
2024-10-11T12:15:35.317Z,0.0043,-0.9900,0.1506,-0.0453,0.0152,0.0145,0.0002,-0.0087,0.0016,-2.3142,1.4177,3.1354
2024-10-11T12:15:35.327Z,0.0039,-0.9903,0.1514,-0.0453,0.0152,0.0145,-0.0023,-0.0096,-0.0010,-2.3142,1.4177,3.1354
2024-10-11T12:15:35.337Z,0.0041,-0.9904,0.1502,-0.0453,0.0152,0.0145,-0.0026,-0.0078,0.0002,-2.3142,1.4177,3.1354
2024-10-11T12:15:35.347Z,0.0039,-0.9892,0.1498,-0.0341,0.0181,0.0253,-0.0025,-0.0095,-0.0008,-2.3143,1.4178,3.1349
2024-10-11T12:15:35.358Z,0.0032,-0.9877,0.1478,-0.0341,0.0181,0.0253,-0.0006,-0.0089,-0.0024,-2.3143,1.4178,3.1349
2024-10-11T12:15:35.367Z,0.0047,-0.9870,0.1457,-0.0341,0.0181,0.0253,0.0002,-0.0097,-0.0005,-2.3143,1.4178,3.1349
2024-10-11T12:15:35.377Z,0.0054,-0.9873,0.1451,-0.0329,-0.0057,0.0586,-0.0010,-0.0092,-0.0003,-2.3145,1.4178,3.1346
2024-10-11T12:15:35.387Z,0.0087,-0.9875,0.1450,-0.0329,-0.0057,0.0586,-0.0022,-0.0117,0.0021,-2.3145,1.4178,3.1346
2024-10-11T12:15:35.397Z,0.0101,-0.9849,0.1472,-0.0329,-0.0057,0.0586,0.0000,-0.0163,0.0021,-2.3145,1.4178,3.1346
2024-10-11T12:15:35.407Z,0.0093,-0.9839,0.1460,-0.0898,-0.0401,0.0588,-0.0014,-0.0152,0.0010,-2.3151,1.4177,3.1345
2024-10-11T12:15:35.417Z,0.0097,-0.9821,0.1452,-0.0898,-0.0401,0.0588,0.0012,-0.0191,0.0025,-2.3151,1.4177,3.1345
2024-10-11T12:15:35.427Z,0.0094,-0.9822,0.1479,-0.0898,-0.0401,0.0588,0.0016,-0.0169,0.0048,-2.3151,1.4177,3.1345
2024-10-11T12:15:35.437Z,0.0099,-0.9835,0.1477,-0.0693,-0.0486,0.0404,0.0037,-0.0182,0.0054,-2.3155,1.4177,3.1342
2024-10-11T12:15:35.447Z,0.0069,-0.9842,0.1483,-0.0693,-0.0486,0.0404,0.0034,-0.0163,0.0078,-2.3155,1.4177,3.1342
2024-10-11T12:15:35.457Z,0.0072,-0.9850,0.1491,-0.0693,-0.0486,0.0404,0.0038,-0.0216,0.0079,-2.3155,1.4177,3.1342
2024-10-11T12:15:35.467Z,0.0071,-0.9881,0.1516,-0.0539,-0.0253,0.0324,0.0030,-0.0183,0.0062,-2.3162,1.4177,3.1340
2024-10-11T12:15:35.478Z,0.0030,-1.0032,0.1516,-0.0539,-0.0253,0.0324,0.0012,-0.0159,0.0072,-2.3162,1.4177,3.1340
2024-10-11T12:15:35.489Z,-0.0011,-1.0199,0.1492,-0.0539,-0.0253,0.0324,0.0039,-0.0175,0.0086,-2.3162,1.4177,3.1340
2024-10-11T12:15:35.497Z,0.0023,-1.0224,0.1468,0.0139,0.3564,0.0374,0.0041,-0.0174,0.0071,-2.3176,1.4176,3.1346
2024-10-11T12:15:35.507Z,0.0032,-1.0151,0.1546,0.0139,0.3564,0.0374,0.0035,-0.0184,0.0111,-2.3176,1.4176,3.1346
2024-10-11T12:15:35.517Z,0.0030,-1.0095,0.1596,0.0139,0.3564,0.0374,0.0039,-0.0202,0.0101,-2.3176,1.4176,3.1346
2024-10-11T12:15:35.527Z,0.0026,-1.0048,0.1591,-0.0361,0.1873,-0.0776,0.0035,-0.0217,0.0119,-2.3196,1.4175,3.1358
2024-10-11T12:15:35.537Z,0.0028,-0.9972,0.1680,-0.0361,0.1873,-0.0776,-0.0024,-0.0211,0.0098,-2.3196,1.4175,3.1358
2024-10-11T12:15:35.547Z,0.0033,-0.9907,0.1801,-0.0361,0.1873,-0.0776,-0.0040,-0.0218,0.0087,-2.3196,1.4175,3.1358
2024-10-11T12:15:35.557Z,-0.0018,-0.9859,0.1777,-0.0035,0.0050,-0.2711,-0.0122,-0.0284,0.0087,-2.3218,1.4176,3.1370
2024-10-11T12:15:35.567Z,-0.0068,-0.9807,0.1732,-0.0035,0.0050,-0.2711,-0.0101,-0.0295,0.0088,-2.3218,1.4176,3.1370
2024-10-11T12:15:35.576Z,-0.0005,-0.9758,0.1609,-0.0035,0.0050,-0.2711,-0.0139,-0.0301,0.0073,-2.3218,1.4176,3.1370
2024-10-11T12:15:35.587Z,0.0099,-0.9755,0.1548,-0.0490,-0.1375,-0.0457,-0.0125,-0.0300,0.0082,-2.3233,1.4179,3.1374
2024-10-11T12:15:35.597Z,0.0139,-0.9801,0.1635,-0.0490,-0.1375,-0.0457,-0.0162,-0.0282,0.0064,-2.3233,1.4179,3.1374
2024-10-11T12:15:35.607Z,0.0089,-0.9972,0.1508,-0.0490,-0.1375,-0.0457,-0.0146,-0.0299,0.0110,-2.3233,1.4179,3.1374
2024-10-11T12:15:35.617Z,0.0053,-0.9931,0.1518,-0.0512,0.0792,0.0555,-0.0177,-0.0277,0.0086,-2.3253,1.4184,3.1382
2024-10-11T12:15:35.627Z,0.0077,-0.9732,0.1535,-0.0512,0.0792,0.0555,-0.0214,-0.0291,0.0094,-2.3253,1.4184,3.1382
2024-10-11T12:15:35.637Z,0.0095,-0.9711,0.1587,-0.0512,0.0792,0.0555,-0.0205,-0.0321,0.0119,-2.3253,1.4184,3.1382
2024-10-11T12:15:35.647Z,0.0033,-0.9737,0.1402,-0.0581,-0.1584,0.0530,-0.0177,-0.0285,0.0134,-2.3275,1.4189,3.1393
2024-10-11T12:15:35.657Z,0.0091,-0.9747,0.1353,-0.0581,-0.1584,0.0530,-0.0185,-0.0287,0.0112,-2.3275,1.4189,3.1393
2024-10-11T12:15:35.667Z,0.0059,-0.9685,0.1399,-0.0581,-0.1584,0.0530,-0.0155,-0.0275,0.0121,-2.3275,1.4189,3.1393
2024-10-11T12:15:35.677Z,0.0091,-0.9714,0.1453,-0.0562,-0.1878,0.0842,-0.0160,-0.0288,0.0135,-2.3299,1.4193,3.1406
2024-10-11T12:15:35.689Z,0.0131,-0.9679,0.1535,-0.0562,-0.1878,0.0842,-0.0154,-0.0196,0.0183,-2.3299,1.4193,3.1406
2024-10-11T12:15:35.698Z,0.0151,-0.9712,0.1593,-0.0562,-0.1878,0.0842,-0.0154,-0.0196,0.0183,-2.3299,1.4193,3.1406
2024-10-11T12:15:35.707Z,0.0143,-0.9733,0.1605,-0.1497,-0.1655,-0.0963,-0.0137,-0.0225,0.0169,-2.3329,1.4197,-3.1406
2024-10-11T12:15:35.717Z,0.0009,-0.9822,0.1631,-0.1497,-0.1655,-0.0963,-0.0142,-0.0187,0.0155,-2.3329,1.4197,-3.1406
2024-10-11T12:15:35.727Z,0.0017,-0.9903,0.1570,-0.1497,-0.1655,-0.0963,-0.0123,-0.0204,0.0164,-2.3329,1.4197,-3.1406
2024-10-11T12:15:35.738Z,0.0054,-0.9995,0.1346,-0.0350,0.0945,0.0368,-0.0063,-0.0240,0.0162,-2.3363,1.4200,-3.1382
2024-10-11T12:15:35.748Z,0.0101,-0.9938,0.1513,-0.0350,0.0945,0.0368,-0.0058,-0.0268,0.0162,-2.3363,1.4200,-3.1382
2024-10-11T12:15:35.757Z,-0.0011,-0.9838,0.1537,-0.0350,0.0945,0.0368,-0.0058,-0.0268,0.0162,-2.3363,1.4200,-3.1382
2024-10-11T12:15:35.768Z,-0.0128,-0.9913,0.1474,0.0912,-0.0237,-0.0718,-0.0075,-0.0258,0.0105,-2.3394,1.4203,-3.1360
2024-10-11T12:15:35.777Z,-0.0084,-0.9885,0.1580,0.0912,-0.0237,-0.0718,-0.0075,-0.0258,0.0105,-2.3394,1.4203,-3.1360
2024-10-11T12:15:35.788Z,-0.0105,-0.9827,0.1664,0.0912,-0.0237,-0.0718,-0.0059,-0.0261,0.0079,-2.3394,1.4203,-3.1360
2024-10-11T12:15:35.797Z,-0.0164,-0.9798,0.1533,0.1287,-0.0841,-0.0971,-0.0059,-0.0261,0.0079,-2.3416,1.4205,-3.1348
2024-10-11T12:15:35.809Z,-0.0180,-0.9828,0.1467,0.1287,-0.0841,-0.0971,-0.0027,-0.0269,0.0063,-2.3416,1.4205,-3.1348
2024-10-11T12:15:35.817Z,-0.0065,-0.9812,0.1578,0.1287,-0.0841,-0.0971,-0.0027,-0.0269,0.0063,-2.3416,1.4205,-3.1348
2024-10-11T12:15:35.827Z,-0.0120,-0.9879,0.1580,0.0489,-0.0506,-0.0805,-0.0006,-0.0269,0.0039,-2.3431,1.4206,-3.1343
2024-10-11T12:15:35.837Z,-0.0157,-0.9931,0.1586,0.0489,-0.0506,-0.0805,-0.0043,-0.0233,0.0021,-2.3431,1.4206,-3.1343
2024-10-11T12:15:35.848Z,-0.0088,-0.9964,0.1611,0.0489,-0.0506,-0.0805,0.0005,-0.0187,0.0033,-2.3431,1.4206,-3.1343
2024-10-11T12:15:35.858Z,-0.0087,-1.0020,0.1526,0.0701,0.0878,-0.0570,-0.0017,-0.0151,0.0026,-2.3441,1.4206,-3.1343
2024-10-11T12:15:35.868Z,-0.0019,-1.0035,0.1494,0.0701,0.0878,-0.0570,0.0009,-0.0172,0.0016,-2.3441,1.4206,-3.1343
2024-10-11T12:15:35.877Z,-0.0039,-0.9988,0.1634,0.0701,0.0878,-0.0570,0.0009,-0.0172,0.0016,-2.3441,1.4206,-3.1343
2024-10-11T12:15:35.888Z,-0.0087,-0.9945,0.1592,0.0714,0.0692,-0.0930,0.0004,-0.0125,0.0034,-2.3450,1.4206,-3.1341
2024-10-11T12:15:35.898Z,-0.0043,-1.0025,0.1545,0.0714,0.0692,-0.0930,-0.0008,-0.0120,0.0030,-2.3450,1.4206,-3.1341
2024-10-11T12:15:35.909Z,-0.0022,-1.0046,0.1621,0.0066,0.1937,-0.1434,-0.0008,-0.0120,0.0030,-2.3457,1.4206,-3.1340
2024-10-11T12:15:35.918Z,-0.0036,-1.0087,0.1626,0.0066,0.1937,-0.1434,-0.0068,-0.0045,0.0053,-2.3457,1.4206,-3.1340
2024-10-11T12:15:35.927Z,-0.0043,-1.0053,0.1741,0.0066,0.1937,-0.1434,-0.0068,-0.0045,0.0053,-2.3457,1.4206,-3.1340
2024-10-11T12:15:35.938Z,-0.0050,-1.0014,0.1756,0.0066,0.1937,-0.1434,-0.0100,-0.0036,-0.0005,-2.3457,1.4206,-3.1340
2024-10-11T12:15:35.948Z,-0.0123,-0.9980,0.1708,0.0863,0.0957,-0.2730,-0.0130,-0.0079,0.0015,-2.3469,1.4207,-3.1334
2024-10-11T12:15:35.959Z,-0.0179,-0.9951,0.1609,0.0863,0.0957,-0.2730,-0.0110,-0.0069,-0.0003,-2.3469,1.4207,-3.1334
2024-10-11T12:15:35.968Z,-0.0120,-0.9902,0.1608,0.0863,0.0957,-0.2730,-0.0145,-0.0094,0.0015,-2.3469,1.4207,-3.1334
2024-10-11T12:15:35.978Z,-0.0028,-0.9857,0.1587,0.0430,-0.0108,-0.1309,-0.0185,-0.0052,-0.0018,-2.3473,1.4210,-3.1334
2024-10-11T12:15:35.987Z,-0.0054,-0.9885,0.1529,0.0430,-0.0108,-0.1309,-0.0185,-0.0052,-0.0018,-2.3473,1.4210,-3.1334
2024-10-11T12:15:35.998Z,-0.0074,-0.9930,0.1550,0.0430,-0.0108,-0.1309,-0.0179,-0.0074,-0.0013,-2.3473,1.4210,-3.1334
2024-10-11T12:15:36.008Z,-0.0034,-0.9949,0.1562,0.0534,0.0542,-0.0766,-0.0212,-0.0076,-0.0022,-2.3472,1.4215,-3.1340
2024-10-11T12:15:36.018Z,0.0017,-0.9976,0.1454,0.0534,0.0542,-0.0766,-0.0181,-0.0108,-0.0016,-2.3472,1.4215,-3.1340
2024-10-11T12:15:36.028Z,-0.0025,-1.0036,0.1455,0.0534,0.0542,-0.0766,-0.0222,-0.0129,-0.0009,-2.3472,1.4215,-3.1340
2024-10-11T12:15:36.038Z,-0.0032,-0.9946,0.1474,0.0235,0.1219,0.0297,-0.0214,-0.0105,-0.0045,-2.3472,1.4220,-3.1345
2024-10-11T12:15:36.048Z,-0.0043,-0.9851,0.1445,0.0235,0.1219,0.0297,-0.0242,-0.0117,-0.0040,-2.3472,1.4220,-3.1345
2024-10-11T12:15:36.057Z,-0.0018,-0.9791,0.1482,0.0235,0.1219,0.0297,-0.0242,-0.0117,-0.0040,-2.3472,1.4220,-3.1345
2024-10-11T12:15:36.067Z,0.0016,-0.9794,0.1431,-0.0178,-0.0837,0.0391,-0.0243,-0.0149,-0.0009,-2.3469,1.4226,-3.1354
2024-10-11T12:15:36.078Z,0.0020,-0.9823,0.1455,-0.0178,-0.0837,0.0391,-0.0241,-0.0167,-0.0024,-2.3469,1.4226,-3.1354
2024-10-11T12:15:36.088Z,-0.0022,-0.9822,0.1514,-0.0178,-0.0837,0.0391,-0.0234,-0.0155,-0.0024,-2.3469,1.4226,-3.1354
2024-10-11T12:15:36.098Z,-0.0037,-0.9793,0.1489,0.0294,-0.0762,-0.0326,-0.0260,-0.0153,-0.0025,-2.3468,1.4233,-3.1363
2024-10-11T12:15:36.108Z,0.0005,-0.9818,0.1488,0.0294,-0.0762,-0.0326,-0.0273,-0.0173,-0.0011,-2.3468,1.4233,-3.1363
2024-10-11T12:15:36.118Z,0.0036,-0.9901,0.1535,-0.0501,0.0424,-0.1118,-0.0273,-0.0173,-0.0011,-2.3468,1.4241,-3.1370
2024-10-11T12:15:36.128Z,0.0039,-0.9956,0.1542,-0.0501,0.0424,-0.1118,-0.0282,-0.0143,0.0013,-2.3468,1.4241,-3.1370
2024-10-11T12:15:36.138Z,-0.0024,-0.9964,0.1513,-0.0501,0.0424,-0.1118,-0.0296,-0.0147,-0.0022,-2.3468,1.4241,-3.1370
2024-10-11T12:15:36.148Z,-0.0011,-0.9918,0.1462,-0.0501,0.0424,-0.1118,-0.0338,-0.0159,-0.0016,-2.3468,1.4241,-3.1370
2024-10-11T12:15:36.157Z,-0.0068,-0.9830,0.1571,0.0212,-0.0225,-0.0936,-0.0315,-0.0196,-0.0035,-2.3470,1.4249,-3.1376
2024-10-11T12:15:36.167Z,-0.0073,-0.9746,0.1564,0.0212,-0.0225,-0.0936,-0.0316,-0.0217,-0.0032,-2.3470,1.4249,-3.1376
2024-10-11T12:15:36.178Z,-0.0031,-0.9766,0.1562,0.0212,-0.0225,-0.0936,-0.0328,-0.0246,-0.0032,-2.3470,1.4249,-3.1376
2024-10-11T12:15:36.187Z,-0.0003,-0.9824,0.1482,0.0186,-0.0900,-0.0860,-0.0328,-0.0228,-0.0039,-2.3467,1.4258,-3.1386
2024-10-11T12:15:36.198Z,0.0014,-0.9798,0.1466,0.0186,-0.0900,-0.0860,-0.0288,-0.0212,-0.0035,-2.3467,1.4258,-3.1386
2024-10-11T12:15:36.209Z,0.0017,-0.9759,0.1417,-0.0281,-0.1406,0.0241,-0.0291,-0.0235,-0.0016,-2.3463,1.4267,-3.1399
2024-10-11T12:15:36.218Z,0.0010,-0.9760,0.1392,-0.0281,-0.1406,0.0241,-0.0276,-0.0281,-0.0035,-2.3463,1.4267,-3.1399
2024-10-11T12:15:36.228Z,-0.0001,-0.9751,0.1349,-0.0281,-0.1406,0.0241,-0.0240,-0.0287,-0.0035,-2.3463,1.4267,-3.1399
2024-10-11T12:15:36.239Z,-0.0037,-0.9831,0.1309,0.0200,-0.0214,0.1464,-0.0218,-0.0293,-0.0013,-2.3461,1.4274,-3.1412
2024-10-11T12:15:36.247Z,-0.0028,-0.9915,0.1312,0.0200,-0.0214,0.1464,-0.0175,-0.0295,-0.0027,-2.3461,1.4274,-3.1412
2024-10-11T12:15:36.257Z,-0.0035,-0.9976,0.1209,0.0200,-0.0214,0.1464,-0.0149,-0.0279,-0.0034,-2.3461,1.4274,-3.1412
2024-10-11T12:15:36.269Z,-0.0020,-0.9962,0.1206,0.0194,0.0289,0.2608,-0.0110,-0.0278,-0.0020,-2.3458,1.4278,3.1405
2024-10-11T12:15:36.279Z,0.0005,-0.9876,0.1196,0.0194,0.0289,0.2608,-0.0104,-0.0246,-0.0016,-2.3458,1.4278,3.1405
2024-10-11T12:15:36.287Z,0.0046,-0.9850,0.1221,0.0194,0.0289,0.2608,-0.0053,-0.0215,0.0009,-2.3458,1.4278,3.1405
2024-10-11T12:15:36.299Z,0.0054,-0.9831,0.1240,-0.0364,-0.0497,0.1494,-0.0042,-0.0234,0.0021,-2.3457,1.4280,3.1394
2024-10-11T12:15:36.307Z,0.0009,-0.9856,0.1272,-0.0364,-0.0497,0.1494,-0.0014,-0.0240,0.0017,-2.3457,1.4280,3.1394
2024-10-11T12:15:36.317Z,-0.0049,-0.9815,0.1308,-0.0364,-0.0497,0.1494,0.0022,-0.0240,-0.0002,-2.3457,1.4280,3.1394
2024-10-11T12:15:36.329Z,-0.0069,-0.9817,0.1363,0.0663,-0.0613,0.0866,0.0022,-0.0240,-0.0002,-2.3463,1.4281,3.1391
2024-10-11T12:15:36.337Z,-0.0036,-0.9860,0.1360,0.0663,-0.0613,0.0866,0.0040,-0.0219,0.0030,-2.3463,1.4281,3.1391
2024-10-11T12:15:36.348Z,0.0019,-0.9908,0.1352,0.0663,-0.0613,0.0866,0.0068,-0.0183,0.0034,-2.3463,1.4281,3.1391
2024-10-11T12:15:36.359Z,0.0015,-0.9873,0.1357,0.0050,0.0144,0.0730,0.0078,-0.0194,0.0028,-2.3471,1.4280,3.1390
2024-10-11T12:15:36.368Z,-0.0030,-0.9931,0.1368,0.0050,0.0144,0.0730,0.0086,-0.0158,0.0023,-2.3471,1.4280,3.1390
2024-10-11T12:15:36.378Z,-0.0067,-0.9961,0.1552,0.0050,0.0144,0.0730,0.0060,-0.0178,0.0017,-2.3471,1.4280,3.1390
2024-10-11T12:15:36.387Z,-0.0097,-0.9953,0.1516,0.0050,0.0144,0.0730,0.0016,-0.0187,-0.0002,-2.3471,1.4280,3.1390
2024-10-11T12:15:36.397Z,-0.0117,-0.9917,0.1551,0.1210,0.0318,-0.1277,0.0009,-0.0207,0.0001,-2.3476,1.4278,3.1387
2024-10-11T12:15:36.407Z,-0.0102,-0.9843,0.1614,0.1210,0.0318,-0.1277,-0.0017,-0.0166,-0.0017,-2.3476,1.4278,3.1387
2024-10-11T12:15:36.418Z,-0.0091,-0.9857,0.1590,0.0894,-0.0395,-0.1223,-0.0012,-0.0224,-0.0018,-2.3479,1.4279,3.1382
2024-10-11T12:15:36.428Z,-0.0091,-0.9880,0.1514,0.0894,-0.0395,-0.1223,-0.0025,-0.0183,-0.0014,-2.3479,1.4279,3.1382
2024-10-11T12:15:36.437Z,-0.0092,-0.9929,0.1438,0.0894,-0.0395,-0.1223,-0.0058,-0.0162,-0.0028,-2.3479,1.4279,3.1382
2024-10-11T12:15:36.448Z,-0.0068,-0.9899,0.1420,0.0894,-0.0395,-0.1223,-0.0027,-0.0182,-0.0042,-2.3479,1.4279,3.1382
2024-10-11T12:15:36.457Z,-0.0043,-0.9892,0.1371,0.0700,-0.0017,0.0141,-0.0020,-0.0175,-0.0046,-2.3476,1.4279,3.1370
2024-10-11T12:15:36.467Z,-0.0006,-0.9806,0.1385,0.0700,-0.0017,0.0141,0.0005,-0.0198,-0.0052,-2.3476,1.4279,3.1370
2024-10-11T12:15:36.479Z,-0.0063,-0.9776,0.1341,0.0686,-0.1114,0.0636,0.0005,-0.0198,-0.0052,-2.3472,1.4278,3.1359
2024-10-11T12:15:36.487Z,-0.0047,-0.9838,0.1364,0.0686,-0.1114,0.0636,0.0004,-0.0214,-0.0038,-2.3472,1.4278,3.1359
2024-10-11T12:15:36.497Z,-0.0047,-0.9887,0.1383,0.0686,-0.1114,0.0636,0.0011,-0.0198,-0.0080,-2.3472,1.4278,3.1359
2024-10-11T12:15:36.508Z,-0.0051,-0.9921,0.1388,0.0585,0.0251,0.0963,0.0014,-0.0178,-0.0067,-2.3466,1.4277,3.1344
2024-10-11T12:15:36.517Z,-0.0043,-0.9925,0.1315,0.0585,0.0251,0.0963,0.0037,-0.0190,-0.0068,-2.3466,1.4277,3.1344
2024-10-11T12:15:36.527Z,-0.0005,-0.9960,0.1353,0.0585,0.0251,0.0963,0.0031,-0.0204,-0.0048,-2.3466,1.4277,3.1344
2024-10-11T12:15:36.537Z,0.0010,-0.9935,0.1405,-0.0132,0.0450,0.0185,0.0031,-0.0204,-0.0048,-2.3457,1.4276,3.1326
2024-10-11T12:15:36.547Z,0.0033,-0.9953,0.1418,-0.0132,0.0450,0.0185,0.0028,-0.0178,-0.0067,-2.3457,1.4276,3.1326
2024-10-11T12:15:36.558Z,0.0029,-0.9968,0.1367,-0.0132,0.0450,0.0185,0.0036,-0.0136,-0.0043,-2.3457,1.4276,3.1326
2024-10-11T12:15:36.568Z,0.0022,-0.9895,0.1378,-0.0288,-0.0640,0.0005,0.0018,-0.0091,-0.0030,-2.3452,1.4275,3.1314
2024-10-11T12:15:36.579Z,0.0069,-0.9795,0.1480,-0.0288,-0.0640,0.0005,0.0007,-0.0067,-0.0013,-2.3452,1.4275,3.1314
2024-10-11T12:15:36.587Z,0.0063,-0.9739,0.1505,-0.0288,-0.0640,0.0005,0.0016,-0.0063,-0.0012,-2.3452,1.4275,3.1314
2024-10-11T12:15:36.597Z,0.0050,-0.9758,0.1565,-0.0288,-0.0640,0.0005,-0.0010,-0.0059,0.0006,-2.3452,1.4275,3.1314
2024-10-11T12:15:36.607Z,0.0007,-0.9801,0.1528,-0.0041,-0.1037,-0.1079,-0.0028,-0.0037,0.0012,-2.3451,1.4275,3.1308
2024-10-11T12:15:36.617Z,0.0009,-0.9854,0.1494,-0.0041,-0.1037,-0.1079,-0.0028,0.0011,-0.0010,-2.3451,1.4275,3.1308
2024-10-11T12:15:36.630Z,-0.0027,-0.9806,0.1561,0.0642,-0.0805,-0.1262,-0.0036,0.0025,0.0000,-2.3453,1.4276,3.1307
2024-10-11T12:15:36.637Z,-0.0077,-0.9831,0.1522,0.0642,-0.0805,-0.1262,-0.0023,-0.0002,-0.0030,-2.3453,1.4276,3.1307
2024-10-11T12:15:36.647Z,-0.0086,-0.9857,0.1494,0.0642,-0.0805,-0.1262,-0.0042,0.0058,-0.0006,-2.3453,1.4276,3.1307
2024-10-11T12:15:36.658Z,-0.0009,-0.9870,0.1464,0.0219,-0.0419,-0.0498,-0.0061,0.0077,-0.0051,-2.3449,1.4277,3.1301
2024-10-11T12:15:36.667Z,-0.0029,-0.9835,0.1452,0.0219,-0.0419,-0.0498,-0.0034,0.0049,-0.0016,-2.3449,1.4277,3.1301
2024-10-11T12:15:36.678Z,-0.0011,-0.9841,0.1424,0.0219,-0.0419,-0.0498,0.0003,0.0034,-0.0028,-2.3449,1.4277,3.1301
2024-10-11T12:15:36.687Z,0.0014,-0.9829,0.1339,0.0323,-0.0833,0.0145,-0.0025,0.0067,-0.0066,-2.3443,1.4277,3.1294
2024-10-11T12:15:36.697Z,-0.0041,-0.9792,0.1458,0.0323,-0.0833,0.0145,-0.0034,0.0065,-0.0044,-2.3443,1.4277,3.1294
2024-10-11T12:15:36.707Z,-0.0027,-0.9820,0.1520,0.0323,-0.0833,0.0145,-0.0019,0.0094,-0.0059,-2.3443,1.4277,3.1294
2024-10-11T12:15:36.718Z,-0.0016,-0.9899,0.1516,0.0323,0.0309,-0.0705,-0.0014,0.0169,-0.0063,-2.3437,1.4276,3.1289
2024-10-11T12:15:36.728Z,0.0013,-0.9943,0.1467,0.0323,0.0309,-0.0705,0.0003,0.0155,-0.0029,-2.3437,1.4276,3.1289
2024-10-11T12:15:36.737Z,0.0060,-0.9924,0.1546,0.0323,0.0309,-0.0705,-0.0031,0.0215,-0.0019,-2.3437,1.4276,3.1289
2024-10-11T12:15:36.747Z,0.0078,-0.9955,0.1581,-0.0633,0.0707,-0.1735,-0.0031,0.0215,-0.0019,-2.3435,1.4276,3.1289
2024-10-11T12:15:36.757Z,0.0057,-1.0007,0.1596,-0.0633,0.0707,-0.1735,-0.0019,0.0232,-0.0012,-2.3435,1.4276,3.1289
2024-10-11T12:15:36.767Z,0.0015,-1.0060,0.1534,-0.0633,0.0707,-0.1735,-0.0047,0.0260,0.0011,-2.3435,1.4276,3.1289
2024-10-11T12:15:36.779Z,-0.0027,-1.0111,0.1527,0.0650,0.2164,-0.1152,-0.0050,0.0260,0.0002,-2.3437,1.4277,3.1296
2024-10-11T12:15:36.787Z,-0.0052,-1.0073,0.1591,0.0650,0.2164,-0.1152,-0.0076,0.0271,-0.0019,-2.3437,1.4277,3.1296
2024-10-11T12:15:36.796Z,-0.0063,-0.9993,0.1620,0.0650,0.2164,-0.1152,-0.0084,0.0253,-0.0037,-2.3437,1.4277,3.1296
2024-10-11T12:15:36.808Z,-0.0113,-0.9958,0.1628,0.1077,0.0550,-0.1773,-0.0107,0.0279,-0.0030,-2.3436,1.4278,3.1300
2024-10-11T12:15:36.817Z,-0.0071,-0.9930,0.1655,0.1077,0.0550,-0.1773,-0.0128,0.0228,-0.0029,-2.3436,1.4278,3.1300
2024-10-11T12:15:36.827Z,-0.0032,-0.9899,0.1680,0.1077,0.0550,-0.1773,-0.0130,0.0212,-0.0044,-2.3436,1.4278,3.1300
2024-10-11T12:15:36.838Z,-0.0074,-0.9951,0.1566,0.0979,0.0586,-0.1057,-0.0104,0.0222,-0.0059,-2.3426,1.4282,3.1296
2024-10-11T12:15:36.847Z,-0.0078,-0.9969,0.1506,0.0979,0.0586,-0.1057,-0.0148,0.0240,-0.0042,-2.3426,1.4282,3.1296
2024-10-11T12:15:36.857Z,-0.0042,-0.9949,0.1474,0.0979,0.0586,-0.1057,-0.0138,0.0277,-0.0064,-2.3426,1.4282,3.1296
2024-10-11T12:15:36.868Z,-0.0018,-0.9932,0.1448,0.0177,0.0448,0.0097,-0.0171,0.0253,-0.0078,-2.3416,1.4286,3.1290
2024-10-11T12:15:36.878Z,-0.0008,-0.9951,0.1395,0.0177,0.0448,0.0097,-0.0150,0.0239,-0.0039,-2.3416,1.4286,3.1290
2024-10-11T12:15:36.887Z,0.0048,-0.9918,0.1381,0.0177,0.0448,0.0097,-0.0147,0.0235,-0.0076,-2.3416,1.4286,3.1290
2024-10-11T12:15:36.898Z,0.0037,-0.9909,0.1381,0.0082,0.0317,0.0457,-0.0144,0.0155,-0.0069,-2.3405,1.4290,3.1283
2024-10-11T12:15:36.907Z,0.0010,-0.9943,0.1335,0.0082,0.0317,0.0457,-0.0105,0.0140,-0.0098,-2.3405,1.4290,3.1283
2024-10-11T12:15:36.917Z,-0.0038,-0.9883,0.1340,0.0082,0.0317,0.0457,-0.0141,0.0134,-0.0121,-2.3405,1.4290,3.1283
2024-10-11T12:15:36.929Z,-0.0020,-0.9873,0.1364,-0.0122,-0.0146,0.0364,-0.0121,0.0132,-0.0119,-2.3387,1.4293,3.1267
2024-10-11T12:15:36.936Z,0.0096,-0.9898,0.1388,-0.0122,-0.0146,0.0364,-0.0153,0.0123,-0.0077,-2.3387,1.4293,3.1267
2024-10-11T12:15:36.947Z,0.0184,-0.9942,0.1484,-0.0122,-0.0146,0.0364,-0.0136,0.0107,-0.0028,-2.3387,1.4293,3.1267
2024-10-11T12:15:36.957Z,0.0225,-0.9918,0.1466,-0.1757,0.0387,-0.0194,-0.0150,0.0077,-0.0045,-2.3373,1.4298,3.1255
2024-10-11T12:15:36.967Z,0.0145,-0.9933,0.1394,-0.1757,0.0387,-0.0194,-0.0134,0.0088,-0.0057,-2.3373,1.4298,3.1255
2024-10-11T12:15:36.977Z,0.0054,-0.9915,0.1356,-0.1757,0.0387,-0.0194,-0.0163,0.0063,-0.0066,-2.3373,1.4298,3.1255
2024-10-11T12:15:36.988Z,0.0015,-0.9860,0.1398,0.0144,-0.0453,-0.0122,-0.0177,0.0061,-0.0050,-2.3362,1.4302,3.1244
2024-10-11T12:15:36.997Z,0.0040,-0.9848,0.1401,0.0144,-0.0453,-0.0122,-0.0176,0.0082,-0.0061,-2.3362,1.4302,3.1244
2024-10-11T12:15:37.007Z,0.0095,-0.9812,0.1391,0.0144,-0.0453,-0.0122,-0.0177,0.0094,-0.0059,-2.3362,1.4302,3.1244
2024-10-11T12:15:37.018Z,0.0110,-0.9827,0.1400,-0.1089,-0.0398,0.0207,-0.0175,0.0090,-0.0056,-2.3349,1.4307,3.1230
2024-10-11T12:15:37.028Z,0.0133,-0.9902,0.1321,-0.1089,-0.0398,0.0207,-0.0179,0.0097,-0.0015,-2.3349,1.4307,3.1230
2024-10-11T12:15:37.037Z,0.0097,-0.9928,0.1268,-0.1089,-0.0398,0.0207,-0.0166,0.0121,-0.0021,-2.3349,1.4307,3.1230
2024-10-11T12:15:37.047Z,0.0092,-0.9849,0.1350,-0.0645,-0.0821,0.0475,-0.0181,0.0133,0.0002,-2.3339,1.4312,3.1221
2024-10-11T12:15:37.057Z,0.0081,-0.9806,0.1320,-0.0645,-0.0821,0.0475,-0.0186,0.0148,-0.0008,-2.3339,1.4312,3.1221
2024-10-11T12:15:37.067Z,0.0042,-0.9795,0.1297,-0.0645,-0.0821,0.0475,-0.0137,0.0148,-0.0002,-2.3339,1.4312,3.1221
2024-10-11T12:15:37.078Z,0.0012,-0.9779,0.1264,0.0117,-0.1447,0.1362,-0.0173,0.0168,-0.0022,-2.3336,1.4316,3.1220
2024-10-11T12:15:37.087Z,0.0047,-0.9756,0.1241,0.0117,-0.1447,0.1362,-0.0127,0.0168,0.0013,-2.3336,1.4316,3.1220
2024-10-11T12:15:37.097Z,0.0079,-0.9756,0.1219,0.0117,-0.1447,0.1362,-0.0110,0.0174,0.0042,-2.3336,1.4316,3.1220
2024-10-11T12:15:37.107Z,0.0110,-0.9805,0.1227,-0.1001,-0.0916,0.1130,-0.0128,0.0191,0.0023,-2.3337,1.4320,3.1224
2024-10-11T12:15:37.117Z,0.0121,-0.9837,0.1306,-0.1001,-0.0916,0.1130,-0.0078,0.0202,-0.0005,-2.3337,1.4320,3.1224
2024-10-11T12:15:37.128Z,0.0076,-0.9883,0.1225,-0.1001,-0.0916,0.1130,-0.0062,0.0225,0.0049,-2.3337,1.4320,3.1224
2024-10-11T12:15:37.137Z,0.0113,-0.9965,0.1138,-0.0962,0.0796,0.2249,-0.0038,0.0260,0.0050,-2.3343,1.4323,3.1234
2024-10-11T12:15:37.147Z,0.0120,-1.0004,0.1136,-0.0962,0.0796,0.2249,-0.0015,0.0275,0.0079,-2.3343,1.4323,3.1234
2024-10-11T12:15:37.157Z,0.0120,-1.0012,0.1174,-0.0962,0.0796,0.2249,-0.0022,0.0298,0.0087,-2.3343,1.4323,3.1234
2024-10-11T12:15:37.168Z,0.0116,-0.9955,0.1262,-0.0575,0.0459,0.0434,0.0010,0.0323,0.0109,-2.3361,1.4324,3.1258
2024-10-11T12:15:37.178Z,0.0032,-0.9964,0.1375,-0.0575,0.0459,0.0434,-0.0025,0.0346,0.0076,-2.3361,1.4324,3.1258
2024-10-11T12:15:37.187Z,0.0004,-1.0024,0.1383,-0.0575,0.0459,0.0434,-0.0046,0.0371,0.0096,-2.3361,1.4324,3.1258
2024-10-11T12:15:37.198Z,-0.0045,-1.0035,0.1481,0.0978,0.1192,-0.1230,-0.0063,0.0389,0.0108,-2.3380,1.4325,3.1285
2024-10-11T12:15:37.207Z,-0.0088,-1.0007,0.1528,0.0978,0.1192,-0.1230,-0.0074,0.0446,0.0089,-2.3380,1.4325,3.1285
2024-10-11T12:15:37.217Z,-0.0105,-0.9988,0.1605,0.0978,0.1192,-0.1230,-0.0098,0.0482,0.0083,-2.3380,1.4325,3.1285
2024-10-11T12:15:37.230Z,-0.0181,-0.9994,0.1659,0.2302,0.0885,-0.2860,-0.0173,0.0567,0.0095,-2.3398,1.4329,3.1314
2024-10-11T12:15:37.237Z,-0.0208,-0.9976,0.1700,0.2302,0.0885,-0.2860,-0.0200,0.0610,0.0070,-2.3398,1.4329,3.1314
2024-10-11T12:15:37.246Z,-0.0127,-1.0001,0.1739,0.2302,0.0885,-0.2860,-0.0253,0.0635,0.0072,-2.3398,1.4329,3.1314
2024-10-11T12:15:37.257Z,-0.0135,-1.0067,0.1679,0.1914,0.1686,-0.2600,-0.0267,0.0676,0.0049,-2.3413,1.4335,3.1345
2024-10-11T12:15:37.267Z,-0.0235,-1.0062,0.1630,0.1914,0.1686,-0.2600,-0.0327,0.0727,0.0054,-2.3413,1.4335,3.1345
2024-10-11T12:15:37.278Z,-0.0246,-1.0074,0.1587,0.1914,0.1686,-0.2600,-0.0344,0.0752,0.0036,-2.3413,1.4335,3.1345
2024-10-11T12:15:37.286Z,-0.0250,-1.0090,0.1644,0.2250,0.1842,-0.2351,-0.0379,0.0823,0.0003,-2.3424,1.4344,3.1376
2024-10-11T12:15:37.297Z,-0.0192,-1.0101,0.1591,0.2250,0.1842,-0.2351,-0.0390,0.0872,0.0009,-2.3424,1.4344,3.1376
2024-10-11T12:15:37.307Z,-0.0150,-1.0078,0.1523,0.2250,0.1842,-0.2351,-0.0425,0.0899,0.0019,-2.3424,1.4344,3.1376
2024-10-11T12:15:37.318Z,-0.0191,-1.0029,0.1482,0.1994,0.0953,-0.1772,-0.0454,0.0922,-0.0030,-2.3427,1.4355,3.1402
2024-10-11T12:15:37.328Z,-0.0227,-0.9979,0.1504,0.1994,0.0953,-0.1772,-0.0442,0.0966,-0.0017,-2.3427,1.4355,3.1402
2024-10-11T12:15:37.337Z,-0.0288,-0.9915,0.1486,0.1994,0.0953,-0.1772,-0.0424,0.0962,-0.0061,-2.3427,1.4355,3.1402
2024-10-11T12:15:37.348Z,-0.0310,-0.9948,0.1403,0.2520,0.0510,-0.0945,-0.0454,0.1004,-0.0053,-2.3419,1.4368,-3.1412
2024-10-11T12:15:37.357Z,-0.0211,-0.9971,0.1432,0.2520,0.0510,-0.0945,-0.0436,0.1011,-0.0100,-2.3419,1.4368,-3.1412
2024-10-11T12:15:37.367Z,-0.0140,-0.9944,0.1458,0.2520,0.0510,-0.0945,-0.0468,0.1058,-0.0090,-2.3419,1.4368,-3.1412
2024-10-11T12:15:37.378Z,-0.0110,-1.0005,0.1403,0.1232,0.0851,-0.0663,-0.0456,0.1089,-0.0096,-2.3399,1.4380,-3.1404
2024-10-11T12:15:37.387Z,-0.0131,-0.9993,0.1375,0.1232,0.0851,-0.0663,-0.0487,0.1085,-0.0125,-2.3399,1.4380,-3.1404
2024-10-11T12:15:37.397Z,-0.0146,-0.9919,0.1435,0.1232,0.0851,-0.0663,-0.0489,0.1093,-0.0109,-2.3399,1.4380,-3.1404
2024-10-11T12:15:37.407Z,-0.0137,-0.9910,0.1423,0.1333,-0.0005,-0.1502,-0.0482,0.1131,-0.0113,-2.3377,1.4394,-3.1394
2024-10-11T12:15:37.417Z,-0.0130,-0.9918,0.1456,0.1333,-0.0005,-0.1502,-0.0507,0.1161,-0.0128,-2.3377,1.4394,-3.1394
2024-10-11T12:15:37.428Z,-0.0062,-0.9897,0.1360,0.1333,-0.0005,-0.1502,-0.0488,0.1212,-0.0112,-2.3377,1.4394,-3.1394
2024-10-11T12:15:37.437Z,-0.0042,-0.9874,0.1307,0.0417,-0.0428,0.0122,-0.0481,0.1235,-0.0112,-2.3353,1.4407,-3.1386
2024-10-11T12:15:37.448Z,-0.0036,-0.9861,0.1315,0.0417,-0.0428,0.0122,-0.0475,0.1267,-0.0106,-2.3353,1.4407,-3.1386
2024-10-11T12:15:37.458Z,-0.0021,-0.9843,0.1221,0.0417,-0.0428,0.0122,-0.0434,0.1304,-0.0108,-2.3353,1.4407,-3.1386
2024-10-11T12:15:37.468Z,-0.0082,-0.9817,0.1233,0.0997,-0.1052,0.1151,-0.0431,0.1296,-0.0099,-2.3330,1.4420,-3.1373
2024-10-11T12:15:37.480Z,-0.0091,-0.9794,0.1167,0.0997,-0.1052,0.1151,-0.0415,0.1301,-0.0095,-2.3330,1.4420,-3.1373
2024-10-11T12:15:37.487Z,-0.0080,-0.9768,0.1208,0.0997,-0.1052,0.1151,-0.0418,0.1309,-0.0126,-2.3330,1.4420,-3.1373
2024-10-11T12:15:37.498Z,-0.0073,-0.9714,0.1239,0.0689,-0.1944,0.0569,-0.0378,0.1319,-0.0113,-2.3307,1.4432,-3.1359
2024-10-11T12:15:37.507Z,-0.0135,-0.9700,0.1170,0.0689,-0.1944,0.0569,-0.0343,0.1325,-0.0138,-2.3307,1.4432,-3.1359
2024-10-11T12:15:37.517Z,-0.0138,-0.9513,0.1094,0.0689,-0.1944,0.0569,-0.0305,0.1297,-0.0128,-2.3307,1.4432,-3.1359
2024-10-11T12:15:37.528Z,-0.0091,-0.9707,0.1186,0.1214,-0.1529,0.1688,-0.0282,0.1317,-0.0147,-2.3278,1.4441,-3.1352
2024-10-11T12:15:37.537Z,-0.0119,-0.9672,0.1026,0.1214,-0.1529,0.1688,-0.0220,0.1293,-0.0148,-2.3278,1.4441,-3.1352
2024-10-11T12:15:37.547Z,0.0004,-0.9741,0.1016,0.1214,-0.1529,0.1688,-0.0166,0.1328,-0.0127,-2.3278,1.4441,-3.1352
2024-10-11T12:15:37.557Z,0.0000,-0.9799,0.0931,-0.0556,-0.1831,0.2823,-0.0115,0.1321,-0.0115,-2.3246,1.4447,-3.1346
2024-10-11T12:15:37.567Z,0.0112,-0.9766,0.1000,-0.0556,-0.1831,0.2823,-0.0098,0.1386,-0.0097,-2.3246,1.4447,-3.1346
2024-10-11T12:15:37.579Z,0.0040,-0.9754,0.1090,-0.0556,-0.1831,0.2823,-0.0085,0.1392,-0.0086,-2.3246,1.4447,-3.1346
2024-10-11T12:15:37.587Z,0.0073,-0.9675,0.1127,-0.0617,-0.1993,0.0531,-0.0026,0.1351,-0.0088,-2.3226,1.4449,-3.1328
2024-10-11T12:15:37.597Z,-0.0015,-0.9729,0.1186,-0.0617,-0.1993,0.0531,-0.0044,0.1278,-0.0109,-2.3226,1.4449,-3.1328
2024-10-11T12:15:37.607Z,0.0040,-0.9711,0.1203,-0.0617,-0.1993,0.0531,-0.0007,0.1199,-0.0116,-2.3226,1.4449,-3.1328
2024-10-11T12:15:37.618Z,0.0054,-0.9779,0.1296,-0.0452,-0.1652,0.0057,0.0003,0.1142,-0.0117,-2.3202,1.4449,-3.1317
2024-10-11T12:15:37.629Z,0.0083,-0.9801,0.1306,-0.0452,-0.1652,0.0057,0.0019,0.1028,-0.0135,-2.3202,1.4449,-3.1317
2024-10-11T12:15:37.638Z,0.0160,-0.9791,0.1340,-0.0452,-0.1652,0.0057,0.0040,0.0894,-0.0152,-2.3202,1.4449,-3.1317
2024-10-11T12:15:37.646Z,0.0160,-0.9791,0.1340,-0.1159,-0.1359,-0.0510,0.0043,0.0787,-0.0160,-2.3174,1.4449,-3.1318
2024-10-11T12:15:37.658Z,0.0502,-0.9866,0.1361,-0.1159,-0.1359,-0.0510,0.0044,0.0561,-0.0152,-2.3174,1.4449,-3.1318
2024-10-11T12:15:37.669Z,0.0600,-0.9927,0.1297,-0.1159,-0.1359,-0.0510,0.0070,0.0343,-0.0147,-2.3174,1.4449,-3.1318
2024-10-11T12:15:37.680Z,0.0691,-0.9939,0.1247,-0.5659,-0.0109,-0.0624,0.0080,0.0073,-0.0136,-2.3141,1.4446,-3.1339
2024-10-11T12:15:37.688Z,0.0768,-0.9880,0.1267,-0.5659,-0.0109,-0.0624,0.0073,-0.0151,-0.0164,-2.3141,1.4446,-3.1339
2024-10-11T12:15:37.698Z,0.0789,-0.9847,0.1234,-0.5659,-0.0109,-0.0624,0.0092,-0.0434,-0.0149,-2.3141,1.4446,-3.1339
2024-10-11T12:15:37.708Z,0.0697,-0.9896,0.1208,-0.7804,-0.0679,0.0038,0.0092,-0.0628,-0.0146,-2.3108,1.4443,-3.1381
2024-10-11T12:15:37.718Z,0.0488,-0.9925,0.1164,-0.7804,-0.0679,0.0038,0.0138,-0.0781,-0.0157,-2.3108,1.4443,-3.1381
2024-10-11T12:15:37.728Z,0.0391,-0.9883,0.1260,-0.7804,-0.0679,0.0038,0.0105,-0.0853,-0.0144,-2.3108,1.4443,-3.1381
2024-10-11T12:15:37.738Z,0.0456,-0.9865,0.1299,-0.4082,-0.0283,0.0753,0.0105,-0.0953,-0.0113,-2.3076,1.4439,3.1393
2024-10-11T12:15:37.748Z,0.0376,-0.9838,0.1278,-0.4082,-0.0283,0.0753,0.0120,-0.0993,-0.0092,-2.3076,1.4439,3.1393
2024-10-11T12:15:37.758Z,0.0327,-0.9870,0.1216,-0.4082,-0.0283,0.0753,0.0130,-0.1050,-0.0079,-2.3076,1.4439,3.1393
2024-10-11T12:15:37.768Z,0.0233,-0.9877,0.1236,-0.3204,-0.0580,0.0216,0.0118,-0.1033,-0.0051,-2.3056,1.4435,3.1340
2024-10-11T12:15:37.778Z,0.0125,-0.9965,0.1221,-0.3204,-0.0580,0.0216,0.0122,-0.1059,-0.0045,-2.3056,1.4435,3.1340
2024-10-11T12:15:37.787Z,0.0089,-1.0027,0.1283,-0.3204,-0.0580,0.0216,0.0098,-0.1008,-0.0029,-2.3056,1.4435,3.1340
2024-10-11T12:15:37.798Z,0.0055,-1.0061,0.1313,-0.0890,0.0715,-0.0050,0.0110,-0.0960,0.0005,-2.3049,1.4431,3.1301
2024-10-11T12:15:37.808Z,0.0039,-1.0107,0.1390,-0.0890,0.0715,-0.0050,0.0105,-0.0922,0.0005,-2.3049,1.4431,3.1301
2024-10-11T12:15:37.817Z,0.0046,-1.0104,0.1421,-0.0890,0.0715,-0.0050,0.0085,-0.0888,0.0031,-2.3049,1.4431,3.1301
2024-10-11T12:15:37.828Z,-0.0026,-1.0150,0.1369,-0.0141,0.1773,-0.1392,0.0085,-0.0816,0.0026,-2.3054,1.4428,3.1275
2024-10-11T12:15:37.838Z,-0.0019,-1.0097,0.1302,-0.0141,0.1773,-0.1392,0.0070,-0.0768,0.0045,-2.3054,1.4428,3.1275
2024-10-11T12:15:37.848Z,0.0062,-1.0067,0.1341,-0.0141,0.1773,-0.1392,0.0057,-0.0732,0.0086,-2.3054,1.4428,3.1275
2024-10-11T12:15:37.857Z,-0.0025,-1.0034,0.1436,-0.0269,0.1621,-0.0311,-0.0012,-0.0635,0.0090,-2.3070,1.4426,3.1266
2024-10-11T12:15:37.868Z,-0.0059,-1.0024,0.1422,-0.0269,0.1621,-0.0311,-0.0008,-0.0583,0.0095,-2.3070,1.4426,3.1266
2024-10-11T12:15:37.878Z,-0.0123,-1.0029,0.1279,-0.0269,0.1621,-0.0311,-0.0043,-0.0543,0.0123,-2.3070,1.4426,3.1266
2024-10-11T12:15:37.888Z,-0.0083,-1.0031,0.1307,0.1127,0.1202,-0.0776,-0.0072,-0.0503,0.0122,-2.3094,1.4426,3.1269
2024-10-11T12:15:37.898Z,-0.0058,-1.0003,0.1366,0.1127,0.1202,-0.0776,-0.0081,-0.0480,0.0089,-2.3094,1.4426,3.1269
2024-10-11T12:15:37.908Z,-0.0069,-0.9968,0.1325,0.1127,0.1202,-0.0776,-0.0112,-0.0456,0.0113,-2.3094,1.4426,3.1269
2024-10-11T12:15:37.918Z,-0.0131,-0.9927,0.1271,0.0626,0.0625,-0.0504,-0.0105,-0.0412,0.0110,-2.3117,1.4428,3.1275
2024-10-11T12:15:37.927Z,-0.0071,-0.9889,0.1277,0.0626,0.0625,-0.0504,-0.0152,-0.0402,0.0093,-2.3117,1.4428,3.1275
2024-10-11T12:15:37.937Z,-0.0050,-0.9871,0.1206,0.0626,0.0625,-0.0504,-0.0152,-0.0335,0.0101,-2.3117,1.4428,3.1275
2024-10-11T12:15:37.947Z,-0.0035,-0.9884,0.1148,0.0736,-0.0384,0.0356,-0.0176,-0.0312,0.0113,-2.3143,1.4432,3.1288
2024-10-11T12:15:37.957Z,-0.0039,-0.9852,0.1118,0.0736,-0.0384,0.0356,-0.0142,-0.0259,0.0119,-2.3143,1.4432,3.1288
2024-10-11T12:15:37.968Z,-0.0022,-0.9881,0.1039,0.0736,-0.0384,0.0356,-0.0129,-0.0290,0.0129,-2.3143,1.4432,3.1288
2024-10-11T12:15:37.977Z,-0.0022,-0.9881,0.1039,0.0509,-0.0501,0.1975,-0.0116,-0.0228,0.0129,-2.3173,1.4437,3.1307
2024-10-11T12:15:37.988Z,-0.0014,-0.9871,0.1095,0.0509,-0.0501,0.1975,-0.0140,-0.0168,0.0124,-2.3173,1.4437,3.1307
2024-10-11T12:15:37.997Z,-0.0014,-0.9871,0.1095,0.0509,-0.0501,0.1975,-0.0121,-0.0097,0.0129,-2.3173,1.4437,3.1307
2024-10-11T12:15:38.008Z,-0.0059,-0.9913,0.1135,0.0811,-0.0130,0.1866,-0.0085,-0.0063,0.0153,-2.3204,1.4440,3.1330
2024-10-11T12:15:38.018Z,-0.0066,-0.9936,0.1277,0.0811,-0.0130,0.1866,-0.0122,-0.0051,0.0127,-2.3204,1.4440,3.1330
2024-10-11T12:15:38.028Z,-0.0113,-0.9980,0.1288,0.0811,-0.0130,0.1866,-0.0108,-0.0014,0.0118,-2.3204,1.4440,3.1330
2024-10-11T12:15:38.038Z,-0.0111,-0.9969,0.1301,0.1218,0.0636,-0.0226,-0.0140,0.0036,0.0090,-2.3233,1.4443,3.1356
2024-10-11T12:15:38.047Z,-0.0111,-0.9969,0.1301,0.1218,0.0636,-0.0226,-0.0115,0.0057,0.0077,-2.3233,1.4443,3.1356
2024-10-11T12:15:38.058Z,-0.0190,-0.9982,0.1275,0.1218,0.0636,-0.0226,-0.0102,0.0082,0.0078,-2.3233,1.4443,3.1356
2024-10-11T12:15:38.067Z,-0.0190,-0.9982,0.1275,0.1970,0.0521,-0.0061,-0.0145,0.0124,0.0036,-2.3255,1.4447,3.1377
2024-10-11T12:15:38.078Z,-0.0311,-0.9965,0.1321,0.1970,0.0521,-0.0061,-0.0137,0.0182,0.0001,-2.3255,1.4447,3.1377
2024-10-11T12:15:38.088Z,-0.0262,-0.9962,0.1315,0.1970,0.0521,-0.0061,-0.0130,0.0206,0.0002,-2.3255,1.4447,3.1377
2024-10-11T12:15:38.097Z,-0.0262,-0.9962,0.1315,0.1999,0.0526,-0.0256,-0.0173,0.0244,-0.0029,-2.3261,1.4452,3.1385
2024-10-11T12:15:38.108Z,-0.0179,-0.9899,0.1321,0.1999,0.0526,-0.0256,-0.0196,0.0269,-0.0056,-2.3261,1.4452,3.1385
2024-10-11T12:15:38.118Z,-0.0179,-0.9899,0.1321,0.1999,0.0526,-0.0256,-0.0167,0.0279,-0.0065,-2.3261,1.4452,3.1385
2024-10-11T12:15:38.128Z,-0.0318,-0.9958,0.1245,0.2952,0.0238,-0.0143,-0.0179,0.0293,-0.0082,-2.3252,1.4457,3.1382
2024-10-11T12:15:38.138Z,-0.0290,-0.9963,0.1238,0.2952,0.0238,-0.0143,-0.0178,0.0352,-0.0114,-2.3252,1.4457,3.1382
2024-10-11T12:15:38.147Z,-0.0290,-0.9963,0.1238,0.2952,0.0238,-0.0143,-0.0168,0.0413,-0.0146,-2.3252,1.4457,3.1382
2024-10-11T12:15:38.159Z,-0.0243,-0.9912,0.1170,0.2948,0.0006,0.0933,-0.0148,0.0423,-0.0195,-2.3223,1.4462,3.1361
2024-10-11T12:15:38.168Z,-0.0229,-0.9913,0.1149,0.2948,0.0006,0.0933,-0.0145,0.0439,-0.0187,-2.3223,1.4462,3.1361
2024-10-11T12:15:38.178Z,-0.0207,-0.9936,0.1203,0.2948,0.0006,0.0933,-0.0105,0.0447,-0.0208,-2.3223,1.4462,3.1361
2024-10-11T12:15:38.188Z,-0.0212,-0.9979,0.1131,0.2149,0.0504,0.0767,-0.0096,0.0499,-0.0237,-2.3179,1.4466,3.1328
2024-10-11T12:15:38.197Z,-0.0212,-0.9979,0.1131,0.2149,0.0504,0.0767,-0.0094,0.0510,-0.0253,-2.3179,1.4466,3.1328
2024-10-11T12:15:38.208Z,-0.0197,-0.9981,0.1188,0.2149,0.0504,0.0767,-0.0047,0.0549,-0.0242,-2.3179,1.4466,3.1328
2024-10-11T12:15:38.218Z,-0.0101,-0.9977,0.1202,0.1677,0.0545,0.0498,-0.0087,0.0610,-0.0261,-2.3124,1.4468,3.1288
2024-10-11T12:15:38.228Z,-0.0106,-0.9887,0.1250,0.1677,0.0545,0.0498,-0.0111,0.0691,-0.0254,-2.3124,1.4468,3.1288
2024-10-11T12:15:38.237Z,-0.0098,-0.9884,0.1246,0.1677,0.0545,0.0498,-0.0073,0.0665,-0.0237,-2.3124,1.4468,3.1288
2024-10-11T12:15:38.247Z,-0.0098,-0.9884,0.1246,0.1061,-0.0398,0.0256,-0.0085,0.0734,-0.0268,-2.3068,1.4470,3.1249
2024-10-11T12:15:38.258Z,0.0022,-0.9843,0.1230,0.1061,-0.0398,0.0256,-0.0061,0.0715,-0.0226,-2.3068,1.4470,3.1249
2024-10-11T12:15:38.268Z,-0.0021,-0.9793,0.1222,0.1061,-0.0398,0.0256,-0.0064,0.0785,-0.0226,-2.3068,1.4470,3.1249
2024-10-11T12:15:38.278Z,-0.0067,-0.9784,0.1201,0.0818,-0.1365,0.0094,-0.0085,0.0828,-0.0237,-2.3013,1.4472,3.1215
2024-10-11T12:15:38.288Z,-0.0040,-0.9814,0.1199,0.0818,-0.1365,0.0094,-0.0066,0.0870,-0.0233,-2.3013,1.4472,3.1215
2024-10-11T12:15:38.298Z,-0.0030,-0.9845,0.1068,0.0818,-0.1365,0.0094,-0.0054,0.0913,-0.0213,-2.3013,1.4472,3.1215
2024-10-11T12:15:38.308Z,-0.0009,-0.9892,0.1061,0.0474,-0.0690,0.1527,-0.0061,0.0909,-0.0223,-2.2959,1.4474,3.1184
2024-10-11T12:15:38.318Z,-0.0011,-0.9858,0.1066,0.0474,-0.0690,0.1527,-0.0034,0.0901,-0.0227,-2.2959,1.4474,3.1184
2024-10-11T12:15:38.329Z,-0.0054,-0.9799,0.1033,0.0474,-0.0690,0.1527,-0.0019,0.0888,-0.0204,-2.2959,1.4474,3.1184
2024-10-11T12:15:38.338Z,0.0022,-0.9725,0.1034,0.0677,-0.1665,0.2135,-0.0002,0.0892,-0.0229,-2.2906,1.4474,3.1156
2024-10-11T12:15:38.347Z,0.0022,-0.9725,0.1034,0.0677,-0.1665,0.2135,0.0015,0.0926,-0.0184,-2.2906,1.4474,3.1156
2024-10-11T12:15:38.358Z,0.0003,-0.9664,0.1013,0.0677,-0.1665,0.2135,0.0036,0.0985,-0.0201,-2.2906,1.4474,3.1156
2024-10-11T12:15:38.367Z,0.0030,-0.9721,0.1008,0.0365,-0.2164,0.2330,0.0076,0.0947,-0.0176,-2.2858,1.4472,3.1135
2024-10-11T12:15:38.377Z,0.0083,-0.9751,0.1043,0.0365,-0.2164,0.2330,0.0097,0.0975,-0.0175,-2.2858,1.4472,3.1135
2024-10-11T12:15:38.387Z,0.0168,-0.9756,0.1076,0.0365,-0.2164,0.2330,0.0094,0.0969,-0.0169,-2.2858,1.4472,3.1135
2024-10-11T12:15:38.397Z,0.0169,-0.9811,0.1118,-0.1485,-0.1405,0.1429,0.0137,0.0960,-0.0153,-2.2820,1.4469,3.1123
2024-10-11T12:15:38.407Z,0.0120,-0.9879,0.1097,-0.1485,-0.1405,0.1429,0.0143,0.0951,-0.0107,-2.2820,1.4469,3.1123
2024-10-11T12:15:38.417Z,0.0082,-0.9904,0.1098,-0.1485,-0.1405,0.1429,0.0171,0.0982,-0.0093,-2.2820,1.4469,3.1123
2024-10-11T12:15:38.428Z,0.0007,-0.9914,0.1182,-0.0118,-0.0131,0.1245,0.0161,0.0991,-0.0110,-2.2798,1.4464,3.1128
2024-10-11T12:15:38.437Z,0.0002,-0.9939,0.1253,-0.0118,-0.0131,0.1245,0.0169,0.0937,-0.0093,-2.2798,1.4464,3.1128
2024-10-11T12:15:38.448Z,-0.0009,-0.9929,0.1312,-0.0118,-0.0131,0.1245,0.0168,0.0885,-0.0070,-2.2798,1.4464,3.1128
2024-10-11T12:15:38.458Z,0.0028,-0.9939,0.1288,0.0327,0.0152,-0.0556,0.0187,0.0874,-0.0095,-2.2780,1.4459,3.1135
2024-10-11T12:15:38.467Z,0.0032,-0.9943,0.1336,0.0327,0.0152,-0.0556,0.0167,0.0852,-0.0102,-2.2780,1.4459,3.1135
2024-10-11T12:15:38.478Z,0.0003,-0.9980,0.1369,0.0327,0.0152,-0.0556,0.0154,0.0854,-0.0088,-2.2780,1.4459,3.1135
2024-10-11T12:15:38.487Z,0.0008,-0.9996,0.1366,0.0226,0.0618,-0.1289,0.0128,0.0842,-0.0085,-2.2764,1.4454,3.1142
2024-10-11T12:15:38.498Z,0.0050,-1.0002,0.1397,0.0226,0.0618,-0.1289,0.0123,0.0853,-0.0071,-2.2764,1.4454,3.1142
2024-10-11T12:15:38.507Z,0.0128,-0.9988,0.1430,0.0226,0.0618,-0.1289,0.0101,0.0846,-0.0061,-2.2764,1.4454,3.1142
2024-10-11T12:15:38.518Z,0.0128,-0.9988,0.1430,-0.1130,0.0558,-0.1753,0.0060,0.0831,-0.0024,-2.2752,1.4450,3.1152
2024-10-11T12:15:38.528Z,0.0152,-0.9993,0.1415,-0.1130,0.0558,-0.1753,0.0079,0.0781,0.0022,-2.2752,1.4450,3.1152
2024-10-11T12:15:38.537Z,0.0227,-0.9964,0.1383,-0.1130,0.0558,-0.1753,0.0029,0.0763,0.0046,-2.2752,1.4450,3.1152
2024-10-11T12:15:38.548Z,0.0245,-0.9969,0.1384,-0.2210,0.0430,-0.1241,0.0048,0.0811,0.0062,-2.2758,1.4448,3.1180
2024-10-11T12:15:38.557Z,0.0212,-0.9971,0.1405,-0.2210,0.0430,-0.1241,0.0013,0.0823,0.0093,-2.2758,1.4448,3.1180
2024-10-11T12:15:38.568Z,0.0174,-0.9978,0.1407,-0.2210,0.0430,-0.1241,-0.0028,0.0871,0.0128,-2.2758,1.4448,3.1180
2024-10-11T12:15:38.577Z,0.0281,-0.9984,0.1462,-0.1729,0.0640,-0.1919,-0.0037,0.0828,0.0169,-2.2785,1.4448,3.1229
2024-10-11T12:15:38.587Z,0.0438,-0.9990,0.1504,-0.1729,0.0640,-0.1919,-0.0055,0.0710,0.0182,-2.2785,1.4448,3.1229
2024-10-11T12:15:38.598Z,0.0646,-1.0016,0.1566,-0.1729,0.0640,-0.1919,-0.0074,0.0489,0.0196,-2.2785,1.4448,3.1229
2024-10-11T12:15:38.607Z,0.0886,-1.0032,0.1558,-0.7522,0.1014,-0.3097,-0.0107,0.0192,0.0215,-2.2829,1.4450,3.1288
2024-10-11T12:15:38.617Z,0.1034,-1.0051,0.1501,-0.7522,0.1014,-0.3097,-0.0106,-0.0115,0.0219,-2.2829,1.4450,3.1288
2024-10-11T12:15:38.627Z,0.1248,-1.0040,0.1501,-0.7522,0.1014,-0.3097,-0.0113,-0.0507,0.0231,-2.2829,1.4450,3.1288
2024-10-11T12:15:38.637Z,0.1326,-1.0024,0.1512,-1.2778,0.1040,-0.2501,-0.0118,-0.0838,0.0215,-2.2880,1.4453,3.1330
2024-10-11T12:15:38.648Z,0.1287,-1.0021,0.1511,-1.2778,0.1040,-0.2501,-0.0162,-0.1158,0.0239,-2.2880,1.4453,3.1330
2024-10-11T12:15:38.657Z,0.1146,-1.0039,0.1526,-1.2778,0.1040,-0.2501,-0.0191,-0.1376,0.0249,-2.2880,1.4453,3.1330
2024-10-11T12:15:38.667Z,0.0937,-1.0011,0.1496,-1.0168,0.1137,-0.2588,-0.0198,-0.1581,0.0232,-2.2937,1.4457,3.1349
2024-10-11T12:15:38.677Z,0.0723,-0.9970,0.1488,-1.0168,0.1137,-0.2588,-0.0205,-0.1749,0.0262,-2.2937,1.4457,3.1349
2024-10-11T12:15:38.687Z,0.0526,-0.9945,0.1454,-1.0168,0.1137,-0.2588,-0.0217,-0.1864,0.0273,-2.2937,1.4457,3.1349
2024-10-11T12:15:38.698Z,0.0323,-0.9939,0.1481,-0.3948,0.0039,-0.2138,-0.0255,-0.1917,0.0271,-2.3002,1.4463,3.1358
2024-10-11T12:15:38.707Z,0.0303,-1.0008,0.1417,-0.3948,0.0039,-0.2138,-0.0246,-0.2029,0.0306,-2.3002,1.4463,3.1358
2024-10-11T12:15:38.717Z,0.0202,-1.0054,0.1382,-0.3948,0.0039,-0.2138,-0.0283,-0.1993,0.0321,-2.3002,1.4463,3.1358
2024-10-11T12:15:38.727Z,0.0081,-1.0045,0.1342,-0.1071,0.1361,-0.1198,-0.0280,-0.1996,0.0310,-2.3076,1.4471,3.1369
2024-10-11T12:15:38.737Z,0.0052,-0.9975,0.1327,-0.1071,0.1361,-0.1198,-0.0275,-0.1992,0.0330,-2.3076,1.4471,3.1369
2024-10-11T12:15:38.749Z,-0.0005,-0.9933,0.1284,-0.1071,0.1361,-0.1198,-0.0309,-0.1953,0.0324,-2.3076,1.4471,3.1369
2024-10-11T12:15:38.758Z,-0.0010,-0.9848,0.1256,0.0076,-0.0331,-0.0508,-0.0313,-0.1837,0.0299,-2.3151,1.4479,3.1384
2024-10-11T12:15:38.768Z,-0.0084,-0.9836,0.1226,0.0076,-0.0331,-0.0508,-0.0302,-0.1785,0.0306,-2.3151,1.4479,3.1384
2024-10-11T12:15:38.778Z,-0.0192,-0.9850,0.1181,0.0076,-0.0331,-0.0508,-0.0299,-0.1722,0.0283,-2.3151,1.4479,3.1384
2024-10-11T12:15:38.788Z,-0.0177,-0.9846,0.1126,0.2046,-0.0754,0.0665,-0.0322,-0.1657,0.0276,-2.3224,1.4488,3.1400
2024-10-11T12:15:38.799Z,-0.0156,-0.9823,0.1115,0.2046,-0.0754,0.0665,-0.0315,-0.1576,0.0254,-2.3224,1.4488,3.1400
2024-10-11T12:15:38.807Z,-0.0168,-0.9820,0.1157,0.2046,-0.0754,0.0665,-0.0270,-0.1508,0.0258,-2.3224,1.4488,3.1400
2024-10-11T12:15:38.817Z,-0.0123,-0.9889,0.1092,0.1368,-0.0696,0.0783,-0.0267,-0.1486,0.0241,-2.3289,1.4497,3.1415
2024-10-11T12:15:38.827Z,-0.0143,-0.9985,0.0999,0.1368,-0.0696,0.0783,-0.0231,-0.1362,0.0219,-2.3289,1.4497,3.1415
2024-10-11T12:15:38.837Z,-0.0103,-0.9987,0.0878,0.1368,-0.0696,0.0783,-0.0220,-0.1260,0.0237,-2.3289,1.4497,3.1415
2024-10-11T12:15:38.848Z,-0.0175,-0.9951,0.0887,0.1168,0.0362,0.3185,-0.0176,-0.1208,0.0213,-2.3347,1.4503,-3.1402
2024-10-11T12:15:38.857Z,-0.0243,-0.9905,0.0991,0.1168,0.0362,0.3185,-0.0167,-0.1170,0.0171,-2.3347,1.4503,-3.1402
2024-10-11T12:15:38.867Z,-0.0226,-0.9853,0.1067,0.1168,0.0362,0.3185,-0.0174,-0.1070,0.0142,-2.3347,1.4503,-3.1402
2024-10-11T12:15:38.877Z,-0.0218,-0.9848,0.1099,0.2081,-0.0760,0.1224,-0.0164,-0.1010,0.0129,-2.3392,1.4508,-3.1393
2024-10-11T12:15:38.887Z,-0.0253,-0.9863,0.1134,0.2081,-0.0760,0.1224,-0.0141,-0.1001,0.0090,-2.3392,1.4508,-3.1393
2024-10-11T12:15:38.897Z,-0.0275,-0.9913,0.1058,0.2081,-0.0760,0.1224,-0.0147,-0.0933,0.0066,-2.3392,1.4508,-3.1393
2024-10-11T12:15:38.907Z,-0.0291,-0.9917,0.0985,0.2745,-0.0033,0.1714,-0.0104,-0.0860,0.0058,-2.3418,1.4512,-3.1399
2024-10-11T12:15:38.917Z,-0.0276,-0.9872,0.0987,0.2745,-0.0033,0.1714,-0.0096,-0.0827,0.0015,-2.3418,1.4512,-3.1399
2024-10-11T12:15:38.927Z,-0.0269,-0.9846,0.1058,0.2745,-0.0033,0.1714,-0.0102,-0.0776,-0.0016,-2.3418,1.4512,-3.1399
2024-10-11T12:15:38.937Z,-0.0267,-0.9861,0.1078,0.2732,-0.0848,0.0969,-0.0084,-0.0715,-0.0045,-2.3420,1.4515,3.1408
2024-10-11T12:15:38.948Z,-0.0266,-0.9859,0.1037,0.2732,-0.0848,0.0969,-0.0080,-0.0647,-0.0067,-2.3420,1.4515,3.1408
2024-10-11T12:15:38.957Z,-0.0282,-0.9842,0.1009,0.2732,-0.0848,0.0969,-0.0091,-0.0596,-0.0091,-2.3420,1.4515,3.1408
2024-10-11T12:15:38.967Z,-0.0316,-0.9813,0.1025,0.2919,-0.1118,0.1748,-0.0088,-0.0516,-0.0109,-2.3403,1.4517,3.1369
2024-10-11T12:15:38.977Z,-0.0325,-0.9830,0.1058,0.2919,-0.1118,0.1748,-0.0069,-0.0471,-0.0135,-2.3403,1.4517,3.1369
2024-10-11T12:15:38.987Z,-0.0290,-0.9861,0.1093,0.2919,-0.1118,0.1748,-0.0077,-0.0398,-0.0174,-2.3403,1.4517,3.1369
2024-10-11T12:15:38.999Z,-0.0225,-0.9905,0.1063,0.2660,-0.0430,0.1011,-0.0065,-0.0312,-0.0177,-2.3365,1.4519,3.1315
2024-10-11T12:15:39.008Z,-0.0218,-0.9966,0.1048,0.2660,-0.0430,0.1011,-0.0037,-0.0256,-0.0162,-2.3365,1.4519,3.1315
2024-10-11T12:15:39.018Z,-0.0272,-0.9996,0.1035,0.2660,-0.0430,0.1011,-0.0017,-0.0183,-0.0193,-2.3365,1.4519,3.1315
2024-10-11T12:15:39.027Z,-0.0222,-1.0005,0.1020,0.2795,0.0765,0.1787,-0.0002,-0.0097,-0.0234,-2.3317,1.4520,3.1259
2024-10-11T12:15:39.037Z,-0.0187,-0.9995,0.1096,0.2795,0.0765,0.1787,0.0009,-0.0043,-0.0226,-2.3317,1.4520,3.1259
2024-10-11T12:15:39.047Z,-0.0177,-0.9991,0.1176,0.2795,0.0765,0.1787,0.0031,0.0036,-0.0219,-2.3317,1.4520,3.1259
2024-10-11T12:15:39.057Z,-0.0156,-0.9971,0.1204,0.1941,0.0597,-0.0051,0.0021,0.0141,-0.0205,-2.3266,1.4519,3.1205
2024-10-11T12:15:39.067Z,-0.0123,-1.0005,0.1215,0.1941,0.0597,-0.0051,0.0024,0.0195,-0.0182,-2.3266,1.4519,3.1205
2024-10-11T12:15:39.077Z,-0.0160,-0.9987,0.1284,0.1941,0.0597,-0.0051,0.0024,0.0275,-0.0193,-2.3266,1.4519,3.1205
2024-10-11T12:15:39.087Z,-0.0151,-1.0029,0.1313,0.1782,0.0819,-0.1164,0.0017,0.0355,-0.0197,-2.3221,1.4517,3.1165
2024-10-11T12:15:39.097Z,-0.0220,-1.0004,0.1297,0.1782,0.0819,-0.1164,0.0026,0.0426,-0.0169,-2.3221,1.4517,3.1165
2024-10-11T12:15:39.107Z,-0.0162,-1.0001,0.1328,0.1782,0.0819,-0.1164,-0.0047,0.0449,-0.0218,-2.3221,1.4517,3.1165
2024-10-11T12:15:39.117Z,-0.0085,-0.9943,0.1247,0.1510,0.0469,-0.1038,-0.0007,0.0496,-0.0191,-2.3178,1.4517,3.1131
2024-10-11T12:15:39.127Z,-0.0098,-0.9944,0.1206,0.1510,0.0469,-0.1038,-0.0034,0.0542,-0.0178,-2.3178,1.4517,3.1131
2024-10-11T12:15:39.137Z,-0.0083,-0.9919,0.1143,0.1510,0.0469,-0.1038,-0.0030,0.0597,-0.0182,-2.3178,1.4517,3.1131
2024-10-11T12:15:39.147Z,-0.0058,-0.9888,0.1090,0.1085,-0.0202,0.0442,-0.0005,0.0661,-0.0182,-2.3135,1.4518,3.1103
2024-10-11T12:15:39.157Z,-0.0018,-0.9843,0.1221,0.1085,-0.0202,0.0442,-0.0018,0.0682,-0.0164,-2.3135,1.4518,3.1103
2024-10-11T12:15:39.167Z,0.0025,-0.9796,0.1177,0.1085,-0.0202,0.0442,-0.0017,0.0668,-0.0141,-2.3135,1.4518,3.1103
2024-10-11T12:15:39.177Z,0.0009,-0.9745,0.1155,0.0149,-0.1572,-0.0019,-0.0014,0.0703,-0.0102,-2.3103,1.4518,3.1089
2024-10-11T12:15:39.187Z,0.0064,-0.9732,0.1099,0.0149,-0.1572,-0.0019,-0.0042,0.0715,-0.0056,-2.3103,1.4518,3.1089
2024-10-11T12:15:39.199Z,0.0097,-0.9759,0.1045,0.0149,-0.1572,-0.0019,-0.0006,0.0720,-0.0028,-2.3103,1.4518,3.1089
2024-10-11T12:15:39.207Z,0.0050,-0.9753,0.0995,-0.0341,-0.1793,0.1521,-0.0011,0.0725,-0.0030,-2.3091,1.4518,3.1095
2024-10-11T12:15:39.217Z,0.0005,-0.9760,0.0946,-0.0341,-0.1793,0.1521,0.0009,0.0666,-0.0038,-2.3091,1.4518,3.1095
2024-10-11T12:15:39.228Z,-0.0060,-0.9783,0.0994,-0.0341,-0.1793,0.1521,0.0042,0.0649,-0.0044,-2.3091,1.4518,3.1095
2024-10-11T12:15:39.237Z,0.0003,-0.9817,0.1096,0.0720,-0.1271,0.1356,0.0034,0.0636,-0.0021,-2.3085,1.4517,3.1108
2024-10-11T12:15:39.248Z,0.0034,-0.9903,0.1087,0.0720,-0.1271,0.1356,0.0056,0.0657,-0.0006,-2.3085,1.4517,3.1108
2024-10-11T12:15:39.257Z,-0.0047,-0.9949,0.1099,0.0720,-0.1271,0.1356,0.0075,0.0620,0.0003,-2.3085,1.4517,3.1108
2024-10-11T12:15:39.267Z,-0.0089,-0.9957,0.1175,0.1205,0.0179,0.0963,0.0075,0.0582,0.0026,-2.3088,1.4515,3.1126
2024-10-11T12:15:39.277Z,-0.0068,-0.9933,0.1173,0.1205,0.0179,0.0963,0.0070,0.0575,0.0037,-2.3088,1.4515,3.1126
2024-10-11T12:15:39.287Z,-0.0050,-0.9958,0.1265,0.1205,0.0179,0.0963,0.0046,0.0575,0.0019,-2.3088,1.4515,3.1126
2024-10-11T12:15:39.298Z,-0.0014,-0.9977,0.1240,0.0705,0.0518,-0.0209,0.0019,0.0566,-0.0000,-2.3098,1.4514,3.1151
2024-10-11T12:15:39.307Z,-0.0003,-1.0019,0.1229,0.0705,0.0518,-0.0209,0.0043,0.0513,0.0032,-2.3098,1.4514,3.1151
2024-10-11T12:15:39.317Z,0.0036,-1.0029,0.1195,0.0705,0.0518,-0.0209,0.0060,0.0474,0.0042,-2.3098,1.4514,3.1151
2024-10-11T12:15:39.327Z,0.0081,-1.0025,0.1178,-0.0489,0.1095,0.0068,0.0046,0.0479,0.0059,-2.3112,1.4512,3.1177
2024-10-11T12:15:39.337Z,0.0014,-0.9991,0.1200,-0.0489,0.1095,0.0068,0.0063,0.0479,0.0077,-2.3112,1.4512,3.1177
2024-10-11T12:15:39.347Z,-0.0026,-0.9988,0.1234,-0.0489,0.1095,0.0068,0.0056,0.0466,0.0098,-2.3112,1.4512,3.1177
2024-10-11T12:15:39.357Z,0.0019,-1.0006,0.1320,0.0303,0.0528,-0.0851,0.0025,0.0471,0.0087,-2.3137,1.4510,3.1214
2024-10-11T12:15:39.367Z,0.0005,-1.0016,0.1317,0.0303,0.0528,-0.0851,-0.0015,0.0449,0.0105,-2.3137,1.4510,3.1214
2024-10-11T12:15:39.377Z,-0.0096,-0.9999,0.1299,0.0303,0.0528,-0.0851,0.0003,0.0390,0.0070,-2.3137,1.4510,3.1214
2024-10-11T12:15:39.387Z,-0.0133,-0.9989,0.1257,0.1416,0.0599,-0.1028,0.0005,0.0292,0.0059,-2.3162,1.4510,3.1248
2024-10-11T12:15:39.398Z,-0.0104,-0.9952,0.1315,0.1416,0.0599,-0.1028,-0.0031,0.0251,0.0055,-2.3162,1.4510,3.1248
2024-10-11T12:15:39.407Z,-0.0064,-0.9978,0.1230,0.1416,0.0599,-0.1028,-0.0014,0.0238,0.0023,-2.3162,1.4510,3.1248
2024-10-11T12:15:39.417Z,0.0005,-1.0005,0.1211,0.0333,0.0625,-0.0399,-0.0047,0.0204,0.0034,-2.3175,1.4510,3.1267
2024-10-11T12:15:39.427Z,0.0020,-1.0000,0.1266,0.0333,0.0625,-0.0399,-0.0016,0.0223,0.0038,-2.3175,1.4510,3.1267
2024-10-11T12:15:39.437Z,0.0098,-0.9985,0.1250,0.0333,0.0625,-0.0399,-0.0019,0.0227,0.0058,-2.3175,1.4510,3.1267
2024-10-11T12:15:39.449Z,0.0101,-0.9934,0.1297,-0.1119,0.0304,-0.0445,-0.0045,0.0189,0.0060,-2.3190,1.4510,3.1285
2024-10-11T12:15:39.457Z,-0.0002,-0.9941,0.1344,-0.1119,0.0304,-0.0445,-0.0061,0.0167,0.0070,-2.3190,1.4510,3.1285
2024-10-11T12:15:39.467Z,0.0032,-0.9961,0.1405,-0.1119,0.0304,-0.0445,-0.0083,0.0165,0.0092,-2.3190,1.4510,3.1285
2024-10-11T12:15:39.477Z,0.0025,-0.9972,0.1354,-0.0072,0.0391,-0.1755,-0.0089,0.0162,0.0073,-2.3214,1.4512,3.1312
2024-10-11T12:15:39.487Z,0.0065,-0.9994,0.1356,-0.0072,0.0391,-0.1755,-0.0077,0.0176,0.0108,-2.3214,1.4512,3.1312
2024-10-11T12:15:39.498Z,-0.0017,-0.9979,0.1348,-0.0072,0.0391,-0.1755,-0.0125,0.0154,0.0096,-2.3214,1.4512,3.1312
2024-10-11T12:15:39.507Z,-0.0047,-0.9998,0.1339,0.0588,0.0526,-0.1654,-0.0113,0.0142,0.0086,-2.3241,1.4515,3.1341
2024-10-11T12:15:39.517Z,0.0013,-0.9980,0.1308,0.0588,0.0526,-0.1654,-0.0134,0.0133,0.0097,-2.3241,1.4515,3.1341
2024-10-11T12:15:39.527Z,0.0050,-0.9978,0.1271,0.0588,0.0526,-0.1654,-0.0126,0.0097,0.0098,-2.3241,1.4515,3.1341
2024-10-11T12:15:39.537Z,0.0004,-0.9986,0.1208,-0.0255,0.0504,-0.0391,-0.0148,0.0086,0.0102,-2.3265,1.4519,3.1366
2024-10-11T12:15:39.548Z,-0.0078,-0.9963,0.1227,-0.0255,0.0504,-0.0391,-0.0136,0.0066,0.0063,-2.3265,1.4519,3.1366
2024-10-11T12:15:39.557Z,-0.0052,-0.9922,0.1241,-0.0255,0.0504,-0.0391,-0.0143,0.0041,0.0075,-2.3265,1.4519,3.1366
2024-10-11T12:15:39.567Z,-0.0043,-0.9916,0.1167,0.0535,-0.0034,-0.0171,-0.0144,0.0039,0.0050,-2.3287,1.4522,3.1387
2024-10-11T12:15:39.577Z,-0.0038,-0.9852,0.1201,0.0535,-0.0034,-0.0171,-0.0146,0.0050,0.0016,-2.3287,1.4522,3.1387
2024-10-11T12:15:39.587Z,-0.0004,-0.9841,0.1154,0.0535,-0.0034,-0.0171,-0.0120,0.0008,0.0020,-2.3287,1.4522,3.1387
2024-10-11T12:15:39.598Z,0.0045,-0.9850,0.1148,0.0011,-0.0907,0.0072,-0.0113,0.0016,0.0041,-2.3299,1.4526,3.1397
2024-10-11T12:15:39.607Z,0.0069,-0.9822,0.1118,0.0011,-0.0907,0.0072,-0.0127,0.0040,0.0057,-2.3299,1.4526,3.1397
2024-10-11T12:15:39.617Z,0.0003,-0.9811,0.1090,0.0011,-0.0907,0.0072,-0.0082,0.0045,0.0029,-2.3299,1.4526,3.1397
2024-10-11T12:15:39.627Z,0.0006,-0.9770,0.1087,0.0021,-0.1394,0.1002,-0.0078,0.0021,0.0047,-2.3312,1.4530,3.1408
2024-10-11T12:15:39.637Z,-0.0017,-0.9805,0.0997,0.0021,-0.1394,0.1002,-0.0077,0.0036,0.0025,-2.3312,1.4530,3.1408
2024-10-11T12:15:39.648Z,-0.0014,-0.9790,0.1106,0.0021,-0.1394,0.1002,-0.0058,-0.0014,0.0032,-2.3312,1.4530,3.1408
2024-10-11T12:15:39.657Z,-0.0077,-0.9816,0.1087,0.0322,-0.1294,0.0784,-0.0025,-0.0056,0.0001,-2.3321,1.4531,3.1415
2024-10-11T12:15:39.668Z,-0.0106,-0.9884,0.1125,0.0322,-0.1294,0.0784,-0.0055,-0.0030,-0.0035,-2.3321,1.4531,3.1415
2024-10-11T12:15:39.677Z,-0.0028,-0.9856,0.1138,0.0322,-0.1294,0.0784,-0.0015,0.0001,-0.0019,-2.3321,1.4531,3.1415
2024-10-11T12:15:39.687Z,0.0065,-0.9852,0.1013,-0.0266,-0.0847,0.0962,0.0013,-0.0025,-0.0030,-2.3319,1.4532,3.1409
2024-10-11T12:15:39.698Z,0.0031,-0.9816,0.0988,-0.0266,-0.0847,0.0962,0.0033,-0.0046,-0.0050,-2.3319,1.4532,3.1409
2024-10-11T12:15:39.707Z,-0.0027,-0.9781,0.1019,-0.0266,-0.0847,0.0962,0.0075,-0.0030,-0.0040,-2.3319,1.4532,3.1409
2024-10-11T12:15:39.717Z,0.0026,-0.9813,0.1033,-0.0063,-0.1325,0.1454,0.0086,-0.0046,-0.0038,-2.3310,1.4531,3.1397
2024-10-11T12:15:39.727Z,0.0103,-0.9864,0.1035,-0.0063,-0.1325,0.1454,0.0119,-0.0036,-0.0057,-2.3310,1.4531,3.1397
2024-10-11T12:15:39.737Z,0.0045,-0.9876,0.1061,-0.0063,-0.1325,0.1454,0.0116,-0.0043,-0.0051,-2.3310,1.4531,3.1397
2024-10-11T12:15:39.748Z,-0.0089,-0.9853,0.1085,0.0446,-0.0734,0.1115,0.0119,0.0023,-0.0075,-2.3300,1.4527,3.1384
2024-10-11T12:15:39.757Z,-0.0058,-0.9883,0.1101,0.0446,-0.0734,0.1115,0.0142,0.0016,-0.0096,-2.3300,1.4527,3.1384
2024-10-11T12:15:39.767Z,0.0029,-0.9916,0.1106,0.0446,-0.0734,0.1115,0.0161,0.0001,-0.0110,-2.3300,1.4527,3.1384
2024-10-11T12:15:39.777Z,0.0060,-0.9896,0.1167,-0.0524,-0.0241,0.0015,0.0188,0.0033,-0.0060,-2.3282,1.4522,3.1362
2024-10-11T12:15:39.787Z,0.0096,-0.9918,0.1182,-0.0524,-0.0241,0.0015,0.0163,0.0019,-0.0075,-2.3282,1.4522,3.1362
2024-10-11T12:15:39.798Z,0.0084,-0.9870,0.1200,-0.0524,-0.0241,0.0015,0.0155,0.0062,-0.0072,-2.3282,1.4522,3.1362
2024-10-11T12:15:39.807Z,0.0057,-0.9863,0.1234,-0.0673,-0.0804,-0.0546,0.0166,0.0121,-0.0076,-2.3265,1.4517,3.1345
2024-10-11T12:15:39.818Z,-0.0004,-0.9889,0.1179,-0.0673,-0.0804,-0.0546,0.0145,0.0148,-0.0086,-2.3265,1.4517,3.1345
2024-10-11T12:15:39.827Z,-0.0041,-0.9923,0.1198,-0.0673,-0.0804,-0.0546,0.0155,0.0175,-0.0083,-2.3265,1.4517,3.1345
2024-10-11T12:15:39.837Z,0.0022,-0.9985,0.1211,0.0172,0.0263,0.0083,0.0151,0.0143,-0.0058,-2.3250,1.4513,3.1330
2024-10-11T12:15:39.848Z,-0.0011,-1.0025,0.1326,0.0172,0.0263,0.0083,0.0144,0.0193,-0.0078,-2.3250,1.4513,3.1330
2024-10-11T12:15:39.857Z,-0.0034,-1.0041,0.1407,0.0172,0.0263,0.0083,0.0125,0.0188,-0.0067,-2.3250,1.4513,3.1330
2024-10-11T12:15:39.867Z,-0.0120,-1.0035,0.1483,0.0860,0.1157,-0.2565,0.0077,0.0229,-0.0071,-2.3235,1.4509,3.1318
2024-10-11T12:15:39.877Z,-0.0136,-1.0030,0.1554,0.0860,0.1157,-0.2565,0.0027,0.0315,-0.0096,-2.3235,1.4509,3.1318
2024-10-11T12:15:39.888Z,-0.0132,-1.0093,0.1487,0.0860,0.1157,-0.2565,0.0014,0.0314,-0.0109,-2.3235,1.4509,3.1318
2024-10-11T12:15:39.900Z,-0.0202,-1.0134,0.1487,0.1862,0.1998,-0.2496,0.0014,0.0308,-0.0129,-2.3214,1.4507,3.1304
2024-10-11T12:15:39.907Z,-0.0218,-1.0133,0.1429,0.1862,0.1998,-0.2496,0.0004,0.0316,-0.0127,-2.3214,1.4507,3.1304
2024-10-11T12:15:39.917Z,-0.0142,-1.0105,0.1509,0.1862,0.1998,-0.2496,-0.0065,0.0345,-0.0145,-2.3214,1.4507,3.1304
2024-10-11T12:15:39.927Z,-0.0090,-1.0088,0.1525,0.1143,0.1680,-0.3055,-0.0108,0.0392,-0.0159,-2.3181,1.4508,3.1279
2024-10-11T12:15:39.937Z,-0.0150,-1.0099,0.1507,0.1143,0.1680,-0.3055,-0.0106,0.0371,-0.0172,-2.3181,1.4508,3.1279
2024-10-11T12:15:39.948Z,-0.0140,-1.0065,0.1445,0.1143,0.1680,-0.3055,-0.0175,0.0468,-0.0170,-2.3181,1.4508,3.1279
2024-10-11T12:15:39.957Z,-0.0127,-1.0059,0.1370,0.1409,0.1395,-0.2220,-0.0184,0.0523,-0.0176,-2.3141,1.4511,3.1249
2024-10-11T12:15:39.968Z,-0.0066,-1.0032,0.1369,0.1409,0.1395,-0.2220,-0.0199,0.0533,-0.0185,-2.3141,1.4511,3.1249
2024-10-11T12:15:39.977Z,-0.0054,-1.0009,0.1250,0.1409,0.1395,-0.2220,-0.0239,0.0584,-0.0183,-2.3141,1.4511,3.1249
2024-10-11T12:15:39.987Z,-0.0067,-1.0006,0.1247,0.0808,0.0751,-0.0448,-0.0187,0.0591,-0.0166,-2.3102,1.4517,3.1223
2024-10-11T12:15:39.998Z,-0.0039,-0.9968,0.1224,0.0808,0.0751,-0.0448,-0.0187,0.0645,-0.0136,-2.3102,1.4517,3.1223
2024-10-11T12:15:40.007Z,-0.0018,-0.9983,0.1214,0.0808,0.0751,-0.0448,-0.0210,0.0664,-0.0176,-2.3102,1.4517,3.1223
2024-10-11T12:15:40.017Z,-0.0032,-0.9984,0.1176,0.0463,0.0669,0.0045,-0.0216,0.0689,-0.0136,-2.3065,1.4522,3.1203
2024-10-11T12:15:40.027Z,-0.0094,-0.9930,0.1203,0.0463,0.0669,0.0045,-0.0220,0.0693,-0.0130,-2.3065,1.4522,3.1203
2024-10-11T12:15:40.037Z,0.0005,-0.9907,0.1176,0.0463,0.0669,0.0045,-0.0230,0.0691,-0.0144,-2.3065,1.4522,3.1203
2024-10-11T12:15:40.050Z,0.0109,-0.9885,0.1252,-0.0510,-0.0458,-0.0596,-0.0211,0.0652,-0.0147,-2.3030,1.4529,3.1186
2024-10-11T12:15:40.057Z,0.0067,-0.9901,0.1240,-0.0510,-0.0458,-0.0596,-0.0227,0.0646,-0.0125,-2.3030,1.4529,3.1186
2024-10-11T12:15:40.067Z,-0.0052,-0.9898,0.1194,-0.0510,-0.0458,-0.0596,-0.0231,0.0644,-0.0120,-2.3030,1.4529,3.1186
2024-10-11T12:15:40.077Z,-0.0036,-0.9868,0.1136,0.1023,-0.0489,0.0213,-0.0235,0.0628,-0.0144,-2.2995,1.4535,3.1169
2024-10-11T12:15:40.087Z,0.0065,-0.9861,0.1125,0.1023,-0.0489,0.0213,-0.0229,0.0576,-0.0162,-2.2995,1.4535,3.1169
2024-10-11T12:15:40.101Z,0.0135,-0.9816,0.1189,-0.1638,-0.0724,0.0398,-0.0252,0.0586,-0.0161,-2.2956,1.4542,3.1144
2024-10-11T12:15:40.108Z,0.0242,-0.9877,0.1069,-0.1638,-0.0724,0.0398,-0.0241,0.0572,-0.0141,-2.2956,1.4542,3.1144
2024-10-11T12:15:40.117Z,0.0272,-0.9898,0.1123,-0.1638,-0.0724,0.0398,-0.0230,0.0538,-0.0121,-2.2956,1.4542,3.1144
2024-10-11T12:15:40.127Z,0.0252,-0.9918,0.1175,-0.1638,-0.0724,0.0398,-0.0246,0.0540,-0.0104,-2.2956,1.4542,3.1144
2024-10-11T12:15:40.137Z,0.0192,-0.9949,0.1170,-0.1923,0.0100,-0.0405,-0.0245,0.0497,-0.0089,-2.2927,1.4549,3.1129
2024-10-11T12:15:40.149Z,0.0131,-0.9937,0.1237,-0.1923,0.0100,-0.0405,-0.0242,0.0448,-0.0099,-2.2927,1.4549,3.1129
2024-10-11T12:15:40.157Z,0.0136,-0.9925,0.1215,-0.1923,0.0100,-0.0405,-0.0241,0.0377,-0.0084,-2.2927,1.4549,3.1129
2024-10-11T12:15:40.167Z,0.0160,-0.9918,0.1281,-0.1251,-0.0187,-0.0827,-0.0240,0.0326,-0.0086,-2.2905,1.4555,3.1117
2024-10-11T12:15:40.177Z,0.0147,-0.9933,0.1177,-0.1251,-0.0187,-0.0827,-0.0201,0.0296,-0.0085,-2.2905,1.4555,3.1117
2024-10-11T12:15:40.187Z,0.0217,-0.9925,0.1102,-0.1251,-0.0187,-0.0827,-0.0211,0.0168,-0.0098,-2.2905,1.4555,3.1117
2024-10-11T12:15:40.199Z,0.0160,-0.9880,0.1109,-0.1373,-0.0351,0.0472,-0.0201,0.0142,-0.0072,-2.2881,1.4561,3.1100
2024-10-11T12:15:40.207Z,0.0315,-0.9848,0.1138,-0.1373,-0.0351,0.0472,-0.0201,0.0142,-0.0072,-2.2881,1.4561,3.1100
2024-10-11T12:15:40.217Z,0.0240,-0.9824,0.1216,-0.1373,-0.0351,0.0472,-0.0193,0.0108,-0.0065,-2.2881,1.4561,3.1100
2024-10-11T12:15:40.228Z,0.0161,-0.9841,0.1268,-0.1363,-0.1167,-0.1380,-0.0231,0.0075,-0.0055,-2.2860,1.4567,3.1080
2024-10-11T12:15:40.238Z,0.0192,-0.9852,0.1186,-0.1363,-0.1167,-0.1380,-0.0223,0.0050,-0.0024,-2.2860,1.4567,3.1080
2024-10-11T12:15:40.248Z,0.0226,-0.9884,0.1182,-0.1363,-0.1167,-0.1380,-0.0240,0.0010,-0.0001,-2.2860,1.4567,3.1080
2024-10-11T12:15:40.258Z,0.0200,-0.9918,0.1142,-0.1714,-0.0295,-0.0222,-0.0196,-0.0012,-0.0030,-2.2849,1.4573,3.1068
2024-10-11T12:15:40.268Z,0.0135,-0.9943,0.1116,-0.1714,-0.0295,-0.0222,-0.0181,-0.0069,-0.0018,-2.2849,1.4573,3.1068
2024-10-11T12:15:40.279Z,0.0113,-0.9924,0.1210,-0.1714,-0.0295,-0.0222,-0.0194,-0.0093,0.0002,-2.2849,1.4573,3.1068
2024-10-11T12:15:40.287Z,0.0121,-0.9953,0.1169,-0.0475,0.0068,-0.0681,-0.0194,-0.0093,0.0002,-2.2842,1.4579,3.1057
2024-10-11T12:15:40.298Z,0.0133,-0.9964,0.1195,-0.0475,0.0068,-0.0681,-0.0175,-0.0181,-0.0035,-2.2842,1.4579,3.1057
2024-10-11T12:15:40.307Z,0.0074,-0.9994,0.1138,-0.0475,0.0068,-0.0681,-0.0175,-0.0181,-0.0035,-2.2842,1.4579,3.1057
2024-10-11T12:15:40.318Z,0.0047,-0.9993,0.1124,-0.0256,0.0546,-0.0067,-0.0174,-0.0211,-0.0025,-2.2830,1.4584,3.1039
2024-10-11T12:15:40.328Z,0.0022,-0.9945,0.1148,-0.0256,0.0546,-0.0067,-0.0151,-0.0283,-0.0063,-2.2830,1.4584,3.1039
2024-10-11T12:15:40.338Z,0.0049,-0.9893,0.1161,-0.0256,0.0546,-0.0067,-0.0178,-0.0307,-0.0081,-2.2830,1.4584,3.1039
2024-10-11T12:15:40.347Z,0.0072,-0.9889,0.1182,-0.0213,-0.0579,-0.0547,-0.0178,-0.0307,-0.0081,-2.2811,1.4589,3.1010
2024-10-11T12:15:40.358Z,0.0076,-0.9955,0.1115,-0.0213,-0.0579,-0.0547,-0.0142,-0.0329,-0.0063,-2.2811,1.4589,3.1010
2024-10-11T12:15:40.366Z,0.0165,-0.9960,0.1149,-0.0213,-0.0579,-0.0547,-0.0142,-0.0329,-0.0063,-2.2811,1.4589,3.1010
2024-10-11T12:15:40.378Z,0.0185,-0.9949,0.1090,-0.1409,0.0203,-0.0204,-0.0138,-0.0304,-0.0033,-2.2790,1.4593,3.0977
2024-10-11T12:15:40.388Z,0.0170,-0.9896,0.1028,-0.1409,0.0203,-0.0204,-0.0112,-0.0282,-0.0015,-2.2790,1.4593,3.0977
2024-10-11T12:15:40.398Z,0.0195,-0.9849,0.1070,-0.1409,0.0203,-0.0204,-0.0120,-0.0282,0.0013,-2.2790,1.4593,3.0977
2024-10-11T12:15:40.408Z,0.0233,-0.9863,0.1125,-0.1677,-0.0901,0.0060,-0.0115,-0.0231,0.0037,-2.2784,1.4597,3.0960
2024-10-11T12:15:40.417Z,0.0167,-0.9871,0.1097,-0.1677,-0.0901,0.0060,-0.0115,-0.0231,0.0037,-2.2784,1.4597,3.0960
2024-10-11T12:15:40.428Z,0.0058,-0.9880,0.1073,-0.1677,-0.0901,0.0060,-0.0083,-0.0209,0.0054,-2.2784,1.4597,3.0960
2024-10-11T12:15:40.438Z,0.0054,-0.9860,0.1105,0.0045,-0.0707,0.0337,-0.0105,-0.0168,0.0050,-2.2791,1.4600,3.0958
2024-10-11T12:15:40.448Z,0.0112,-0.9840,0.1114,0.0045,-0.0707,0.0337,-0.0119,-0.0182,0.0062,-2.2791,1.4600,3.0958
2024-10-11T12:15:40.458Z,0.0144,-0.9778,0.1073,0.0045,-0.0707,0.0337,-0.0097,-0.0136,0.0109,-2.2791,1.4600,3.0958
2024-10-11T12:15:40.466Z,0.0087,-0.9800,0.1039,-0.0488,-0.1424,0.0248,-0.0097,-0.0136,0.0109,-2.2804,1.4603,3.0962
2024-10-11T12:15:40.478Z,0.0182,-0.9829,0.1031,-0.0488,-0.1424,0.0248,-0.0100,-0.0104,0.0116,-2.2804,1.4603,3.0962
2024-10-11T12:15:40.488Z,0.0184,-0.9873,0.1006,-0.0488,-0.1424,0.0248,-0.0072,-0.0042,0.0133,-2.2804,1.4603,3.0962
2024-10-11T12:15:40.498Z,0.0108,-0.9861,0.1046,-0.1031,-0.0734,0.0500,-0.0041,-0.0025,0.0128,-2.2832,1.4606,3.0984
2024-10-11T12:15:40.508Z,0.0039,-0.9868,0.1071,-0.1031,-0.0734,0.0500,-0.0076,-0.0000,0.0100,-2.2832,1.4606,3.0984
2024-10-11T12:15:40.517Z,-0.0023,-0.9883,0.1103,-0.1031,-0.0734,0.0500,-0.0076,-0.0000,0.0100,-2.2832,1.4606,3.0984
2024-10-11T12:15:40.528Z,0.0098,-0.9921,0.1115,0.0288,-0.0387,-0.0288,-0.0033,0.0032,0.0149,-2.2866,1.4607,3.1014
2024-10-11T12:15:40.538Z,0.0181,-0.9963,0.1044,0.0288,-0.0387,-0.0288,-0.0020,0.0030,0.0153,-2.2866,1.4607,3.1014
2024-10-11T12:15:40.548Z,0.0134,-0.9964,0.0972,0.0288,-0.0387,-0.0288,-0.0005,0.0080,0.0160,-2.2866,1.4607,3.1014
2024-10-11T12:15:40.557Z,0.0164,-0.9953,0.0957,-0.0904,0.0256,0.1323,-0.0017,0.0125,0.0195,-2.2904,1.4608,3.1050
2024-10-11T12:15:40.568Z,0.0218,-0.9910,0.1002,-0.0904,0.0256,0.1323,-0.0013,0.0156,0.0195,-2.2904,1.4608,3.1050
2024-10-11T12:15:40.577Z,0.0203,-0.9910,0.1006,-0.0904,0.0256,0.1323,0.0021,0.0168,0.0200,-2.2904,1.4608,3.1050
2024-10-11T12:15:40.588Z,0.0160,-0.9900,0.1006,-0.1574,-0.0430,0.1223,0.0037,0.0195,0.0214,-2.2953,1.4609,3.1101
2024-10-11T12:15:40.597Z,0.0154,-0.9916,0.1005,-0.1574,-0.0430,0.1223,0.0022,0.0183,0.0222,-2.2953,1.4609,3.1101
2024-10-11T12:15:40.609Z,0.0186,-0.9910,0.1040,-0.1218,-0.0222,0.0691,0.0033,0.0224,0.0213,-2.3017,1.4608,3.1168
2024-10-11T12:15:40.617Z,0.0104,-0.9901,0.1096,-0.1218,-0.0222,0.0691,0.0014,0.0216,0.0238,-2.3017,1.4608,3.1168
2024-10-11T12:15:40.627Z,0.0090,-0.9910,0.1062,-0.1218,-0.0222,0.0691,0.0009,0.0245,0.0242,-2.3017,1.4608,3.1168
2024-10-11T12:15:40.638Z,0.0085,-0.9930,0.1167,-0.1218,-0.0222,0.0691,-0.0037,0.0257,0.0216,-2.3017,1.4608,3.1168
2024-10-11T12:15:40.648Z,0.0032,-0.9951,0.1276,-0.0078,0.0006,-0.1081,-0.0043,0.0193,0.0199,-2.3081,1.4608,3.1235
2024-10-11T12:15:40.657Z,0.0047,-0.9947,0.1331,-0.0078,0.0006,-0.1081,-0.0073,0.0151,0.0181,-2.3081,1.4608,3.1235
2024-10-11T12:15:40.668Z,-0.0045,-0.9986,0.1335,-0.0078,0.0006,-0.1081,-0.0087,0.0100,0.0135,-2.3081,1.4608,3.1235
2024-10-11T12:15:40.677Z,-0.0043,-1.0021,0.1312,0.0645,0.0669,-0.2152,-0.0098,0.0099,0.0101,-2.3131,1.4610,3.1288
2024-10-11T12:15:40.687Z,-0.0080,-1.0030,0.1361,0.0645,0.0669,-0.2152,-0.0091,0.0069,0.0106,-2.3131,1.4610,3.1288
2024-10-11T12:15:40.697Z,-0.0097,-1.0049,0.1339,0.0645,0.0669,-0.2152,-0.0150,0.0026,0.0043,-2.3131,1.4610,3.1288
2024-10-11T12:15:40.707Z,-0.0144,-1.0073,0.1324,0.1181,0.1265,-0.2486,-0.0174,0.0027,0.0024,-2.3161,1.4612,3.1318
2024-10-11T12:15:40.718Z,-0.0117,-1.0047,0.1397,0.1181,0.1265,-0.2486,-0.0204,-0.0017,0.0009,-2.3161,1.4612,3.1318
2024-10-11T12:15:40.728Z,0.0003,-1.0034,0.1349,0.0017,0.0921,-0.2169,-0.0193,-0.0043,-0.0005,-2.3170,1.4617,3.1325
2024-10-11T12:15:40.738Z,0.0008,-1.0035,0.1208,0.0017,0.0921,-0.2169,-0.0198,-0.0089,-0.0028,-2.3170,1.4617,3.1325
2024-10-11T12:15:40.748Z,-0.0010,-0.9982,0.1141,0.0017,0.0921,-0.2169,-0.0167,-0.0071,-0.0023,-2.3170,1.4617,3.1325
2024-10-11T12:15:40.758Z,-0.0045,-1.0005,0.1017,0.0017,0.0921,-0.2169,-0.0181,-0.0056,-0.0051,-2.3170,1.4617,3.1325
2024-10-11T12:15:40.767Z,0.0006,-1.0023,0.0997,0.0402,0.0831,0.0755,-0.0181,-0.0056,-0.0051,-2.3169,1.4622,3.1320
2024-10-11T12:15:40.778Z,0.0058,-0.9981,0.1006,0.0402,0.0831,0.0755,-0.0155,-0.0084,-0.0014,-2.3169,1.4622,3.1320
2024-10-11T12:15:40.787Z,0.0066,-0.9993,0.1019,0.0402,0.0831,0.0755,-0.0152,-0.0102,-0.0030,-2.3169,1.4622,3.1320
2024-10-11T12:15:40.797Z,0.0037,-0.9993,0.1038,-0.0363,0.0488,0.0536,-0.0113,-0.0164,-0.0050,-2.3161,1.4626,3.1307
2024-10-11T12:15:40.807Z,0.0090,-0.9985,0.0959,-0.0363,0.0488,0.0536,-0.0130,-0.0149,-0.0027,-2.3161,1.4626,3.1307
2024-10-11T12:15:40.818Z,0.0023,-0.9944,0.0989,0.0138,-0.0183,0.1015,-0.0130,-0.0149,-0.0027,-2.3154,1.4630,3.1294
2024-10-11T12:15:40.827Z,-0.0004,-0.9911,0.0988,0.0138,-0.0183,0.1015,-0.0106,-0.0061,-0.0049,-2.3154,1.4630,3.1294
2024-10-11T12:15:40.837Z,-0.0031,-0.9888,0.0922,0.0138,-0.0183,0.1015,-0.0093,-0.0086,-0.0028,-2.3154,1.4630,3.1294
2024-10-11T12:15:40.849Z,-0.0009,-0.9838,0.0992,0.0089,-0.0997,0.1451,-0.0029,-0.0098,-0.0033,-2.3144,1.4632,3.1278
2024-10-11T12:15:40.857Z,0.0033,-0.9828,0.0903,0.0089,-0.0997,0.1451,-0.0045,-0.0116,-0.0028,-2.3144,1.4632,3.1278
2024-10-11T12:15:40.868Z,0.0048,-0.9835,0.0863,0.0089,-0.0997,0.1451,-0.0030,-0.0156,-0.0020,-2.3144,1.4632,3.1278
2024-10-11T12:15:40.878Z,0.0069,-0.9810,0.0963,-0.0921,-0.1135,0.1264,-0.0003,-0.0149,0.0005,-2.3137,1.4633,3.1266
2024-10-11T12:15:40.887Z,0.0136,-0.9866,0.0947,-0.0921,-0.1135,0.1264,0.0005,-0.0107,0.0008,-2.3137,1.4633,3.1266
2024-10-11T12:15:40.897Z,0.0080,-0.9882,0.0979,-0.0921,-0.1135,0.1264,-0.0025,-0.0070,0.0014,-2.3137,1.4633,3.1266
2024-10-11T12:15:40.908Z,0.0032,-0.9896,0.0985,0.0258,-0.0403,0.1030,-0.0022,-0.0054,-0.0004,-2.3143,1.4634,3.1266
2024-10-11T12:15:40.919Z,-0.0025,-0.9903,0.0982,0.0258,-0.0403,0.1030,-0.0002,-0.0097,0.0012,-2.3143,1.4634,3.1266
2024-10-11T12:15:40.927Z,-0.0021,-0.9899,0.0970,0.0258,-0.0403,0.1030,-0.0009,-0.0139,0.0011,-2.3143,1.4634,3.1266
2024-10-11T12:15:40.939Z,-0.0069,-0.9906,0.0981,0.0821,-0.0390,0.0744,0.0039,-0.0194,-0.0014,-2.3151,1.4634,3.1268
2024-10-11T12:15:40.947Z,-0.0025,-0.9886,0.0992,0.0821,-0.0390,0.0744,0.0054,-0.0162,0.0016,-2.3151,1.4634,3.1268
2024-10-11T12:15:40.957Z,0.0017,-0.9868,0.0936,0.0821,-0.0390,0.0744,0.0056,-0.0127,0.0045,-2.3151,1.4634,3.1268
2024-10-11T12:15:40.969Z,0.0098,-0.9819,0.0886,-0.0811,-0.1460,0.1330,0.0056,-0.0127,0.0045,-2.3160,1.4633,3.1269
2024-10-11T12:15:40.977Z,0.0091,-0.9792,0.0939,-0.0811,-0.1460,0.1330,0.0061,-0.0120,0.0052,-2.3160,1.4633,3.1269
2024-10-11T12:15:40.988Z,0.0074,-0.9800,0.0926,-0.0811,-0.1460,0.1330,0.0061,-0.0134,0.0066,-2.3160,1.4633,3.1269
2024-10-11T12:15:40.998Z,0.0039,-0.9825,0.0997,0.0023,-0.0904,0.0406,0.0097,-0.0192,0.0075,-2.3181,1.4630,3.1284
2024-10-11T12:15:41.007Z,0.0013,-0.9891,0.1009,0.0023,-0.0904,0.0406,0.0104,-0.0182,0.0081,-2.3181,1.4630,3.1284
2024-10-11T12:15:41.018Z,0.0062,-0.9940,0.0974,0.0023,-0.0904,0.0406,0.0124,-0.0138,0.0093,-2.3181,1.4630,3.1284
2024-10-11T12:15:41.028Z,-0.0018,-0.9921,0.1042,0.0499,-0.0365,0.0294,0.0085,-0.0088,0.0106,-2.3213,1.4628,3.1309
2024-10-11T12:15:41.037Z,-0.0041,-0.9894,0.1048,0.0499,-0.0365,0.0294,0.0094,-0.0120,0.0112,-2.3213,1.4628,3.1309
2024-10-11T12:15:41.047Z,-0.0039,-0.9871,0.1108,0.0499,-0.0365,0.0294,0.0070,-0.0082,0.0073,-2.3213,1.4628,3.1309
2024-10-11T12:15:41.057Z,-0.0086,-0.9893,0.1062,0.1331,-0.0285,0.0059,0.0063,-0.0083,0.0071,-2.3243,1.4625,3.1334
2024-10-11T12:15:41.068Z,-0.0174,-0.9916,0.1089,0.1331,-0.0285,0.0059,0.0075,-0.0132,0.0039,-2.3243,1.4625,3.1334
2024-10-11T12:15:41.077Z,-0.0189,-0.9907,0.1170,0.1331,-0.0285,0.0059,0.0058,-0.0119,0.0046,-2.3243,1.4625,3.1334
2024-10-11T12:15:41.087Z,-0.0146,-0.9926,0.1158,0.1331,-0.0285,0.0059,0.0049,-0.0138,0.0030,-2.3243,1.4625,3.1334
2024-10-11T12:15:41.097Z,-0.0189,-0.9936,0.1164,0.1584,-0.0081,-0.0866,0.0051,-0.0120,-0.0008,-2.3261,1.4623,3.1345
2024-10-11T12:15:41.107Z,-0.0224,-0.9971,0.1091,0.1584,-0.0081,-0.0866,0.0053,-0.0154,-0.0021,-2.3261,1.4623,3.1345
2024-10-11T12:15:41.120Z,-0.0193,-0.9985,0.1054,0.1506,0.0429,0.0135,0.0067,-0.0145,-0.0020,-2.3262,1.4622,3.1340
2024-10-11T12:15:41.127Z,-0.0107,-0.9986,0.1092,0.1506,0.0429,0.0135,0.0076,-0.0159,-0.0037,-2.3262,1.4622,3.1340
2024-10-11T12:15:41.137Z,-0.0107,-1.0011,0.1071,0.1506,0.0429,0.0135,0.0045,-0.0152,-0.0022,-2.3262,1.4622,3.1340
2024-10-11T12:15:41.147Z,-0.0088,-0.9972,0.1154,0.0652,0.0254,-0.0436,0.0009,-0.0105,-0.0042,-2.3261,1.4620,3.1331
2024-10-11T12:15:41.157Z,-0.0035,-0.9976,0.1093,0.0652,0.0254,-0.0436,-0.0009,-0.0041,-0.0021,-2.3261,1.4620,3.1331
2024-10-11T12:15:41.168Z,-0.0034,-0.9989,0.1071,0.0652,0.0254,-0.0436,0.0014,0.0024,-0.0047,-2.3261,1.4620,3.1331
2024-10-11T12:15:41.178Z,-0.0045,-0.9998,0.1070,0.0694,0.0755,0.0616,0.0029,-0.0011,0.0005,-2.3258,1.4619,3.1323
2024-10-11T12:15:41.187Z,-0.0087,-1.0041,0.1064,0.0694,0.0755,0.0616,-0.0001,-0.0061,-0.0039,-2.3258,1.4619,3.1323
2024-10-11T12:15:41.198Z,-0.0087,-1.0044,0.1101,0.0694,0.0755,0.0616,0.0013,-0.0052,-0.0043,-2.3258,1.4619,3.1323
2024-10-11T12:15:41.208Z,-0.0013,-1.0056,0.1149,0.0135,0.1036,-0.0161,0.0000,-0.0035,-0.0033,-2.3252,1.4619,3.1314
2024-10-11T12:15:41.219Z,0.0001,-1.0025,0.1155,0.0135,0.1036,-0.0161,-0.0039,0.0013,-0.0016,-2.3252,1.4619,3.1314
2024-10-11T12:15:41.227Z,-0.0020,-1.0012,0.1154,0.0135,0.1036,-0.0161,-0.0033,0.0054,-0.0010,-2.3252,1.4619,3.1314
2024-10-11T12:15:41.237Z,0.0004,-1.0004,0.1081,0.0361,0.0435,-0.0006,-0.0059,0.0126,0.0014,-2.3253,1.4620,3.1315
2024-10-11T12:15:41.247Z,-0.0017,-0.9966,0.1111,0.0361,0.0435,-0.0006,-0.0075,0.0153,0.0003,-2.3253,1.4620,3.1315
2024-10-11T12:15:41.257Z,-0.0044,-0.9979,0.1142,0.0361,0.0435,-0.0006,-0.0059,0.0131,-0.0008,-2.3253,1.4620,3.1315
2024-10-11T12:15:41.269Z,-0.0087,-1.0003,0.1124,0.1051,0.0649,-0.1398,-0.0099,0.0177,-0.0027,-2.3257,1.4622,3.1319
2024-10-11T12:15:41.277Z,-0.0091,-1.0024,0.1265,0.1051,0.0649,-0.1398,-0.0082,0.0184,-0.0029,-2.3257,1.4622,3.1319
2024-10-11T12:15:41.286Z,-0.0079,-1.0039,0.1197,0.1051,0.0649,-0.1398,-0.0129,0.0181,-0.0027,-2.3257,1.4622,3.1319
2024-10-11T12:15:41.298Z,-0.0126,-1.0020,0.1204,0.1145,0.0713,-0.1141,-0.0151,0.0147,-0.0029,-2.3254,1.4624,3.1317
2024-10-11T12:15:41.307Z,-0.0080,-1.0014,0.1153,0.1145,0.0713,-0.1141,-0.0136,0.0165,-0.0013,-2.3254,1.4624,3.1317
2024-10-11T12:15:41.317Z,-0.0090,-1.0024,0.1165,0.1145,0.0713,-0.1141,-0.0148,0.0137,-0.0007,-2.3254,1.4624,3.1317
2024-10-11T12:15:41.328Z,-0.0042,-0.9958,0.1099,0.0415,-0.0105,-0.0295,-0.0127,0.0164,-0.0037,-2.3247,1.4628,3.1312
2024-10-11T12:15:41.337Z,-0.0050,-0.9918,0.1072,0.0415,-0.0105,-0.0295,-0.0161,0.0174,-0.0038,-2.3247,1.4628,3.1312
2024-10-11T12:15:41.347Z,-0.0041,-0.9834,0.1086,0.0415,-0.0105,-0.0295,-0.0150,0.0233,-0.0016,-2.3247,1.4628,3.1312
2024-10-11T12:15:41.357Z,-0.0012,-0.9823,0.1010,0.0391,-0.1048,0.0995,-0.0129,0.0231,-0.0034,-2.3242,1.4632,3.1311
2024-10-11T12:15:41.367Z,-0.0037,-0.9838,0.0970,0.0391,-0.1048,0.0995,-0.0136,0.0223,-0.0040,-2.3242,1.4632,3.1311
2024-10-11T12:15:41.377Z,-0.0040,-0.9841,0.0981,0.0391,-0.1048,0.0995,-0.0117,0.0238,-0.0058,-2.3242,1.4632,3.1311
2024-10-11T12:15:41.388Z,-0.0041,-0.9849,0.0969,0.0140,-0.0894,0.1402,-0.0098,0.0165,-0.0036,-2.3234,1.4636,3.1306
2024-10-11T12:15:41.397Z,0.0079,-0.9835,0.0939,0.0140,-0.0894,0.1402,-0.0085,0.0180,-0.0041,-2.3234,1.4636,3.1306
2024-10-11T12:15:41.407Z,0.0099,-0.9912,0.0959,0.0140,-0.0894,0.1402,-0.0061,0.0148,-0.0064,-2.3234,1.4636,3.1306
2024-10-11T12:15:41.420Z,0.0039,-0.9967,0.0923,0.0172,0.0167,0.1071,-0.0062,0.0090,-0.0077,-2.3225,1.4638,3.1301
2024-10-11T12:15:41.428Z,-0.0038,-0.9969,0.0992,0.0172,0.0167,0.1071,-0.0041,0.0094,-0.0095,-2.3225,1.4638,3.1301
2024-10-11T12:15:41.437Z,-0.0046,-0.9949,0.1000,0.0172,0.0167,0.1071,-0.0035,0.0028,-0.0091,-2.3225,1.4638,3.1301
2024-10-11T12:15:41.447Z,-0.0010,-0.9950,0.1077,0.0470,-0.0110,-0.0349,-0.0073,0.0044,-0.0124,-2.3201,1.4640,3.1277
2024-10-11T12:15:41.457Z,-0.0068,-0.9921,0.1148,0.0470,-0.0110,-0.0349,-0.0066,0.0038,-0.0136,-2.3201,1.4640,3.1277
2024-10-11T12:15:41.467Z,-0.0084,-0.9906,0.1174,0.0470,-0.0110,-0.0349,-0.0081,-0.0011,-0.0172,-2.3201,1.4640,3.1277
2024-10-11T12:15:41.477Z,0.0057,-0.9883,0.1207,-0.0697,-0.0588,-0.1144,-0.0081,-0.0048,-0.0154,-2.3161,1.4642,3.1234
2024-10-11T12:15:41.487Z,0.0074,-0.9883,0.1189,-0.0697,-0.0588,-0.1144,-0.0134,-0.0034,-0.0147,-2.3161,1.4642,3.1234
2024-10-11T12:15:41.497Z,0.0002,-0.9817,0.1264,-0.0697,-0.0588,-0.1144,-0.0138,-0.0036,-0.0178,-2.3161,1.4642,3.1234
2024-10-11T12:15:41.507Z,-0.0031,-0.9811,0.1217,0.0516,-0.1200,-0.1118,-0.0141,-0.0063,-0.0208,-2.3114,1.4646,3.1185
2024-10-11T12:15:41.517Z,0.0001,-0.9846,0.1123,0.0516,-0.1200,-0.1118,-0.0118,-0.0060,-0.0190,-2.3114,1.4646,3.1185
2024-10-11T12:15:41.527Z,0.0003,-0.9893,0.1030,0.0516,-0.1200,-0.1118,-0.0127,-0.0064,-0.0203,-2.3114,1.4646,3.1185
2024-10-11T12:15:41.537Z,0.0054,-0.9924,0.0953,-0.0309,-0.0145,0.0838,-0.0100,-0.0037,-0.0169,-2.3065,1.4649,3.1132
2024-10-11T12:15:41.547Z,0.0060,-0.9913,0.1021,-0.0309,-0.0145,0.0838,-0.0118,-0.0013,-0.0188,-2.3065,1.4649,3.1132
2024-10-11T12:15:41.557Z,0.0118,-0.9851,0.1072,-0.0309,-0.0145,0.0838,-0.0107,0.0025,-0.0138,-2.3065,1.4649,3.1132
2024-10-11T12:15:41.567Z,0.0095,-0.9816,0.1101,-0.0498,-0.1149,-0.0315,-0.0120,0.0040,-0.0139,-2.3020,1.4651,3.1085
2024-10-11T12:15:41.577Z,0.0107,-0.9850,0.1032,-0.0498,-0.1149,-0.0315,-0.0090,0.0017,-0.0147,-2.3020,1.4651,3.1085
2024-10-11T12:15:41.587Z,0.0071,-0.9917,0.0950,-0.0498,-0.1149,-0.0315,-0.0035,0.0017,-0.0139,-2.3020,1.4651,3.1085
2024-10-11T12:15:41.597Z,0.0071,-0.9944,0.0894,-0.0809,0.0040,0.1792,-0.0033,0.0055,-0.0114,-2.2982,1.4652,3.1045
2024-10-11T12:15:41.607Z,0.0134,-0.9960,0.0840,-0.0809,0.0040,0.1792,0.0028,-0.0007,-0.0127,-2.2982,1.4652,3.1045
2024-10-11T12:15:41.617Z,0.0130,-0.9968,0.0859,-0.0809,0.0040,0.1792,0.0045,0.0009,-0.0111,-2.2982,1.4652,3.1045
2024-10-11T12:15:41.627Z,0.0156,-0.9942,0.0963,-0.0808,0.0050,0.1574,0.0044,0.0040,-0.0095,-2.2954,1.4652,3.1015
2024-10-11T12:15:41.637Z,0.0195,-0.9957,0.0960,-0.0808,0.0050,0.1574,0.0048,0.0016,-0.0046,-2.2954,1.4652,3.1015
2024-10-11T12:15:41.648Z,0.0166,-0.9963,0.0987,-0.0808,0.0050,0.1574,0.0060,0.0053,-0.0078,-2.2954,1.4652,3.1015
2024-10-11T12:15:41.658Z,0.0134,-0.9901,0.1022,-0.0823,-0.0286,0.0543,0.0047,0.0076,-0.0035,-2.2941,1.4650,3.1001
2024-10-11T12:15:41.668Z,0.0102,-0.9903,0.1022,-0.0823,-0.0286,0.0543,0.0068,0.0095,-0.0027,-2.2941,1.4650,3.1001
2024-10-11T12:15:41.677Z,0.0094,-0.9885,0.1070,-0.0823,-0.0286,0.0543,0.0100,0.0060,-0.0005,-2.2941,1.4650,3.1001
2024-10-11T12:15:41.687Z,0.0053,-0.9885,0.1041,-0.0405,-0.0711,-0.0133,0.0084,0.0067,-0.0036,-2.2935,1.4648,3.0994
2024-10-11T12:15:41.697Z,-0.0007,-0.9922,0.1042,-0.0405,-0.0711,-0.0133,0.0087,0.0059,-0.0056,-2.2935,1.4648,3.0994
2024-10-11T12:15:41.707Z,0.0024,-1.0007,0.0931,-0.0405,-0.0711,-0.0133,0.0143,0.0042,-0.0029,-2.2935,1.4648,3.0994
2024-10-11T12:15:41.717Z,0.0023,-1.0038,0.0894,0.0242,0.1054,0.1346,0.0144,0.0063,-0.0032,-2.2926,1.4645,3.0985
2024-10-11T12:15:41.727Z,0.0112,-1.0004,0.0948,0.0242,0.1054,0.1346,0.0136,0.0081,-0.0013,-2.2926,1.4645,3.0985
2024-10-11T12:15:41.737Z,0.0082,-0.9985,0.0926,0.0242,0.1054,0.1346,0.0133,0.0107,-0.0004,-2.2926,1.4645,3.0985
2024-10-11T12:15:41.747Z,0.0154,-0.9972,0.1015,-0.0725,0.0416,0.0932,0.0141,0.0089,0.0031,-2.2925,1.4641,3.0983
2024-10-11T12:15:41.757Z,0.0135,-0.9932,0.1129,-0.0725,0.0416,0.0932,0.0080,0.0066,0.0030,-2.2925,1.4641,3.0983
2024-10-11T12:15:41.768Z,0.0213,-0.9964,0.1126,-0.0725,0.0416,0.0932,0.0078,0.0108,0.0077,-2.2925,1.4641,3.0983
2024-10-11T12:15:41.777Z,0.0128,-0.9916,0.1189,-0.1321,-0.0103,-0.0760,0.0036,0.0136,0.0073,-2.2942,1.4638,3.1001
2024-10-11T12:15:41.787Z,0.0152,-1.0026,0.1170,-0.1321,-0.0103,-0.0760,0.0064,0.0162,0.0107,-2.2942,1.4638,3.1001
2024-10-11T12:15:41.797Z,0.0228,-1.0173,0.1070,-0.1321,-0.0103,-0.0760,0.0037,0.0166,0.0096,-2.2942,1.4638,3.1001
2024-10-11T12:15:41.807Z,0.0146,-1.0255,0.1075,-0.1687,0.2850,-0.0023,0.0039,0.0152,0.0087,-2.2970,1.4636,3.1031
2024-10-11T12:15:41.818Z,0.0076,-1.0169,0.1144,-0.1687,0.2850,-0.0023,0.0012,0.0123,0.0089,-2.2970,1.4636,3.1031
2024-10-11T12:15:41.827Z,-0.0013,-1.0164,0.1179,-0.1687,0.2850,-0.0023,-0.0016,0.0063,0.0054,-2.2970,1.4636,3.1031
2024-10-11T12:15:41.837Z,-0.0023,-1.0190,0.1269,0.0530,0.2296,-0.1619,-0.0039,0.0097,0.0086,-2.2996,1.4636,3.1058
2024-10-11T12:15:41.847Z,-0.0087,-1.0209,0.1337,0.0530,0.2296,-0.1619,-0.0058,0.0069,0.0071,-2.2996,1.4636,3.1058
2024-10-11T12:15:41.858Z,-0.0106,-1.0152,0.1166,0.0530,0.2296,-0.1619,-0.0110,0.0174,0.0039,-2.2996,1.4636,3.1058
2024-10-11T12:15:41.868Z,-0.0106,-1.0152,0.1166,0.1020,0.2008,-0.1820,-0.0144,0.0192,0.0045,-2.3014,1.4638,3.1076
2024-10-11T12:15:41.879Z,-0.0036,-1.0028,0.1174,0.1020,0.2008,-0.1820,-0.0174,0.0167,0.0035,-2.3014,1.4638,3.1076
2024-10-11T12:15:41.889Z,-0.0091,-1.0008,0.1229,0.1020,0.2008,-0.1820,-0.0208,0.0184,-0.0004,-2.3014,1.4638,3.1076
2024-10-11T12:15:41.899Z,-0.0047,-0.9974,0.1237,0.1226,0.0867,-0.1524,-0.0234,0.0198,0.0033,-2.3020,1.4643,3.1084
2024-10-11T12:15:41.909Z,-0.0019,-1.0019,0.1091,0.1226,0.0867,-0.1524,-0.0199,0.0189,0.0018,-2.3020,1.4643,3.1084
2024-10-11T12:15:41.918Z,-0.0019,-1.0019,0.1091,0.1226,0.0867,-0.1524,-0.0268,0.0172,-0.0001,-2.3020,1.4643,3.1084
2024-10-11T12:15:41.927Z,-0.0001,-1.0027,0.0911,0.0214,0.1010,0.0924,-0.0255,0.0219,-0.0023,-2.3026,1.4650,3.1093
2024-10-11T12:15:41.937Z,-0.0170,-0.9831,0.1050,0.0214,0.1010,0.0924,-0.0290,0.0218,-0.0021,-2.3026,1.4650,3.1093
2024-10-11T12:15:41.948Z,0.0054,-0.9640,0.1244,0.0214,0.1010,0.0924,-0.0355,0.0322,0.0004,-2.3026,1.4650,3.1093
2024-10-11T12:15:41.958Z,0.0108,-0.9656,0.1217,0.0353,-0.3122,-0.2271,-0.0382,0.0286,-0.0002,-2.3027,1.4659,3.1100
2024-10-11T12:15:41.968Z,0.0108,-0.9656,0.1217,0.0353,-0.3122,-0.2271,-0.0392,0.0328,0.0014,-2.3027,1.4659,3.1100
2024-10-11T12:15:41.977Z,-0.0091,-0.9558,0.1150,0.0353,-0.3122,-0.2271,-0.0399,0.0387,0.0011,-2.3027,1.4659,3.1100
2024-10-11T12:15:41.987Z,-0.0097,-0.9510,0.1012,0.1623,-0.4226,-0.0453,-0.0386,0.0424,0.0008,-2.3031,1.4671,3.1112
2024-10-11T12:15:41.997Z,-0.0016,-0.9556,0.0880,0.1623,-0.4226,-0.0453,-0.0367,0.0495,0.0040,-2.3031,1.4671,3.1112
2024-10-11T12:15:42.007Z,0.0090,-0.9601,0.0807,0.1623,-0.4226,-0.0453,-0.0300,0.0475,0.0035,-2.3031,1.4671,3.1112
2024-10-11T12:15:42.018Z,0.0079,-0.9665,0.0693,-0.0881,-0.3176,0.2677,-0.0245,0.0422,-0.0004,-2.3039,1.4681,3.1130
2024-10-11T12:15:42.027Z,-0.0112,-0.9772,0.0532,-0.0881,-0.3176,0.2677,-0.0170,0.0449,-0.0002,-2.3039,1.4681,3.1130
2024-10-11T12:15:42.038Z,-0.0163,-0.9857,0.0574,-0.0881,-0.3176,0.2677,-0.0111,0.0444,-0.0059,-2.3039,1.4681,3.1130
2024-10-11T12:15:42.047Z,-0.0158,-1.0008,0.0649,0.2147,-0.0289,0.3944,-0.0033,0.0403,-0.0058,-2.3034,1.4685,3.1137
2024-10-11T12:15:42.057Z,-0.0022,-1.0039,0.0723,0.2147,-0.0289,0.3944,-0.0039,0.0459,-0.0040,-2.3034,1.4685,3.1137
2024-10-11T12:15:42.068Z,-0.0032,-0.9957,0.0792,0.2147,-0.0289,0.3944,0.0020,0.0433,-0.0045,-2.3034,1.4685,3.1137
2024-10-11T12:15:42.077Z,-0.0004,-0.9893,0.0793,0.0357,-0.0379,0.2168,0.0074,0.0417,-0.0062,-2.3021,1.4684,3.1134
2024-10-11T12:15:42.087Z,-0.0006,-0.9880,0.0729,0.0357,-0.0379,0.2168,0.0109,0.0395,-0.0077,-2.3021,1.4684,3.1134
2024-10-11T12:15:42.098Z,-0.0025,-0.9837,0.0925,0.0357,-0.0379,0.2168,0.0130,0.0400,-0.0098,-2.3021,1.4684,3.1134
2024-10-11T12:15:42.107Z,-0.0026,-0.9826,0.1097,0.0629,-0.1538,0.0048,0.0152,0.0444,-0.0106,-2.3004,1.4681,3.1126
2024-10-11T12:15:42.119Z,0.0018,-1.0091,0.1047,0.0629,-0.1538,0.0048,0.0208,0.0456,-0.0081,-2.3004,1.4681,3.1126
2024-10-11T12:15:42.127Z,0.0104,-1.0351,0.0896,0.0629,-0.1538,0.0048,0.0223,0.0443,-0.0083,-2.3004,1.4681,3.1126
2024-10-11T12:15:42.137Z,0.0071,-1.0342,0.0827,-0.0446,0.4377,0.1730,0.0286,0.0428,-0.0051,-2.2990,1.4675,3.1123
2024-10-11T12:15:42.147Z,0.0125,-1.0241,0.0930,-0.0446,0.4377,0.1730,0.0282,0.0405,-0.0057,-2.2990,1.4675,3.1123
2024-10-11T12:15:42.157Z,0.0087,-1.0132,0.1107,-0.0446,0.4377,0.1730,0.0225,0.0392,-0.0041,-2.2990,1.4675,3.1123
2024-10-11T12:15:42.168Z,0.0099,-1.0085,0.1297,-0.0560,0.1597,-0.1732,0.0172,0.0407,-0.0035,-2.2982,1.4669,3.1125
2024-10-11T12:15:42.177Z,0.0072,-1.0071,0.1293,-0.0560,0.1597,-0.1732,0.0157,0.0468,-0.0014,-2.2982,1.4669,3.1125
2024-10-11T12:15:42.187Z,0.0036,-0.9990,0.1351,-0.0560,0.1597,-0.1732,0.0139,0.0473,-0.0007,-2.2982,1.4669,3.1125
2024-10-11T12:15:42.197Z,0.0037,-0.9887,0.1260,0.0086,-0.0072,-0.2737,0.0109,0.0447,-0.0008,-2.2983,1.4664,3.1137
2024-10-11T12:15:42.207Z,0.0030,-0.9928,0.1299,0.0086,-0.0072,-0.2737,0.0082,0.0441,-0.0042,-2.2983,1.4664,3.1137
2024-10-11T12:15:42.218Z,-0.0098,-1.0043,0.1393,0.0086,-0.0072,-0.2737,0.0053,0.0421,-0.0030,-2.2983,1.4664,3.1137
2024-10-11T12:15:42.227Z,-0.0025,-1.0140,0.1362,0.1155,0.1521,-0.3653,0.0015,0.0440,-0.0009,-2.2979,1.4662,3.1145
2024-10-11T12:15:42.238Z,0.0021,-1.0217,0.1332,0.1155,0.1521,-0.3653,-0.0032,0.0483,-0.0003,-2.2979,1.4662,3.1145
2024-10-11T12:15:42.247Z,-0.0007,-1.0307,0.1240,0.1155,0.1521,-0.3653,-0.0093,0.0504,-0.0034,-2.2979,1.4662,3.1145
2024-10-11T12:15:42.257Z,-0.0114,-1.0181,0.1319,0.0652,0.3294,-0.1847,-0.0168,0.0538,-0.0070,-2.2974,1.4663,3.1152
2024-10-11T12:15:42.268Z,-0.0097,-0.9901,0.1528,0.0652,0.3294,-0.1847,-0.0230,0.0544,-0.0053,-2.2974,1.4663,3.1152
2024-10-11T12:15:42.277Z,0.0170,-0.9901,0.1521,0.0652,0.3294,-0.1847,-0.0294,0.0542,-0.0005,-2.2974,1.4663,3.1152
2024-10-11T12:15:42.287Z,0.0233,-0.9986,0.1340,-0.1847,0.0084,-0.3822,-0.0309,0.0542,0.0028,-2.2967,1.4669,3.1158
2024-10-11T12:15:42.297Z,0.0261,-1.0027,0.1268,-0.1847,0.0084,-0.3822,-0.0351,0.0550,0.0025,-2.2967,1.4669,3.1158
2024-10-11T12:15:42.308Z,0.0216,-1.0029,0.1218,-0.1847,0.0084,-0.3822,-0.0367,0.0505,0.0058,-2.2967,1.4669,3.1158
2024-10-11T12:15:42.320Z,0.0251,-1.0023,0.1247,-0.2266,0.0698,-0.2303,-0.0400,0.0514,0.0076,-2.2981,1.4679,3.1186
2024-10-11T12:15:42.327Z,0.0139,-1.0020,0.1138,-0.2266,0.0698,-0.2303,-0.0358,0.0440,0.0057,-2.2981,1.4679,3.1186
2024-10-11T12:15:42.337Z,0.0194,-0.9991,0.0982,-0.2266,0.0698,-0.2303,-0.0353,0.0455,0.0071,-2.2981,1.4679,3.1186
2024-10-11T12:15:42.347Z,0.0141,-0.9948,0.0822,-0.1676,0.0355,0.1314,-0.0356,0.0407,0.0064,-2.3003,1.4690,3.1220
2024-10-11T12:15:42.357Z,0.0104,-0.9782,0.0798,-0.1676,0.0355,0.1314,-0.0324,0.0366,0.0050,-2.3003,1.4690,3.1220
2024-10-11T12:15:42.369Z,0.0056,-0.9679,0.0894,-0.1676,0.0355,0.1314,-0.0339,0.0387,0.0046,-2.3003,1.4690,3.1220
2024-10-11T12:15:42.377Z,0.0035,-0.9670,0.0712,-0.0183,-0.2535,0.1934,-0.0287,0.0366,0.0044,-2.3016,1.4699,3.1242
2024-10-11T12:15:42.387Z,0.0013,-0.9526,0.0790,-0.0183,-0.2535,0.1934,-0.0278,0.0333,0.0041,-2.3016,1.4699,3.1242
2024-10-11T12:15:42.397Z,0.0113,-0.9436,0.0715,-0.0183,-0.2535,0.1934,-0.0210,0.0315,0.0046,-2.3016,1.4699,3.1242
2024-10-11T12:15:42.407Z,0.0090,-0.9519,0.0599,-0.1208,-0.4707,0.3393,-0.0196,0.0287,0.0055,-2.3023,1.4706,3.1256
2024-10-11T12:15:42.418Z,0.0034,-0.9528,0.0659,-0.1208,-0.4707,0.3393,-0.0177,0.0271,0.0025,-2.3023,1.4706,3.1256
2024-10-11T12:15:42.427Z,0.0006,-0.9607,0.0752,-0.1208,-0.4707,0.3393,-0.0143,0.0210,0.0018,-2.3023,1.4706,3.1256
2024-10-11T12:15:42.437Z,0.0013,-0.9723,0.0840,0.0146,-0.2786,0.2105,-0.0111,0.0167,0.0014,-2.3031,1.4711,3.1268
2024-10-11T12:15:42.447Z,0.0106,-0.9876,0.0775,0.0146,-0.2786,0.2105,-0.0105,0.0123,0.0002,-2.3031,1.4711,3.1268
2024-10-11T12:15:42.457Z,0.0073,-0.9903,0.0778,0.0146,-0.2786,0.2105,-0.0065,0.0083,0.0001,-2.3031,1.4711,3.1268
2024-10-11T12:15:42.469Z,0.0136,-0.9899,0.0884,-0.0757,-0.0596,0.1758,-0.0060,0.0038,-0.0018,-2.3033,1.4715,3.1271
2024-10-11T12:15:42.477Z,0.0103,-0.9929,0.1002,-0.0757,-0.0596,0.1758,-0.0067,0.0006,-0.0026,-2.3033,1.4715,3.1271
2024-10-11T12:15:42.487Z,0.0011,-0.9923,0.1028,-0.0757,-0.0596,0.1758,-0.0024,-0.0020,-0.0023,-2.3033,1.4715,3.1271
2024-10-11T12:15:42.497Z,0.0053,-0.9993,0.0982,-0.0084,0.0026,-0.0233,-0.0015,-0.0065,-0.0020,-2.3031,1.4716,3.1267
2024-10-11T12:15:42.507Z,0.0002,-0.9997,0.0955,-0.0084,0.0026,-0.0233,0.0009,-0.0068,-0.0057,-2.3031,1.4716,3.1267
2024-10-11T12:15:42.521Z,0.0058,-0.9933,0.1144,-0.0689,-0.0218,-0.1313,0.0016,-0.0069,-0.0027,-2.3025,1.4716,3.1256
2024-10-11T12:15:42.527Z,0.0084,-0.9954,0.1126,-0.0689,-0.0218,-0.1313,0.0075,-0.0121,-0.0044,-2.3025,1.4716,3.1256
2024-10-11T12:15:42.537Z,-0.0005,-1.0087,0.1037,-0.0689,-0.0218,-0.1313,0.0088,-0.0137,-0.0046,-2.3025,1.4716,3.1256
2024-10-11T12:15:42.547Z,0.0040,-1.0176,0.1015,-0.0689,-0.0218,-0.1313,0.0126,-0.0133,-0.0057,-2.3025,1.4716,3.1256
2024-10-11T12:15:42.557Z,0.0016,-1.0255,0.0974,-0.0219,0.2751,0.0280,0.0133,-0.0169,-0.0072,-2.3012,1.4713,3.1237
2024-10-11T12:15:42.567Z,0.0090,-1.0245,0.1147,-0.0219,0.2751,0.0280,0.0095,-0.0154,-0.0063,-2.3012,1.4713,3.1237
2024-10-11T12:15:42.577Z,0.0094,-1.0194,0.1241,-0.0219,0.2751,0.0280,0.0071,-0.0157,-0.0074,-2.3012,1.4713,3.1237
2024-10-11T12:15:42.587Z,-0.0056,-1.0052,0.1428,0.0039,0.1829,-0.3531,0.0030,-0.0223,-0.0106,-2.2992,1.4710,3.1209
2024-10-11T12:15:42.597Z,-0.0117,-0.9966,0.1565,0.0039,0.1829,-0.3531,-0.0015,-0.0253,-0.0102,-2.2992,1.4710,3.1209
2024-10-11T12:15:42.607Z,-0.0131,-0.9962,0.1482,0.0039,0.1829,-0.3531,-0.0014,-0.0261,-0.0121,-2.2992,1.4710,3.1209
2024-10-11T12:15:42.617Z,0.0039,-0.9960,0.1316,0.0945,0.0003,-0.3879,-0.0076,-0.0239,-0.0118,-2.2959,1.4710,3.1167
2024-10-11T12:15:42.627Z,0.0204,-1.0010,0.1256,0.0945,0.0003,-0.3879,-0.0091,-0.0202,-0.0090,-2.2959,1.4710,3.1167
2024-10-11T12:15:42.637Z,0.0102,-1.0063,0.1290,0.0945,0.0003,-0.3879,-0.0119,-0.0213,-0.0121,-2.2959,1.4710,3.1167
2024-10-11T12:15:42.647Z,-0.0047,-1.0181,0.1142,0.0112,0.1646,-0.2680,-0.0134,-0.0291,-0.0108,-2.2931,1.4712,3.1130
2024-10-11T12:15:42.657Z,-0.0008,-1.0187,0.1036,0.0112,0.1646,-0.2680,-0.0158,-0.0245,-0.0105,-2.2931,1.4712,3.1130
2024-10-11T12:15:42.667Z,0.0073,-1.0121,0.1033,0.0112,0.1646,-0.2680,-0.0192,-0.0197,-0.0088,-2.2931,1.4712,3.1130
2024-10-11T12:15:42.677Z,0.0104,-0.9977,0.1099,-0.0583,0.0796,-0.0852,-0.0209,-0.0188,-0.0098,-2.2903,1.4717,3.1093
2024-10-11T12:15:42.687Z,0.0134,-0.9874,0.1136,-0.0583,0.0796,-0.0852,-0.0236,-0.0166,-0.0070,-2.2903,1.4717,3.1093
2024-10-11T12:15:42.697Z,0.0067,-0.9875,0.1063,-0.0583,0.0796,-0.0852,-0.0241,-0.0175,-0.0068,-2.2903,1.4717,3.1093
2024-10-11T12:15:42.707Z,0.0026,-0.9914,0.0942,-0.0090,-0.0439,0.0143,-0.0203,-0.0182,-0.0070,-2.2884,1.4722,3.1065
2024-10-11T12:15:42.717Z,0.0041,-0.9896,0.0964,-0.0090,-0.0439,0.0143,-0.0201,-0.0165,-0.0054,-2.2884,1.4722,3.1065
2024-10-11T12:15:42.727Z,0.0109,-0.9885,0.0982,-0.0090,-0.0439,0.0143,-0.0174,-0.0157,-0.0048,-2.2884,1.4722,3.1065
2024-10-11T12:15:42.738Z,0.0116,-0.9911,0.0799,-0.0768,-0.0449,0.0599,-0.0130,-0.0131,-0.0047,-2.2867,1.4727,3.1042
2024-10-11T12:15:42.748Z,0.0117,-0.9923,0.0640,-0.0768,-0.0449,0.0599,-0.0064,-0.0097,-0.0019,-2.2867,1.4727,3.1042
2024-10-11T12:15:42.758Z,0.0139,-0.9913,0.0584,-0.0768,-0.0449,0.0599,-0.0039,-0.0064,-0.0019,-2.2867,1.4727,3.1042
2024-10-11T12:15:42.767Z,0.0016,-0.9933,0.0668,-0.0410,-0.0231,0.3297,-0.0003,-0.0122,-0.0036,-2.2855,1.4729,3.1023
2024-10-11T12:15:42.777Z,-0.0009,-0.9817,0.0624,-0.0410,-0.0231,0.3297,0.0001,-0.0159,-0.0055,-2.2855,1.4729,3.1023
2024-10-11T12:15:42.787Z,0.0006,-0.9626,0.0782,-0.0410,-0.0231,0.3297,-0.0053,-0.0202,-0.0074,-2.2855,1.4729,3.1023
2024-10-11T12:15:42.797Z,0.0052,-0.9501,0.0856,-0.0070,-0.3942,0.1490,-0.0013,-0.0250,-0.0077,-2.2838,1.4730,3.0999
2024-10-11T12:15:42.807Z,0.0005,-0.9617,0.0786,-0.0070,-0.3942,0.1490,-0.0009,-0.0311,-0.0101,-2.2838,1.4730,3.0999
2024-10-11T12:15:42.817Z,0.0092,-0.9688,0.0758,-0.0070,-0.3942,0.1490,0.0019,-0.0341,-0.0096,-2.2838,1.4730,3.0999
2024-10-11T12:15:42.827Z,0.0128,-0.9808,0.0564,-0.0926,-0.1897,0.2762,0.0056,-0.0379,-0.0107,-2.2813,1.4730,3.0962
2024-10-11T12:15:42.837Z,0.0149,-0.9774,0.0558,-0.0926,-0.1897,0.2762,0.0028,-0.0486,-0.0085,-2.2813,1.4730,3.0962
2024-10-11T12:15:42.847Z,0.0193,-0.9713,0.0712,-0.0926,-0.1897,0.2762,0.0038,-0.0495,-0.0082,-2.2813,1.4730,3.0962
2024-10-11T12:15:42.857Z,0.0148,-0.9700,0.0825,-0.1054,-0.2612,0.1877,0.0039,-0.0598,-0.0093,-2.2786,1.4729,3.0918
2024-10-11T12:15:42.867Z,0.0242,-0.9769,0.0802,-0.1054,-0.2612,0.1877,0.0033,-0.0688,-0.0095,-2.2786,1.4729,3.0918
2024-10-11T12:15:42.877Z,0.0220,-0.9845,0.0882,-0.1054,-0.2612,0.1877,0.0025,-0.0798,-0.0103,-2.2786,1.4729,3.0918
2024-10-11T12:15:42.887Z,0.0195,-0.9919,0.0974,-0.1354,-0.0528,0.0764,0.0010,-0.0845,-0.0085,-2.2758,1.4728,3.0866
2024-10-11T12:15:42.897Z,0.0243,-0.9984,0.0963,-0.1354,-0.0528,0.0764,0.0020,-0.0893,-0.0068,-2.2758,1.4728,3.0866
2024-10-11T12:15:42.907Z,0.0323,-1.0034,0.0886,-0.1354,-0.0528,0.0764,0.0062,-0.0924,-0.0079,-2.2758,1.4728,3.0866
2024-10-11T12:15:42.917Z,0.0343,-1.0008,0.0931,-0.2829,0.0612,0.1064,0.0010,-0.0912,-0.0079,-2.2736,1.4728,3.0815
2024-10-11T12:15:42.927Z,0.0282,-1.0080,0.1055,-0.2829,0.0612,0.1064,0.0021,-0.0936,-0.0036,-2.2736,1.4728,3.0815
2024-10-11T12:15:42.937Z,0.0326,-1.0187,0.0959,-0.2829,0.0612,0.1064,0.0044,-0.0955,0.0016,-2.2736,1.4728,3.0815
2024-10-11T12:15:42.946Z,0.0313,-1.0203,0.1067,-0.2686,0.2487,-0.0099,0.0054,-0.0975,0.0021,-2.2732,1.4726,3.0779
2024-10-11T12:15:42.958Z,0.0236,-1.0313,0.1177,-0.2686,0.2487,-0.0099,0.0057,-0.0951,0.0019,-2.2732,1.4726,3.0779
2024-10-11T12:15:42.968Z,0.0236,-1.0313,0.1177,-0.2686,0.2487,-0.0099,0.0053,-0.0945,0.0035,-2.2732,1.4726,3.0779
2024-10-11T12:15:42.978Z,0.0125,-1.0298,0.1287,-0.1336,0.3695,-0.2573,0.0044,-0.0905,0.0050,-2.2745,1.4725,3.0761
2024-10-11T12:15:42.987Z,0.0125,-1.0298,0.1287,-0.1336,0.3695,-0.2573,0.0047,-0.0917,0.0046,-2.2745,1.4725,3.0761
2024-10-11T12:15:42.998Z,0.0111,-1.0241,0.1325,-0.1336,0.3695,-0.2573,0.0027,-0.0861,0.0061,-2.2745,1.4725,3.0761
2024-10-11T12:15:43.008Z,0.0140,-1.0161,0.1472,-0.0065,0.2927,-0.2760,-0.0016,-0.0766,0.0053,-2.2763,1.4723,3.0750
2024-10-11T12:15:43.017Z,0.0140,-1.0161,0.1472,-0.0065,0.2927,-0.2760,-0.0024,-0.0692,0.0109,-2.2763,1.4723,3.0750
2024-10-11T12:15:43.029Z,0.0094,-1.0047,0.1236,-0.0065,0.2927,-0.2760,-0.0063,-0.0567,0.0114,-2.2763,1.4723,3.0750
2024-10-11T12:15:43.037Z,0.0094,-1.0047,0.1236,-0.0883,0.1398,-0.2587,-0.0079,-0.0488,0.0134,-2.2796,1.4724,3.0761
2024-10-11T12:15:43.048Z,0.0087,-1.0074,0.1375,-0.0883,0.1398,-0.2587,-0.0107,-0.0357,0.0178,-2.2796,1.4724,3.0761
2024-10-11T12:15:43.059Z,0.0053,-1.0152,0.1367,-0.0883,0.1398,-0.2587,-0.0093,-0.0283,0.0195,-2.2796,1.4724,3.0761
2024-10-11T12:15:43.069Z,0.0003,-1.0166,0.1447,-0.0106,0.1781,-0.3723,-0.0151,-0.0215,0.0172,-2.2845,1.4727,3.0796
2024-10-11T12:15:43.078Z,-0.0089,-1.0167,0.1371,-0.0106,0.1781,-0.3723,-0.0153,-0.0140,0.0193,-2.2845,1.4727,3.0796
2024-10-11T12:15:43.087Z,-0.0089,-1.0167,0.1371,-0.0106,0.1781,-0.3723,-0.0187,-0.0037,0.0205,-2.2845,1.4727,3.0796
2024-10-11T12:15:43.098Z,-0.0184,-0.9873,0.1184,0.1511,0.1948,-0.3545,-0.0146,0.0027,0.0199,-2.2902,1.4731,3.0846
2024-10-11T12:15:43.108Z,-0.0159,-0.9751,0.1056,0.1511,0.1948,-0.3545,-0.0155,0.0090,0.0148,-2.2902,1.4731,3.0846
2024-10-11T12:15:43.118Z,-0.0147,-0.9733,0.0980,0.1511,0.1948,-0.3545,-0.0132,0.0142,0.0147,-2.2902,1.4731,3.0846
2024-10-11T12:15:43.127Z,-0.0147,-0.9733,0.0980,0.1920,-0.2183,-0.0372,-0.0112,0.0219,0.0133,-2.2954,1.4735,3.0898
2024-10-11T12:15:43.138Z,-0.0185,-0.9727,0.0827,0.1920,-0.2183,-0.0372,-0.0067,0.0295,0.0163,-2.2954,1.4735,3.0898
2024-10-11T12:15:43.148Z,-0.0300,-0.9734,0.0607,0.1920,-0.2183,-0.0372,-0.0008,0.0369,0.0103,-2.2954,1.4735,3.0898
2024-10-11T12:15:43.157Z,-0.0315,-0.9701,0.0639,0.2837,-0.2248,0.2530,0.0013,0.0406,0.0106,-2.3000,1.4736,3.0949
2024-10-11T12:15:43.167Z,-0.0315,-0.9701,0.0639,0.2837,-0.2248,0.2530,0.0029,0.0489,0.0105,-2.3000,1.4736,3.0949
2024-10-11T12:15:43.179Z,-0.0148,-0.9656,0.0848,0.1354,-0.2866,0.0806,0.0043,0.0476,0.0089,-2.3040,1.4734,3.0999
2024-10-11T12:15:43.188Z,-0.0240,-0.9477,0.0884,0.1354,-0.2866,0.0806,-0.0014,0.0473,0.0082,-2.3040,1.4734,3.0999
2024-10-11T12:15:43.198Z,-0.0223,-0.9342,0.0924,0.1354,-0.2866,0.0806,0.0011,0.0500,0.0080,-2.3040,1.4734,3.0999
2024-10-11T12:15:43.208Z,-0.0254,-0.9310,0.0911,0.1354,-0.2866,0.0806,0.0016,0.0514,0.0033,-2.3040,1.4734,3.0999
2024-10-11T12:15:43.218Z,-0.0144,-0.9337,0.0881,0.2653,-0.6288,0.0526,0.0065,0.0497,0.0066,-2.3068,1.4733,3.1038
2024-10-11T12:15:43.228Z,-0.0078,-0.9363,0.0825,0.2653,-0.6288,0.0526,0.0049,0.0484,0.0054,-2.3068,1.4733,3.1038
2024-10-11T12:15:43.238Z,-0.0078,-0.9502,0.0708,0.2653,-0.6288,0.0526,0.0069,0.0516,0.0052,-2.3068,1.4733,3.1038
2024-10-11T12:15:43.248Z,-0.0192,-0.9658,0.0670,0.1118,-0.5248,0.1947,0.0113,0.0531,0.0031,-2.3094,1.4732,3.1077
2024-10-11T12:15:43.258Z,-0.0258,-0.9693,0.0798,0.1118,-0.5248,0.1947,0.0130,0.0588,-0.0014,-2.3094,1.4732,3.1077
2024-10-11T12:15:43.268Z,-0.0108,-0.9684,0.0873,0.1118,-0.5248,0.1947,0.0132,0.0566,-0.0015,-2.3094,1.4732,3.1077
2024-10-11T12:15:43.278Z,-0.0011,-0.9809,0.0782,0.2268,-0.2779,0.1152,0.0173,0.0543,0.0004,-2.3109,1.4728,3.1105
2024-10-11T12:15:43.288Z,-0.0072,-0.9813,0.0841,0.2268,-0.2779,0.1152,0.0162,0.0551,0.0002,-2.3109,1.4728,3.1105
2024-10-11T12:15:43.298Z,-0.0181,-0.9843,0.0864,0.2268,-0.2779,0.1152,0.0168,0.0538,-0.0012,-2.3109,1.4728,3.1105
2024-10-11T12:15:43.308Z,-0.0214,-0.9869,0.0772,0.1397,-0.1375,0.1109,0.0200,0.0503,-0.0016,-2.3117,1.4723,3.1126
2024-10-11T12:15:43.318Z,-0.0141,-0.9908,0.0856,0.1397,-0.1375,0.1109,0.0219,0.0448,-0.0034,-2.3117,1.4723,3.1126
2024-10-11T12:15:43.328Z,-0.0090,-1.0029,0.1018,0.1397,-0.1375,0.1109,0.0226,0.0440,-0.0067,-2.3117,1.4723,3.1126
2024-10-11T12:15:43.337Z,-0.0090,-1.0029,0.1018,0.1420,0.0077,0.0318,0.0224,0.0434,-0.0076,-2.3107,1.4717,3.1128
2024-10-11T12:15:43.347Z,0.0068,-1.0252,0.1028,0.1420,0.0077,0.0318,0.0271,0.0418,-0.0067,-2.3107,1.4717,3.1128
2024-10-11T12:15:43.358Z,0.0085,-1.0380,0.1027,0.1420,0.0077,0.0318,0.0300,0.0436,-0.0057,-2.3107,1.4717,3.1128
2024-10-11T12:15:43.368Z,0.0025,-1.0553,0.1034,-0.0585,0.3553,-0.0389,0.0307,0.0429,-0.0064,-2.3096,1.4709,3.1128
2024-10-11T12:15:43.378Z,0.0052,-1.0532,0.1174,-0.0585,0.3553,-0.0389,0.0311,0.0395,-0.0060,-2.3096,1.4709,3.1128
2024-10-11T12:15:43.389Z,0.0052,-1.0532,0.1174,-0.0402,0.5096,-0.2743,0.0296,0.0396,-0.0040,-2.3092,1.4701,3.1133
2024-10-11T12:15:43.398Z,0.0131,-1.0407,0.1382,-0.0402,0.5096,-0.2743,0.0258,0.0411,-0.0011,-2.3092,1.4701,3.1133
2024-10-11T12:15:43.408Z,0.0193,-1.0362,0.1470,-0.0402,0.5096,-0.2743,0.0226,0.0396,0.0019,-2.3092,1.4701,3.1133
2024-10-11T12:15:43.418Z,0.0179,-1.0202,0.1619,-0.0402,0.5096,-0.2743,0.0138,0.0389,0.0058,-2.3092,1.4701,3.1133
2024-10-11T12:15:43.427Z,0.0078,-1.0133,0.1435,-0.1814,0.3380,-0.5802,0.0084,0.0391,0.0088,-2.3110,1.4695,3.1160
2024-10-11T12:15:43.438Z,0.0129,-1.0115,0.1278,-0.1814,0.3380,-0.5802,0.0057,0.0422,0.0101,-2.3110,1.4695,3.1160
2024-10-11T12:15:43.448Z,0.0102,-1.0147,0.1399,-0.1814,0.3380,-0.5802,-0.0039,0.0403,0.0118,-2.3110,1.4695,3.1160
2024-10-11T12:15:43.458Z,0.0055,-1.0210,0.1440,-0.1174,0.1753,-0.3081,-0.0073,0.0430,0.0113,-2.3145,1.4693,3.1204
2024-10-11T12:15:43.468Z,0.0183,-1.0229,0.1367,-0.1174,0.1753,-0.3081,-0.0110,0.0399,0.0171,-2.3145,1.4693,3.1204
2024-10-11T12:15:43.478Z,0.0103,-1.0311,0.1233,-0.1174,0.1753,-0.3081,-0.0184,0.0442,0.0166,-2.3145,1.4693,3.1204
2024-10-11T12:15:43.488Z,-0.0101,-1.0344,0.1039,-0.1632,0.3075,-0.2770,-0.0193,0.0455,0.0141,-2.3190,1.4697,3.1260
2024-10-11T12:15:43.497Z,-0.0124,-1.0205,0.1066,-0.1632,0.3075,-0.2770,-0.0249,0.0440,0.0118,-2.3190,1.4697,3.1260
2024-10-11T12:15:43.508Z,0.0091,-0.9906,0.1248,0.0377,0.0930,-0.1210,-0.0291,0.0368,0.0132,-2.3228,1.4704,3.1308
2024-10-11T12:15:43.517Z,0.0130,-0.9796,0.1278,0.0377,0.0930,-0.1210,-0.0368,0.0410,0.0131,-2.3228,1.4704,3.1308
2024-10-11T12:15:43.527Z,-0.0099,-0.9843,0.1213,0.0377,0.0930,-0.1210,-0.0379,0.0328,0.0153,-2.3228,1.4704,3.1308
2024-10-11T12:15:43.539Z,-0.0099,-0.9843,0.1213,0.2173,-0.0932,-0.1338,-0.0366,0.0331,0.0068,-2.3263,1.4714,3.1350
2024-10-11T12:15:43.547Z,-0.0081,-0.9741,0.1008,0.2173,-0.0932,-0.1338,-0.0373,0.0275,0.0047,-2.3263,1.4714,3.1350
2024-10-11T12:15:43.557Z,0.0043,-0.9830,0.0806,0.2173,-0.0932,-0.1338,-0.0383,0.0296,0.0068,-2.3263,1.4714,3.1350
2024-10-11T12:15:43.569Z,0.0180,-0.9870,0.0729,-0.1797,-0.0842,0.2359,-0.0330,0.0216,0.0097,-2.3283,1.4725,3.1377
2024-10-11T12:15:43.577Z,-0.0054,-0.9852,0.0651,-0.1797,-0.0842,0.2359,-0.0334,0.0279,0.0070,-2.3283,1.4725,3.1377
2024-10-11T12:15:43.589Z,-0.0082,-0.9861,0.0494,-0.1797,-0.0842,0.2359,-0.0312,0.0228,0.0023,-2.3283,1.4725,3.1377
2024-10-11T12:15:43.597Z,-0.0082,-0.9861,0.0494,0.1048,-0.1096,0.4250,-0.0302,0.0208,-0.0003,-2.3291,1.4734,3.1387
2024-10-11T12:15:43.608Z,-0.0029,-0.9831,0.0599,0.1048,-0.1096,0.4250,-0.0259,0.0159,-0.0026,-2.3291,1.4734,3.1387
2024-10-11T12:15:43.618Z,0.0065,-0.9723,0.0517,0.1048,-0.1096,0.4250,-0.0271,0.0151,-0.0015,-2.3291,1.4734,3.1387
2024-10-11T12:15:43.628Z,0.0086,-0.9570,0.0592,-0.0994,-0.2919,0.3693,-0.0246,0.0123,-0.0011,-2.3294,1.4740,3.1392
2024-10-11T12:15:43.638Z,0.0086,-0.9570,0.0592,-0.0994,-0.2919,0.3693,-0.0240,0.0155,-0.0026,-2.3294,1.4740,3.1392
2024-10-11T12:15:43.647Z,-0.0003,-0.9617,0.0542,-0.0994,-0.2919,0.3693,-0.0181,0.0148,-0.0027,-2.3294,1.4740,3.1392
2024-10-11T12:15:43.659Z,0.0154,-0.9761,0.0623,-0.0833,-0.2633,0.3574,-0.0188,0.0116,-0.0034,-2.3289,1.4746,3.1388
2024-10-11T12:15:43.667Z,0.0128,-0.9754,0.0862,-0.0833,-0.2633,0.3574,-0.0175,0.0133,-0.0002,-2.3289,1.4746,3.1388
2024-10-11T12:15:43.677Z,0.0150,-0.9800,0.0840,-0.0833,-0.2633,0.3574,-0.0166,0.0124,0.0005,-2.3289,1.4746,3.1388
2024-10-11T12:15:43.689Z,0.0150,-0.9800,0.0840,-0.1381,-0.0843,0.1150,-0.0151,0.0210,0.0016,-2.3296,1.4751,3.1398
2024-10-11T12:15:43.697Z,0.0174,-0.9971,0.0878,-0.1381,-0.0843,0.1150,-0.0145,0.0194,0.0014,-2.3296,1.4751,3.1398
2024-10-11T12:15:43.707Z,-0.0023,-1.0037,0.0941,-0.1381,-0.0843,0.1150,-0.0164,0.0198,0.0034,-2.3296,1.4751,3.1398
2024-10-11T12:15:43.718Z,-0.0074,-1.0060,0.0998,0.0730,0.1059,0.0194,-0.0163,0.0197,-0.0013,-2.3299,1.4756,3.1404
2024-10-11T12:15:43.727Z,0.0085,-1.0073,0.0939,0.0730,0.1059,0.0194,-0.0148,0.0221,-0.0016,-2.3299,1.4756,3.1404
2024-10-11T12:15:43.738Z,0.0126,-1.0155,0.0820,0.0730,0.1059,0.0194,-0.0094,0.0203,-0.0022,-2.3299,1.4756,3.1404
2024-10-11T12:15:43.748Z,0.0047,-1.0185,0.0827,-0.0666,0.2244,0.1724,-0.0075,0.0207,-0.0006,-2.3299,1.4760,3.1408
2024-10-11T12:15:43.757Z,-0.0010,-1.0189,0.0829,-0.0666,0.2244,0.1724,-0.0066,0.0243,-0.0015,-2.3299,1.4760,3.1408
2024-10-11T12:15:43.767Z,-0.0117,-1.0265,0.0827,-0.0666,0.2244,0.1724,-0.0047,0.0239,-0.0058,-2.3299,1.4760,3.1408
2024-10-11T12:15:43.777Z,0.0055,-1.0317,0.0825,-0.0666,0.2244,0.1724,-0.0025,0.0226,-0.0080,-2.3299,1.4760,3.1408
2024-10-11T12:15:43.789Z,0.0110,-1.0315,0.1028,0.0525,0.3405,0.1573,-0.0023,0.0179,-0.0040,-2.3282,1.4761,3.1393
2024-10-11T12:15:43.797Z,-0.0051,-1.0224,0.1299,0.0525,0.3405,0.1573,-0.0027,0.0154,-0.0052,-2.3282,1.4761,3.1393
2024-10-11T12:15:43.808Z,-0.0051,-1.0224,0.1299,0.1194,0.2474,-0.3550,-0.0077,0.0156,-0.0088,-2.3264,1.4763,3.1378
2024-10-11T12:15:43.817Z,-0.0110,-1.0203,0.1338,0.1194,0.2474,-0.3550,-0.0141,0.0150,-0.0085,-2.3264,1.4763,3.1378
2024-10-11T12:15:43.828Z,0.0018,-1.0171,0.1393,0.1194,0.2474,-0.3550,-0.0170,0.0133,-0.0128,-2.3264,1.4763,3.1378
2024-10-11T12:15:43.840Z,0.0003,-1.0089,0.1200,-0.0411,0.1732,-0.3866,-0.0177,0.0151,-0.0129,-2.3231,1.4768,3.1347
2024-10-11T12:15:43.847Z,-0.0051,-0.9964,0.1102,-0.0411,0.1732,-0.3866,-0.0195,0.0109,-0.0143,-2.3231,1.4768,3.1347
2024-10-11T12:15:43.857Z,-0.0086,-0.9957,0.0972,-0.0411,0.1732,-0.3866,-0.0155,-0.0010,-0.0158,-2.3231,1.4768,3.1347
2024-10-11T12:15:43.868Z,-0.0192,-1.0034,0.1009,0.1557,0.0359,-0.0646,-0.0181,-0.0064,-0.0188,-2.3182,1.4773,3.1295
2024-10-11T12:15:43.876Z,-0.0075,-1.0041,0.1000,0.1557,0.0359,-0.0646,-0.0184,-0.0106,-0.0193,-2.3182,1.4773,3.1295
2024-10-11T12:15:43.888Z,0.0016,-1.0027,0.0877,0.1557,0.0359,-0.0646,-0.0177,-0.0127,-0.0212,-2.3182,1.4773,3.1295
2024-10-11T12:15:43.898Z,-0.0046,-1.0033,0.0908,0.0091,0.0502,0.0498,-0.0149,-0.0188,-0.0199,-2.3119,1.4777,3.1225
2024-10-11T12:15:43.907Z,-0.0088,-1.0030,0.0861,0.0091,0.0502,0.0498,-0.0166,-0.0261,-0.0227,-2.3119,1.4777,3.1225
2024-10-11T12:15:43.917Z,-0.0075,-0.9868,0.0981,0.0091,0.0502,0.0498,-0.0166,-0.0320,-0.0252,-2.3119,1.4777,3.1225
2024-10-11T12:15:43.927Z,0.0020,-0.9744,0.0996,0.0541,-0.1826,-0.0705,-0.0175,-0.0387,-0.0236,-2.3044,1.4781,3.1137
2024-10-11T12:15:43.938Z,0.0065,-0.9745,0.0746,0.0541,-0.1826,-0.0705,-0.0163,-0.0436,-0.0212,-2.3044,1.4781,3.1137
2024-10-11T12:15:43.947Z,0.0098,-0.9678,0.0873,0.0541,-0.1826,-0.0705,-0.0161,-0.0436,-0.0230,-2.3044,1.4781,3.1137
2024-10-11T12:15:43.957Z,0.0098,-0.9678,0.0873,-0.0369,-0.3012,0.0519,-0.0161,-0.0432,-0.0230,-2.2979,1.4785,3.1056
2024-10-11T12:15:43.967Z,0.0030,-0.9729,0.0707,-0.0369,-0.3012,0.0519,-0.0142,-0.0510,-0.0214,-2.2979,1.4785,3.1056
2024-10-11T12:15:43.977Z,0.0090,-0.9835,0.0682,-0.0369,-0.3012,0.0519,-0.0090,-0.0526,-0.0215,-2.2979,1.4785,3.1056
2024-10-11T12:15:43.989Z,0.0111,-0.9898,0.0679,-0.0600,-0.0770,0.2911,-0.0076,-0.0530,-0.0214,-2.2919,1.4788,3.0979
2024-10-11T12:15:43.997Z,0.0188,-0.9964,0.0807,-0.0600,-0.0770,0.2911,-0.0069,-0.0504,-0.0177,-2.2919,1.4788,3.0979
2024-10-11T12:15:44.007Z,0.0209,-0.9939,0.0929,-0.0600,-0.0770,0.2911,-0.0072,-0.0523,-0.0133,-2.2919,1.4788,3.0979
2024-10-11T12:15:44.017Z,0.0159,-0.9859,0.0923,-0.1384,-0.0394,-0.0517,-0.0101,-0.0513,-0.0098,-2.2875,1.4790,3.0917
2024-10-11T12:15:44.027Z,-0.0013,-0.9749,0.0816,-0.1384,-0.0394,-0.0517,-0.0071,-0.0492,-0.0134,-2.2875,1.4790,3.0917
2024-10-11T12:15:44.039Z,-0.0107,-0.9593,0.0660,-0.1384,-0.0394,-0.0517,-0.0049,-0.0489,-0.0157,-2.2875,1.4790,3.0917
2024-10-11T12:15:44.048Z,0.0017,-0.9496,0.0764,0.0934,-0.4195,0.1475,-0.0019,-0.0492,-0.0146,-2.2828,1.4790,3.0853
