time,gFx,gFy,gFz,ax,ay,az,wx,wy,wz,yaw,pitch,roll
2024-10-11T12:44:55.711Z,-0.0029,-0.9883,0.1207,0.0668,-0.0418,0.0511,0.0098,-0.0306,0.0039,-2.2912,1.4553,3.0221
2024-10-11T12:44:55.719Z,-0.0078,-0.9976,0.1298,0.2114,0.0424,-0.1480,0.0060,-0.0271,-0.0026,-2.2925,1.4550,3.0223
2024-10-11T12:44:55.730Z,0.0004,-0.9967,0.1225,0.2114,0.0424,-0.1480,0.0076,-0.0275,-0.0032,-2.2925,1.4550,3.0223
2024-10-11T12:44:55.739Z,0.0043,-0.9948,0.1250,0.2114,0.0424,-0.1480,0.0024,-0.0224,-0.0076,-2.2925,1.4550,3.0223
2024-10-11T12:44:55.749Z,0.0064,-0.9898,0.1266,0.0747,-0.0343,-0.1155,0.0027,-0.0248,-0.0072,-2.2917,1.4549,3.0204
2024-10-11T12:44:55.760Z,0.0058,-0.9842,0.1234,0.0747,-0.0343,-0.1155,0.0041,-0.0313,-0.0083,-2.2917,1.4549,3.0204
2024-10-11T12:44:55.769Z,0.0112,-0.9820,0.1165,0.0747,-0.0343,-0.1155,0.0066,-0.0349,-0.0059,-2.2917,1.4549,3.0204
2024-10-11T12:44:55.780Z,0.0140,-0.9822,0.1093,0.0026,-0.1087,0.0554,0.0040,-0.0353,-0.0095,-2.2904,1.4547,3.0178
2024-10-11T12:44:55.790Z,0.0054,-0.9852,0.1090,0.0026,-0.1087,0.0554,0.0018,-0.0377,-0.0075,-2.2904,1.4547,3.0178
2024-10-11T12:44:55.800Z,-0.0022,-0.9854,0.1115,0.0026,-0.1087,0.0554,0.0035,-0.0406,-0.0109,-2.2904,1.4547,3.0178
2024-10-11T12:44:55.810Z,-0.0076,-0.9827,0.1124,0.2185,-0.1032,0.0266,0.0038,-0.0389,-0.0106,-2.2886,1.4545,3.0147
2024-10-11T12:44:55.820Z,-0.0066,-0.9832,0.1150,0.2185,-0.1032,0.0266,0.0033,-0.0366,-0.0137,-2.2886,1.4545,3.0147
2024-10-11T12:44:55.830Z,-0.0156,-0.9831,0.1224,0.2185,-0.1032,0.0266,0.0017,-0.0382,-0.0183,-2.2886,1.4545,3.0147
2024-10-11T12:44:55.840Z,-0.0180,-0.9802,0.1241,0.3265,-0.1277,-0.0878,-0.0005,-0.0337,-0.0201,-2.2849,1.4544,3.0097
2024-10-11T12:44:55.849Z,-0.0196,-0.9813,0.1245,0.3265,-0.1277,-0.0878,-0.0016,-0.0311,-0.0231,-2.2849,1.4544,3.0097
2024-10-11T12:44:55.860Z,-0.0097,-0.9860,0.1250,0.3265,-0.1277,-0.0878,-0.0037,-0.0287,-0.0251,-2.2849,1.4544,3.0097
2024-10-11T12:44:55.870Z,-0.0074,-0.9888,0.1288,0.2304,-0.0430,-0.1347,-0.0049,-0.0302,-0.0261,-2.2791,1.4544,3.0027
2024-10-11T12:44:55.880Z,-0.0048,-0.9907,0.1312,0.2304,-0.0430,-0.1347,-0.0062,-0.0221,-0.0260,-2.2791,1.4544,3.0027
2024-10-11T12:44:55.890Z,0.0011,-0.9927,0.1364,0.2304,-0.0430,-0.1347,-0.0124,-0.0159,-0.0250,-2.2791,1.4544,3.0027
2024-10-11T12:44:55.901Z,0.0091,-0.9948,0.1340,0.0758,0.0152,-0.1882,-0.0155,-0.0137,-0.0248,-2.2729,1.4545,2.9958
2024-10-11T12:44:55.910Z,0.0103,-0.9976,0.1277,0.0758,0.0152,-0.1882,-0.0128,-0.0108,-0.0248,-2.2729,1.4545,2.9958
2024-10-11T12:44:55.919Z,0.0105,-1.0004,0.1266,0.0758,0.0152,-0.1882,-0.0159,-0.0049,-0.0225,-2.2729,1.4545,2.9958
2024-10-11T12:44:55.930Z,0.0152,-1.0027,0.1262,0.0220,0.0922,-0.1161,-0.0164,-0.0045,-0.0225,-2.2677,1.4548,2.9901
2024-10-11T12:44:55.940Z,0.0186,-1.0049,0.1242,0.0220,0.0922,-0.1161,-0.0127,-0.0050,-0.0186,-2.2677,1.4548,2.9901
2024-10-11T12:44:55.950Z,0.0182,-1.0037,0.1224,0.0220,0.0922,-0.1161,-0.0151,-0.0038,-0.0190,-2.2677,1.4548,2.9901
2024-10-11T12:44:55.960Z,0.0153,-1.0031,0.1172,0.0262,0.0956,-0.0318,-0.0140,-0.0025,-0.0212,-2.2630,1.4551,2.9852
2024-10-11T12:44:55.970Z,0.0087,-1.0029,0.1156,0.0262,0.0956,-0.0318,-0.0168,-0.0003,-0.0219,-2.2630,1.4551,2.9852
2024-10-11T12:44:55.980Z,0.0116,-1.0022,0.1121,0.0262,0.0956,-0.0318,-0.0142,-0.0035,-0.0208,-2.2630,1.4551,2.9852
2024-10-11T12:44:55.990Z,0.0178,-1.0019,0.1061,0.0077,0.0842,0.0741,-0.0104,-0.0004,-0.0189,-2.2578,1.4554,2.9797
2024-10-11T12:44:56.001Z,0.0200,-0.9979,0.1107,0.0077,0.0842,0.0741,-0.0092,0.0014,-0.0199,-2.2578,1.4554,2.9797
2024-10-11T12:44:56.009Z,0.0224,-0.9923,0.1146,0.0077,0.0842,0.0741,-0.0090,0.0012,-0.0187,-2.2578,1.4554,2.9797
2024-10-11T12:44:56.020Z,0.0208,-0.9941,0.1129,-0.0172,0.0075,0.0049,-0.0105,0.0063,-0.0185,-2.2532,1.4555,2.9749
2024-10-11T12:44:56.030Z,0.0265,-0.9946,0.1100,-0.0172,0.0075,0.0049,-0.0080,0.0067,-0.0159,-2.2532,1.4555,2.9749
2024-10-11T12:44:56.040Z,0.0367,-0.9975,0.1084,-0.0172,0.0075,0.0049,-0.0062,0.0054,-0.0164,-2.2532,1.4555,2.9749
2024-10-11T12:44:56.050Z,0.0298,-0.9986,0.1086,-0.1008,0.0517,0.0453,-0.0049,0.0071,-0.0141,-2.2495,1.4556,2.9711
2024-10-11T12:44:56.060Z,0.0270,-1.0004,0.1051,-0.1008,0.0517,0.0453,-0.0010,0.0121,-0.0107,-2.2495,1.4556,2.9711
2024-10-11T12:44:56.070Z,0.0317,-0.9989,0.1009,-0.1008,0.0517,0.0453,-0.0011,0.0148,-0.0070,-2.2495,1.4556,2.9711
2024-10-11T12:44:56.080Z,0.0292,-0.9951,0.1040,-0.0926,0.0168,0.0901,-0.0012,0.0153,-0.0092,-2.2470,1.4556,2.9687
2024-10-11T12:44:56.089Z,0.0298,-0.9920,0.0983,-0.0926,0.0168,0.0901,0.0041,0.0139,-0.0108,-2.2470,1.4556,2.9687
2024-10-11T12:44:56.100Z,0.0265,-0.9885,0.0934,-0.0926,0.0168,0.0901,0.0069,0.0125,-0.0087,-2.2470,1.4556,2.9687
2024-10-11T12:44:56.110Z,0.0324,-0.9864,0.0903,-0.1224,-0.0682,0.2262,0.0079,0.0174,-0.0037,-2.2454,1.4554,2.9675
2024-10-11T12:44:56.120Z,0.0321,-0.9846,0.0934,-0.1224,-0.0682,0.2262,0.0117,0.0178,-0.0039,-2.2454,1.4554,2.9675
2024-10-11T12:44:56.130Z,0.0279,-0.9849,0.0969,-0.1224,-0.0682,0.2262,0.0133,0.0179,-0.0031,-2.2454,1.4554,2.9675
2024-10-11T12:44:56.140Z,0.0319,-0.9845,0.1010,-0.1164,-0.0869,0.1241,0.0129,0.0239,-0.0028,-2.2450,1.4551,2.9674
2024-10-11T12:44:56.150Z,0.0311,-0.9827,0.1035,-0.1164,-0.0869,0.1241,0.0108,0.0229,0.0005,-2.2450,1.4551,2.9674
2024-10-11T12:44:56.160Z,0.0331,-0.9828,0.1076,-0.1164,-0.0869,0.1241,0.0155,0.0316,0.0010,-2.2450,1.4551,2.9674
2024-10-11T12:44:56.170Z,0.0300,-0.9836,0.1116,-0.0992,-0.0950,0.0248,0.0145,0.0338,0.0054,-2.2459,1.4547,2.9689
2024-10-11T12:44:56.180Z,0.0227,-0.9846,0.1173,-0.0992,-0.0950,0.0248,0.0114,0.0362,0.0047,-2.2459,1.4547,2.9689
2024-10-11T12:44:56.190Z,0.0154,-0.9883,0.1138,-0.0992,-0.0950,0.0248,0.0137,0.0356,0.0070,-2.2459,1.4547,2.9689
2024-10-11T12:44:56.201Z,0.0158,-0.9910,0.1097,0.0379,-0.0219,0.0462,0.0121,0.0365,0.0029,-2.2474,1.4544,2.9712
2024-10-11T12:44:56.210Z,0.0148,-0.9871,0.1154,0.0379,-0.0219,0.0462,0.0071,0.0417,0.0018,-2.2474,1.4544,2.9712
2024-10-11T12:44:56.220Z,0.0054,-0.9822,0.1173,0.0379,-0.0219,0.0462,0.0113,0.0427,0.0006,-2.2474,1.4544,2.9712
2024-10-11T12:44:56.230Z,0.0029,-0.9775,0.1127,0.1635,-0.1542,0.0202,0.0120,0.0394,-0.0021,-2.2479,1.4541,2.9726
2024-10-11T12:44:56.240Z,0.0094,-0.9760,0.1101,0.1635,-0.1542,0.0202,0.0107,0.0378,-0.0036,-2.2479,1.4541,2.9726
2024-10-11T12:44:56.250Z,0.0085,-0.9786,0.1140,0.1635,-0.1542,0.0202,0.0091,0.0429,-0.0037,-2.2479,1.4541,2.9726
2024-10-11T12:44:56.260Z,0.0080,-0.9805,0.1214,0.1139,-0.1244,-0.0629,0.0061,0.0441,-0.0049,-2.2471,1.4539,2.9728
2024-10-11T12:44:56.270Z,0.0127,-0.9806,0.1236,0.1139,-0.1244,-0.0629,0.0075,0.0455,-0.0049,-2.2471,1.4539,2.9728
2024-10-11T12:44:56.280Z,0.0177,-0.9837,0.1251,0.1139,-0.1244,-0.0629,0.0069,0.0506,-0.0052,-2.2471,1.4539,2.9728
2024-10-11T12:44:56.290Z,0.0162,-0.9883,0.1278,0.0332,-0.0477,-0.1234,0.0078,0.0535,-0.0056,-2.2463,1.4536,2.9732
2024-10-11T12:44:56.301Z,0.0109,-0.9923,0.1333,0.0332,-0.0477,-0.1234,0.0065,0.0564,-0.0019,-2.2463,1.4536,2.9732
2024-10-11T12:44:56.310Z,0.0115,-0.9966,0.1324,0.0332,-0.0477,-0.1234,0.0037,0.0623,-0.0027,-2.2463,1.4536,2.9732
2024-10-11T12:44:56.320Z,0.0130,-0.9979,0.1246,0.0641,0.0467,-0.0903,0.0012,0.0656,-0.0038,-2.2457,1.4535,2.9743
2024-10-11T12:44:56.330Z,0.0102,-0.9962,0.1273,0.0641,0.0467,-0.0903,0.0016,0.0701,-0.0045,-2.2457,1.4535,2.9743
2024-10-11T12:44:56.339Z,0.0049,-0.9931,0.1261,0.0641,0.0467,-0.0903,-0.0009,0.0731,-0.0060,-2.2457,1.4535,2.9743
2024-10-11T12:44:56.352Z,0.0017,-0.9924,0.1254,0.1735,-0.0068,-0.0977,-0.0022,0.0767,-0.0081,-2.2447,1.4535,2.9752
2024-10-11T12:44:56.360Z,0.0033,-0.9965,0.1186,0.1735,-0.0068,-0.0977,-0.0012,0.0797,-0.0085,-2.2447,1.4535,2.9752
2024-10-11T12:44:56.370Z,0.0078,-1.0006,0.1186,0.1735,-0.0068,-0.0977,-0.0022,0.0822,-0.0066,-2.2447,1.4535,2.9752
2024-10-11T12:44:56.380Z,0.0092,-1.0033,0.1222,0.0999,0.1001,-0.0659,-0.0022,0.0846,-0.0087,-2.2429,1.4534,2.9755
2024-10-11T12:44:56.390Z,0.0128,-1.0023,0.1308,0.0999,0.1001,-0.0659,-0.0050,0.0876,-0.0112,-2.2429,1.4534,2.9755
2024-10-11T12:44:56.401Z,0.0134,-0.9994,0.1298,0.0999,0.1001,-0.0659,-0.0048,0.0933,-0.0112,-2.2429,1.4534,2.9755
2024-10-11T12:44:56.410Z,0.0131,-1.0012,0.1286,0.0606,0.0792,-0.1292,-0.0075,0.0991,-0.0072,-2.2409,1.4535,2.9762
2024-10-11T12:44:56.420Z,0.0153,-1.0020,0.1272,0.0606,0.0792,-0.1292,-0.0064,0.1003,-0.0068,-2.2409,1.4535,2.9762
2024-10-11T12:44:56.430Z,0.0163,-1.0001,0.1244,0.0606,0.0792,-0.1292,-0.0062,0.1074,-0.0065,-2.2409,1.4535,2.9762
2024-10-11T12:44:56.440Z,0.0199,-1.0003,0.1243,-0.0081,0.0703,-0.0883,-0.0049,0.1164,-0.0052,-2.2393,1.4536,2.9776
2024-10-11T12:44:56.451Z,0.0227,-1.0018,0.1216,-0.0081,0.0703,-0.0883,-0.0062,0.1200,-0.0055,-2.2393,1.4536,2.9776
2024-10-11T12:44:56.460Z,0.0253,-1.0011,0.1216,-0.0081,0.0703,-0.0883,-0.0066,0.1253,-0.0017,-2.2393,1.4536,2.9776
2024-10-11T12:44:56.470Z,0.0241,-1.0010,0.1193,-0.0517,0.0771,-0.0402,-0.0091,0.1293,-0.0042,-2.2381,1.4538,2.9798
2024-10-11T12:44:56.480Z,0.0218,-0.9988,0.1160,-0.0517,0.0771,-0.0402,-0.0080,0.1294,-0.0032,-2.2381,1.4538,2.9798
2024-10-11T12:44:56.490Z,0.0137,-0.9971,0.1104,-0.0517,0.0771,-0.0402,-0.0067,0.1332,-0.0067,-2.2381,1.4538,2.9798
2024-10-11T12:44:56.501Z,0.0148,-0.9953,0.1081,0.0361,0.0206,0.0682,-0.0069,0.1317,-0.0059,-2.2369,1.4540,2.9823
2024-10-11T12:44:56.510Z,0.0158,-0.9948,0.1094,0.0361,0.0206,0.0682,-0.0045,0.1270,-0.0074,-2.2369,1.4540,2.9823
2024-10-11T12:44:56.520Z,0.0132,-0.9905,0.1085,0.0361,0.0206,0.0682,-0.0028,0.1296,-0.0090,-2.2369,1.4540,2.9823
2024-10-11T12:44:56.530Z,0.0168,-0.9870,0.1002,0.0142,-0.0607,0.1461,0.0034,0.1252,-0.0089,-2.2351,1.4540,2.9841
2024-10-11T12:44:56.539Z,0.0144,-0.9879,0.0999,0.0142,-0.0607,0.1461,0.0042,0.1246,-0.0095,-2.2351,1.4540,2.9841
2024-10-11T12:44:56.551Z,0.0149,-0.9873,0.1005,0.0142,-0.0607,0.1461,0.0093,0.1227,-0.0086,-2.2351,1.4540,2.9841
2024-10-11T12:44:56.560Z,0.0205,-0.9884,0.1046,-0.0234,-0.0469,0.1068,0.0076,0.1268,-0.0105,-2.2331,1.4537,2.9856
2024-10-11T12:44:56.570Z,0.0248,-0.9891,0.1133,-0.0234,-0.0469,0.1068,0.0122,0.1299,-0.0085,-2.2331,1.4537,2.9856
2024-10-11T12:44:56.580Z,0.0316,-0.9908,0.1180,-0.0234,-0.0469,0.1068,0.0096,0.1325,-0.0077,-2.2331,1.4537,2.9856
2024-10-11T12:44:56.590Z,0.0378,-0.9912,0.1254,-0.1950,-0.0187,-0.0944,0.0064,0.1346,-0.0044,-2.2318,1.4534,2.9880
2024-10-11T12:44:56.600Z,0.0371,-0.9907,0.1330,-0.1950,-0.0187,-0.0944,0.0045,0.1357,-0.0008,-2.2318,1.4534,2.9880
2024-10-11T12:44:56.610Z,0.0380,-0.9895,0.1293,-0.1950,-0.0187,-0.0944,0.0016,0.1343,0.0025,-2.2318,1.4534,2.9880
2024-10-11T12:44:56.620Z,0.0374,-0.9895,0.1264,-0.1957,-0.0352,-0.1030,0.0008,0.1314,0.0007,-2.2319,1.4533,2.9919
2024-10-11T12:44:56.630Z,0.0362,-0.9910,0.1330,-0.1957,-0.0352,-0.1030,-0.0019,0.1337,0.0018,-2.2319,1.4533,2.9919
2024-10-11T12:44:56.640Z,0.0337,-0.9905,0.1359,-0.1957,-0.0352,-0.1030,-0.0026,0.1323,0.0059,-2.2319,1.4533,2.9919
2024-10-11T12:44:56.650Z,0.0400,-0.9845,0.1328,-0.2273,-0.0843,-0.1655,-0.0060,0.1334,0.0063,-2.2332,1.4534,2.9970
2024-10-11T12:44:56.660Z,0.0381,-0.9847,0.1189,-0.2273,-0.0843,-0.1655,-0.0047,0.1313,0.0075,-2.2332,1.4534,2.9970
2024-10-11T12:44:56.670Z,0.0278,-0.9866,0.1199,-0.2273,-0.0843,-0.1655,-0.0033,0.1280,0.0090,-2.2332,1.4534,2.9970
2024-10-11T12:44:56.679Z,0.0287,-0.9829,0.1173,-0.1230,-0.1005,-0.0139,-0.0044,0.1243,0.0071,-2.2352,1.4536,3.0026
2024-10-11T12:44:56.690Z,0.0354,-0.9845,0.1114,-0.1230,-0.1005,-0.0139,-0.0022,0.1219,0.0074,-2.2352,1.4536,3.0026
2024-10-11T12:44:56.700Z,0.0321,-0.9858,0.1090,-0.1230,-0.1005,-0.0139,0.0004,0.1179,0.0090,-2.2352,1.4536,3.0026
2024-10-11T12:44:56.710Z,0.0319,-0.9872,0.1101,-0.1602,-0.0587,0.0568,-0.0034,0.1165,0.0054,-2.2375,1.4536,3.0081
2024-10-11T12:44:56.720Z,0.0262,-0.9899,0.1134,-0.1602,-0.0587,0.0568,-0.0017,0.1120,0.0075,-2.2375,1.4536,3.0081
2024-10-11T12:44:56.730Z,0.0267,-0.9891,0.1130,-0.1602,-0.0587,0.0568,-0.0006,0.1105,0.0075,-2.2375,1.4536,3.0081
2024-10-11T12:44:56.740Z,0.0249,-0.9884,0.1150,-0.0975,-0.0461,0.0090,-0.0030,0.1084,0.0070,-2.2394,1.4536,3.0131
2024-10-11T12:44:56.750Z,0.0264,-0.9886,0.1183,-0.0975,-0.0461,0.0090,-0.0032,0.1020,0.0074,-2.2394,1.4536,3.0131
2024-10-11T12:44:56.760Z,0.0209,-0.9924,0.1208,-0.0975,-0.0461,0.0090,-0.0015,0.0995,0.0029,-2.2394,1.4536,3.0131
2024-10-11T12:44:56.770Z,0.0140,-0.9950,0.1239,0.0053,0.0179,-0.0787,-0.0041,0.0973,0.0033,-2.2406,1.4537,3.0170
2024-10-11T12:44:56.780Z,0.0163,-0.9977,0.1200,0.0053,0.0179,-0.0787,-0.0034,0.0921,0.0028,-2.2406,1.4537,3.0170
2024-10-11T12:44:56.791Z,0.0134,-1.0012,0.1103,0.0053,0.0179,-0.0787,-0.0035,0.0856,0.0007,-2.2406,1.4537,3.0170
2024-10-11T12:44:56.800Z,0.0069,-1.0044,0.1143,0.0717,0.1102,0.0156,-0.0046,0.0827,-0.0021,-2.2404,1.4538,3.0192
2024-10-11T12:44:56.810Z,0.0085,-1.0000,0.1166,0.0717,0.1102,0.0156,-0.0046,0.0795,-0.0056,-2.2404,1.4538,3.0192
2024-10-11T12:44:56.819Z,0.0122,-0.9986,0.1121,0.0717,0.1102,0.0156,-0.0032,0.0755,-0.0085,-2.2404,1.4538,3.0192
2024-10-11T12:44:56.829Z,0.0090,-0.9985,0.1108,0.0506,0.0521,0.0495,-0.0007,0.0701,-0.0060,-2.2391,1.4538,3.0200
2024-10-11T12:44:56.839Z,0.0075,-0.9986,0.1121,0.0506,0.0521,0.0495,0.0015,0.0676,-0.0132,-2.2391,1.4538,3.0200
2024-10-11T12:44:56.850Z,0.0020,-0.9982,0.1190,0.0506,0.0521,0.0495,-0.0024,0.0672,-0.0136,-2.2391,1.4538,3.0200
2024-10-11T12:44:56.860Z,0.0053,-0.9954,0.1150,0.0882,0.0219,0.0087,-0.0028,0.0600,-0.0165,-2.2362,1.4537,3.0187
2024-10-11T12:44:56.869Z,0.0043,-0.9942,0.1119,0.0882,0.0219,0.0087,0.0000,0.0513,-0.0182,-2.2362,1.4537,3.0187
2024-10-11T12:44:56.880Z,-0.0038,-0.9945,0.1114,0.0882,0.0219,0.0087,0.0002,0.0470,-0.0201,-2.2362,1.4537,3.0187
2024-10-11T12:44:56.890Z,-0.0055,-0.9960,0.1151,0.1985,0.0283,0.0086,0.0036,0.0380,-0.0232,-2.2312,1.4537,3.0149
2024-10-11T12:44:56.900Z,-0.0003,-0.9958,0.1142,0.1985,0.0283,0.0086,-0.0024,0.0357,-0.0268,-2.2312,1.4537,3.0149
2024-10-11T12:44:56.910Z,0.0006,-0.9966,0.1144,0.1985,0.0283,0.0086,-0.0005,0.0323,-0.0277,-2.2312,1.4537,3.0149
2024-10-11T12:44:56.919Z,-0.0004,-0.9941,0.1097,0.1555,0.0096,0.0618,-0.0002,0.0269,-0.0317,-2.2246,1.4535,3.0090
2024-10-11T12:44:56.930Z,0.0009,-0.9972,0.1140,0.1555,0.0096,0.0618,0.0014,0.0251,-0.0320,-2.2246,1.4535,3.0090
2024-10-11T12:44:56.940Z,0.0124,-0.9954,0.1183,0.1555,0.0096,0.0618,0.0005,0.0223,-0.0309,-2.2246,1.4535,3.0090
2024-10-11T12:44:56.950Z,0.0171,-0.9966,0.1205,-0.0082,0.0344,-0.0450,-0.0030,0.0226,-0.0298,-2.2171,1.4534,3.0021
2024-10-11T12:44:56.960Z,0.0163,-0.9976,0.1227,-0.0082,0.0344,-0.0450,-0.0045,0.0270,-0.0296,-2.2171,1.4534,3.0021
2024-10-11T12:44:56.969Z,0.0204,-0.9995,0.1202,-0.0082,0.0344,-0.0450,-0.0035,0.0266,-0.0272,-2.2171,1.4534,3.0021
2024-10-11T12:44:56.980Z,0.0249,-0.9986,0.1259,-0.0780,0.0534,-0.0984,-0.0057,0.0278,-0.0254,-2.2105,1.4534,2.9960
2024-10-11T12:44:56.990Z,0.0336,-0.9944,0.1235,-0.0780,0.0534,-0.0984,-0.0072,0.0302,-0.0231,-2.2105,1.4534,2.9960
2024-10-11T12:44:57.000Z,0.0367,-0.9946,0.1120,-0.0780,0.0534,-0.0984,-0.0071,0.0293,-0.0169,-2.2105,1.4534,2.9960
2024-10-11T12:44:57.011Z,0.0260,-0.9922,0.1055,-0.0845,-0.0090,0.1002,-0.0059,0.0301,-0.0157,-2.2060,1.4535,2.9922
2024-10-11T12:44:57.019Z,0.0203,-0.9901,0.1025,-0.0845,-0.0090,0.1002,-0.0053,0.0289,-0.0163,-2.2060,1.4535,2.9922
2024-10-11T12:44:57.030Z,0.0266,-0.9874,0.0972,-0.0845,-0.0090,0.1002,-0.0052,0.0255,-0.0115,-2.2060,1.4535,2.9922
2024-10-11T12:44:57.040Z,0.0252,-0.9863,0.0917,-0.0735,-0.0675,0.2350,-0.0016,0.0223,-0.0108,-2.2029,1.4536,2.9895
2024-10-11T12:44:57.050Z,0.0193,-0.9852,0.0910,-0.0735,-0.0675,0.2350,-0.0021,0.0237,-0.0097,-2.2029,1.4536,2.9895
2024-10-11T12:44:57.060Z,0.0169,-0.9869,0.0946,-0.0735,-0.0675,0.2350,0.0009,0.0230,-0.0108,-2.2029,1.4536,2.9895
2024-10-11T12:44:57.070Z,0.0246,-0.9867,0.1012,-0.0645,-0.0626,0.1427,0.0025,0.0202,-0.0092,-2.2003,1.4534,2.9874
2024-10-11T12:44:57.080Z,0.0242,-0.9910,0.1048,-0.0645,-0.0626,0.1427,0.0044,0.0188,-0.0086,-2.2003,1.4534,2.9874
2024-10-11T12:44:57.090Z,0.0208,-0.9931,0.1120,-0.0645,-0.0626,0.1427,0.0054,0.0207,-0.0063,-2.2003,1.4534,2.9874
2024-10-11T12:44:57.099Z,0.0234,-0.9953,0.1169,-0.0509,0.0214,-0.0108,0.0031,0.0220,-0.0055,-2.1984,1.4533,2.9859
2024-10-11T12:44:57.110Z,0.0269,-0.9963,0.1219,-0.0509,0.0214,-0.0108,0.0057,0.0221,-0.0034,-2.1984,1.4533,2.9859
2024-10-11T12:44:57.120Z,0.0310,-0.9959,0.1162,-0.0509,0.0214,-0.0108,0.0071,0.0221,-0.0028,-2.1984,1.4533,2.9859
2024-10-11T12:44:57.130Z,0.0329,-0.9959,0.1128,-0.1437,0.0275,0.0306,0.0081,0.0205,-0.0023,-2.1981,1.4532,2.9859
2024-10-11T12:44:57.140Z,0.0237,-0.9935,0.1183,-0.1437,0.0275,0.0306,0.0072,0.0178,0.0006,-2.1981,1.4532,2.9859
2024-10-11T12:44:57.150Z,0.0208,-0.9964,0.1195,-0.1437,0.0275,0.0306,0.0084,0.0164,0.0020,-2.1981,1.4532,2.9859
2024-10-11T12:44:57.160Z,0.0322,-0.9976,0.1149,-0.1383,0.0446,0.0134,0.0086,0.0149,0.0028,-2.1989,1.4529,2.9870
2024-10-11T12:44:57.170Z,0.0258,-0.9962,0.1092,-0.1383,0.0446,0.0134,0.0081,0.0155,0.0011,-2.1989,1.4529,2.9870
2024-10-11T12:44:57.180Z,0.0171,-0.9957,0.1101,-0.1383,0.0446,0.0134,0.0104,0.0164,0.0023,-2.1989,1.4529,2.9870
2024-10-11T12:44:57.190Z,0.0176,-0.9969,0.1094,0.0042,0.0382,0.0700,0.0113,0.0194,0.0020,-2.2000,1.4526,2.9883
2024-10-11T12:44:57.199Z,0.0238,-0.9996,0.1055,0.0042,0.0382,0.0700,0.0118,0.0182,0.0016,-2.2000,1.4526,2.9883
2024-10-11T12:44:57.210Z,0.0176,-1.0024,0.1061,0.0042,0.0382,0.0700,0.0125,0.0183,0.0013,-2.2000,1.4526,2.9883
2024-10-11T12:44:57.221Z,0.0092,-1.0025,0.1124,0.0860,0.0934,0.0450,0.0145,0.0164,-0.0009,-2.2005,1.4522,2.9891
2024-10-11T12:44:57.231Z,0.0090,-1.0010,0.1162,0.0860,0.0934,0.0450,0.0137,0.0140,-0.0021,-2.2005,1.4522,2.9891
2024-10-11T12:44:57.240Z,0.0206,-1.0010,0.1199,0.0860,0.0934,0.0450,0.0125,0.0172,-0.0015,-2.2005,1.4522,2.9891
2024-10-11T12:44:57.250Z,0.0213,-0.9990,0.1194,-0.0330,0.0594,-0.0205,0.0127,0.0201,-0.0027,-2.2008,1.4518,2.9896
2024-10-11T12:44:57.260Z,0.0226,-0.9980,0.1221,-0.0330,0.0594,-0.0205,0.0121,0.0168,-0.0000,-2.2008,1.4518,2.9896
2024-10-11T12:44:57.270Z,0.0178,-0.9998,0.1352,-0.0330,0.0594,-0.0205,0.0090,0.0182,-0.0018,-2.2008,1.4518,2.9896
2024-10-11T12:44:57.280Z,0.0194,-1.0008,0.1391,-0.0139,0.0773,-0.2101,0.0070,0.0189,-0.0012,-2.2010,1.4515,2.9902
2024-10-11T12:44:57.290Z,0.0275,-0.9998,0.1379,-0.0139,0.0773,-0.2101,0.0045,0.0217,0.0008,-2.2010,1.4515,2.9902
2024-10-11T12:44:57.300Z,0.0262,-1.0005,0.1356,-0.0139,0.0773,-0.2101,0.0012,0.0209,-0.0011,-2.2010,1.4515,2.9902
2024-10-11T12:44:57.310Z,0.0207,-1.0032,0.1352,-0.0278,0.1009,-0.1717,-0.0004,0.0226,0.0001,-2.2015,1.4515,2.9910
2024-10-11T12:44:57.320Z,0.0164,-1.0010,0.1314,-0.0278,0.1009,-0.1717,-0.0014,0.0199,0.0013,-2.2015,1.4515,2.9910
2024-10-11T12:44:57.330Z,0.0261,-0.9999,0.1278,-0.0278,0.1009,-0.1717,-0.0043,0.0195,-0.0015,-2.2015,1.4515,2.9910
2024-10-11T12:44:57.339Z,0.0230,-0.9972,0.1256,-0.0511,0.0419,-0.0783,-0.0046,0.0190,-0.0008,-2.2014,1.4515,2.9913
2024-10-11T12:44:57.350Z,0.0167,-0.9945,0.1233,-0.0511,0.0419,-0.0783,-0.0026,0.0184,-0.0020,-2.2014,1.4515,2.9913
2024-10-11T12:44:57.360Z,0.0213,-0.9946,0.1225,-0.0511,0.0419,-0.0783,-0.0028,0.0205,-0.0010,-2.2014,1.4515,2.9913
2024-10-11T12:44:57.370Z,0.0232,-0.9935,0.1195,-0.0530,0.0055,-0.0188,-0.0053,0.0186,0.0025,-2.2015,1.4516,2.9917
2024-10-11T12:44:57.380Z,0.0183,-0.9893,0.1130,-0.0530,0.0055,-0.0188,-0.0034,0.0177,-0.0006,-2.2015,1.4516,2.9917
2024-10-11T12:44:57.390Z,0.0145,-0.9874,0.1107,-0.0530,0.0055,-0.0188,-0.0048,0.0174,-0.0033,-2.2015,1.4516,2.9917
2024-10-11T12:44:57.400Z,0.0071,-0.9835,0.1159,0.1044,-0.0925,0.0155,-0.0048,0.0176,-0.0023,-2.2011,1.4517,2.9915
2024-10-11T12:44:57.410Z,0.0117,-0.9838,0.1191,0.1044,-0.0925,0.0155,-0.0079,0.0154,-0.0037,-2.2011,1.4517,2.9915
2024-10-11T12:44:57.421Z,0.0185,-0.9829,0.1179,0.1044,-0.0925,0.0155,-0.0076,0.0161,-0.0037,-2.2011,1.4517,2.9915
2024-10-11T12:44:57.430Z,0.0140,-0.9855,0.1188,0.0378,-0.0729,-0.0147,-0.0064,0.0143,-0.0040,-2.2003,1.4518,2.9909
2024-10-11T12:44:57.441Z,0.0136,-0.9853,0.1203,0.0378,-0.0729,-0.0147,-0.0077,0.0155,-0.0039,-2.2003,1.4518,2.9909
2024-10-11T12:44:57.451Z,0.0131,-0.9855,0.1227,0.0378,-0.0729,-0.0147,-0.0064,0.0171,-0.0045,-2.2003,1.4518,2.9909
2024-10-11T12:44:57.460Z,0.0198,-0.9850,0.1204,-0.0192,-0.0782,-0.0319,-0.0100,0.0182,-0.0033,-2.1992,1.4520,2.9902
2024-10-11T12:44:57.470Z,0.0209,-0.9846,0.1183,-0.0192,-0.0782,-0.0319,-0.0077,0.0176,0.0014,-2.1992,1.4520,2.9902
2024-10-11T12:44:57.480Z,0.0180,-0.9863,0.1170,-0.0192,-0.0782,-0.0319,-0.0108,0.0190,-0.0031,-2.1992,1.4520,2.9902
2024-10-11T12:44:57.489Z,0.0202,-0.9856,0.1149,-0.0224,-0.0723,0.0197,-0.0112,0.0184,-0.0009,-2.1987,1.4523,2.9899
2024-10-11T12:44:57.500Z,0.0234,-0.9845,0.1097,-0.0224,-0.0723,0.0197,-0.0087,0.0201,-0.0008,-2.1987,1.4523,2.9899
2024-10-11T12:44:57.510Z,0.0271,-0.9818,0.1075,-0.0224,-0.0723,0.0197,-0.0065,0.0183,-0.0013,-2.1987,1.4523,2.9899
2024-10-11T12:44:57.520Z,0.0219,-0.9811,0.1055,-0.0404,-0.1171,0.1100,-0.0051,0.0199,-0.0003,-2.1985,1.4524,2.9901
2024-10-11T12:44:57.530Z,0.0138,-0.9832,0.1093,-0.0404,-0.1171,0.1100,-0.0079,0.0217,-0.0001,-2.1985,1.4524,2.9901
2024-10-11T12:44:57.540Z,0.0191,-0.9942,0.1111,-0.0404,-0.1171,0.1100,-0.0043,0.0217,-0.0003,-2.1985,1.4524,2.9901
2024-10-11T12:44:57.550Z,0.0235,-1.0163,0.1037,-0.0561,0.2283,0.1275,-0.0008,0.0189,0.0011,-2.1988,1.4525,2.9907
2024-10-11T12:44:57.560Z,0.0151,-1.0228,0.0986,-0.0561,0.2283,0.1275,0.0007,0.0190,0.0024,-2.1988,1.4525,2.9907
2024-10-11T12:44:57.570Z,0.0062,-1.0113,0.1103,-0.0561,0.2283,0.1275,0.0030,0.0189,0.0002,-2.1988,1.4525,2.9907
2024-10-11T12:44:57.580Z,0.0197,-0.9970,0.1242,-0.0202,0.0393,-0.0732,0.0011,0.0203,0.0025,-2.1990,1.4524,2.9912
2024-10-11T12:44:57.589Z,0.0340,-0.9949,0.1175,-0.0202,0.0393,-0.0732,0.0020,0.0227,0.0045,-2.1990,1.4524,2.9912
2024-10-11T12:44:57.600Z,0.0150,-0.9939,0.1079,-0.0202,0.0393,-0.0732,-0.0017,0.0225,0.0029,-2.1990,1.4524,2.9912
2024-10-11T12:44:57.610Z,0.0239,-0.9963,0.1170,-0.0624,0.0319,-0.0028,0.0038,0.0227,0.0027,-2.1998,1.4525,2.9925
2024-10-11T12:44:57.620Z,0.0035,-1.0031,0.1201,-0.0624,0.0319,-0.0028,0.0015,0.0255,0.0055,-2.1998,1.4525,2.9925
2024-10-11T12:44:57.630Z,0.0512,-1.0112,0.1064,-0.0624,0.0319,-0.0028,0.0013,0.0223,0.0074,-2.1998,1.4525,2.9925
2024-10-11T12:44:57.640Z,0.0130,-1.0050,0.1167,0.0415,0.1175,0.0010,0.0014,0.0294,0.0073,-2.2015,1.4525,2.9947
2024-10-11T12:44:57.650Z,0.0245,-1.0088,0.1168,0.0415,0.1175,0.0010,0.0022,0.0281,0.0064,-2.2015,1.4525,2.9947
2024-10-11T12:44:57.660Z,0.0236,-1.0054,0.1294,0.0415,0.1175,0.0010,-0.0011,0.0339,0.0109,-2.2015,1.4525,2.9947
2024-10-11T12:44:57.671Z,0.0408,-1.0284,0.1373,-0.2348,0.3466,-0.2015,-0.0037,0.0288,0.0133,-2.2041,1.4526,2.9979
2024-10-11T12:44:57.679Z,0.0327,-1.0305,0.1396,-0.2348,0.3466,-0.2015,-0.0089,0.0354,0.0122,-2.2041,1.4526,2.9979
2024-10-11T12:44:57.689Z,0.0143,-1.0220,0.1477,-0.2348,0.3466,-0.2015,-0.0138,0.0339,0.0141,-2.2041,1.4526,2.9979
2024-10-11T12:44:57.700Z,0.0231,-0.9977,0.1547,-0.0664,0.0455,-0.3757,-0.0167,0.0358,0.0151,-2.2074,1.4530,3.0019
2024-10-11T12:44:57.710Z,0.0345,-1.0024,0.1348,-0.0664,0.0455,-0.3757,-0.0201,0.0362,0.0176,-2.2074,1.4530,3.0019
2024-10-11T12:44:57.720Z,0.0327,-1.0046,0.1219,-0.0664,0.0455,-0.3757,-0.0199,0.0370,0.0184,-2.2074,1.4530,3.0019
2024-10-11T12:44:57.730Z,0.0128,-1.0027,0.1223,0.0288,0.0935,-0.0627,-0.0216,0.0318,0.0170,-2.2111,1.4536,3.0063
2024-10-11T12:44:57.740Z,0.0055,-0.9995,0.1083,0.0288,0.0935,-0.0627,-0.0179,0.0300,0.0134,-2.2111,1.4536,3.0063
2024-10-11T12:44:57.750Z,-0.0011,-0.9975,0.0932,0.0288,0.0935,-0.0627,-0.0170,0.0241,0.0103,-2.2111,1.4536,3.0063
2024-10-11T12:44:57.760Z,0.0021,-0.9912,0.0992,0.1305,-0.0194,0.1582,-0.0205,0.0220,0.0081,-2.2134,1.4541,3.0092
2024-10-11T12:44:57.770Z,0.0064,-0.9868,0.1054,0.1305,-0.0194,0.1582,-0.0196,0.0209,0.0058,-2.2134,1.4541,3.0092
2024-10-11T12:44:57.780Z,0.0085,-0.9901,0.1102,0.1305,-0.0194,0.1582,-0.0215,0.0213,0.0051,-2.2134,1.4541,3.0092
2024-10-11T12:44:57.790Z,0.0042,-0.9962,0.1171,0.1073,0.0291,-0.0214,-0.0206,0.0159,0.0005,-2.2143,1.4547,3.0103
2024-10-11T12:44:57.800Z,0.0026,-1.0063,0.1117,0.1073,0.0291,-0.0214,-0.0203,0.0142,-0.0033,-2.2143,1.4547,3.0103
2024-10-11T12:44:57.810Z,-0.0057,-1.0031,0.1175,0.1073,0.0291,-0.0214,-0.0254,0.0101,-0.0046,-2.2143,1.4547,3.0103
2024-10-11T12:44:57.820Z,0.0103,-0.9954,0.1285,0.0481,0.0199,-0.1411,-0.0279,0.0134,-0.0043,-2.2128,1.4554,3.0090
2024-10-11T12:44:57.830Z,0.0154,-0.9931,0.1284,0.0481,0.0199,-0.1411,-0.0284,0.0113,-0.0034,-2.2128,1.4554,3.0090
2024-10-11T12:44:57.840Z,0.0213,-0.9979,0.1280,0.0481,0.0199,-0.1411,-0.0327,0.0130,-0.0026,-2.2128,1.4554,3.0090
2024-10-11T12:44:57.850Z,0.0277,-0.9937,0.1345,-0.1220,0.0019,-0.2085,-0.0334,0.0122,0.0016,-2.2115,1.4563,3.0077
2024-10-11T12:44:57.860Z,0.0215,-0.9922,0.1354,-0.1220,0.0019,-0.2085,-0.0398,0.0139,-0.0007,-2.2115,1.4563,3.0077
2024-10-11T12:44:57.871Z,0.0167,-0.9972,0.1342,-0.1220,0.0019,-0.2085,-0.0410,0.0139,-0.0012,-2.2115,1.4563,3.0077
2024-10-11T12:44:57.880Z,0.0153,-0.9993,0.1266,-0.0005,0.0558,-0.1421,-0.0408,0.0155,-0.0016,-2.2101,1.4575,3.0067
2024-10-11T12:44:57.889Z,0.0162,-0.9999,0.1141,-0.0005,0.0558,-0.1421,-0.0375,0.0165,0.0013,-2.2101,1.4575,3.0067
2024-10-11T12:44:57.900Z,0.0082,-0.9960,0.1064,-0.0005,0.0558,-0.1421,-0.0365,0.0192,-0.0018,-2.2101,1.4575,3.0067
2024-10-11T12:44:57.910Z,0.0074,-0.9906,0.1024,0.0765,-0.0306,0.0847,-0.0378,0.0130,-0.0047,-2.2089,1.4585,3.0056
2024-10-11T12:44:57.920Z,0.0075,-0.9874,0.1010,0.0765,-0.0306,0.0847,-0.0329,0.0142,-0.0070,-2.2089,1.4585,3.0056
2024-10-11T12:44:57.930Z,0.0102,-0.9951,0.0844,0.0765,-0.0306,0.0847,-0.0293,0.0120,-0.0054,-2.2089,1.4585,3.0056
2024-10-11T12:44:57.940Z,0.0111,-0.9923,0.0813,0.0413,-0.0142,0.2834,-0.0244,0.0092,-0.0091,-2.2063,1.4593,3.0032
2024-10-11T12:44:57.950Z,-0.0081,-0.9909,0.0834,0.0413,-0.0142,0.2834,-0.0236,0.0089,-0.0113,-2.2063,1.4593,3.0032
2024-10-11T12:44:57.960Z,0.0057,-0.9990,0.0896,0.0413,-0.0142,0.2834,-0.0168,0.0080,-0.0095,-2.2063,1.4593,3.0032
2024-10-11T12:44:57.970Z,0.0143,-1.0110,0.0942,0.0133,0.1685,0.1529,-0.0122,0.0058,-0.0097,-2.2030,1.4597,2.9999
2024-10-11T12:44:57.980Z,0.0197,-1.0181,0.0910,0.0133,0.1685,0.1529,-0.0094,0.0096,-0.0128,-2.2030,1.4597,2.9999
2024-10-11T12:44:57.990Z,0.0073,-1.0212,0.0871,0.0133,0.1685,0.1529,-0.0078,0.0102,-0.0137,-2.2030,1.4597,2.9999
2024-10-11T12:44:58.000Z,0.0117,-1.0193,0.0979,0.0423,0.2497,0.1141,-0.0041,0.0124,-0.0141,-2.1998,1.4599,2.9969
2024-10-11T12:44:58.010Z,0.0071,-1.0166,0.1128,0.0423,0.2497,0.1141,-0.0062,0.0145,-0.0144,-2.1998,1.4599,2.9969
2024-10-11T12:44:58.020Z,0.0044,-1.0168,0.1234,0.0423,0.2497,0.1141,-0.0056,0.0150,-0.0144,-2.1998,1.4599,2.9969
2024-10-11T12:44:58.029Z,0.0146,-1.0153,0.1256,0.0169,0.2099,-0.1594,-0.0061,0.0204,-0.0099,-2.1963,1.4600,2.9936
2024-10-11T12:44:58.040Z,0.0183,-1.0165,0.1243,0.0169,0.2099,-0.1594,-0.0078,0.0221,-0.0125,-2.1963,1.4600,2.9936
2024-10-11T12:44:58.050Z,0.0108,-1.0229,0.1165,0.0169,0.2099,-0.1594,-0.0031,0.0221,-0.0108,-2.1963,1.4600,2.9936
2024-10-11T12:44:58.060Z,0.0109,-1.0290,0.1171,0.0552,0.3450,-0.0767,0.0019,0.0232,-0.0108,-2.1935,1.4600,2.9912
2024-10-11T12:44:58.070Z,0.0158,-1.0253,0.1042,0.0552,0.3450,-0.0767,0.0011,0.0183,-0.0114,-2.1935,1.4600,2.9912
2024-10-11T12:44:58.080Z,0.0076,-1.0210,0.0982,0.0552,0.3450,-0.0767,0.0092,0.0204,-0.0107,-2.1935,1.4600,2.9912
2024-10-11T12:44:58.090Z,0.0105,-1.0124,0.0905,0.0619,0.1818,0.1864,0.0137,0.0173,-0.0091,-2.1914,1.4598,2.9894
2024-10-11T12:44:58.100Z,0.0150,-1.0001,0.0877,0.0619,0.1818,0.1864,0.0135,0.0197,-0.0091,-2.1914,1.4598,2.9894
2024-10-11T12:44:58.111Z,0.0065,-0.9874,0.1034,0.0619,0.1818,0.1864,0.0132,0.0182,-0.0101,-2.1914,1.4598,2.9894
2024-10-11T12:44:58.121Z,0.0118,-0.9865,0.1122,0.0515,-0.0717,-0.0217,0.0142,0.0170,-0.0100,-2.1895,1.4593,2.9878
2024-10-11T12:44:58.130Z,0.0112,-0.9958,0.1086,0.0515,-0.0717,-0.0217,0.0168,0.0160,-0.0085,-2.1895,1.4593,2.9878
2024-10-11T12:44:58.139Z,0.0170,-1.0091,0.1132,0.0515,-0.0717,-0.0217,0.0173,0.0180,-0.0071,-2.1895,1.4593,2.9878
2024-10-11T12:44:58.150Z,0.0181,-1.0165,0.1263,-0.0084,0.2235,-0.1552,0.0107,0.0228,-0.0047,-2.1883,1.4588,2.9870
2024-10-11T12:44:58.160Z,0.0159,-1.0196,0.1301,-0.0084,0.2235,-0.1552,0.0136,0.0248,-0.0023,-2.1883,1.4588,2.9870
2024-10-11T12:44:58.170Z,0.0215,-1.0187,0.1255,-0.0084,0.2235,-0.1552,0.0113,0.0241,-0.0005,-2.1883,1.4588,2.9870
2024-10-11T12:44:58.179Z,0.0163,-1.0168,0.1330,0.0092,0.2270,-0.2183,0.0041,0.0302,0.0003,-2.1882,1.4584,2.9874
2024-10-11T12:44:58.190Z,0.0260,-1.0201,0.1393,0.0092,0.2270,-0.2183,0.0025,0.0283,0.0013,-2.1882,1.4584,2.9874
2024-10-11T12:44:58.200Z,0.0124,-1.0224,0.1364,0.0092,0.2270,-0.2183,-0.0013,0.0291,-0.0010,-2.1882,1.4584,2.9874
2024-10-11T12:44:58.210Z,0.0021,-1.0185,0.1295,0.1467,0.2433,-0.1832,-0.0039,0.0310,0.0018,-2.1887,1.4584,2.9886
2024-10-11T12:44:58.220Z,0.0090,-1.0101,0.1264,0.1467,0.2433,-0.1832,-0.0066,0.0306,0.0003,-2.1887,1.4584,2.9886
2024-10-11T12:44:58.230Z,0.0081,-1.0057,0.1280,0.1467,0.2433,-0.1832,-0.0086,0.0337,0.0030,-2.1887,1.4584,2.9886
2024-10-11T12:44:58.239Z,0.0149,-1.0083,0.1288,0.0198,0.1430,-0.1773,-0.0101,0.0331,-0.0010,-2.1890,1.4586,2.9896
2024-10-11T12:44:58.250Z,0.0016,-1.0223,0.1212,0.0198,0.1430,-0.1773,-0.0094,0.0327,0.0023,-2.1890,1.4586,2.9896
2024-10-11T12:44:58.260Z,0.0083,-1.0227,0.1202,0.0198,0.1430,-0.1773,-0.0100,0.0357,-0.0009,-2.1890,1.4586,2.9896
2024-10-11T12:44:58.271Z,0.0155,-1.0155,0.1157,0.0132,0.2134,-0.0511,-0.0095,0.0345,0.0014,-2.1892,1.4588,2.9905
2024-10-11T12:44:58.279Z,0.0118,-1.0054,0.1112,0.0132,0.2134,-0.0511,-0.0122,0.0392,0.0011,-2.1892,1.4588,2.9905
2024-10-11T12:44:58.291Z,0.0133,-0.9929,0.1037,0.0132,0.2134,-0.0511,-0.0069,0.0472,0.0015,-2.1892,1.4588,2.9905
2024-10-11T12:44:58.301Z,0.0130,-0.9873,0.0988,0.0357,-0.0633,0.1131,-0.0017,0.0514,0.0012,-2.1896,1.4590,2.9920
2024-10-11T12:44:58.310Z,0.0162,-0.9901,0.0983,0.0357,-0.0633,0.1131,-0.0017,0.0514,0.0012,-2.1896,1.4590,2.9920
2024-10-11T12:44:58.323Z,0.0108,-0.9958,0.0900,0.1246,0.0000,0.1950,-0.0025,0.0494,0.0023,-2.1908,1.4590,2.9944
2024-10-11T12:44:58.330Z,0.0037,-0.9938,0.0905,0.1246,0.0000,0.1950,0.0001,0.0494,-0.0005,-2.1908,1.4590,2.9944
2024-10-11T12:44:58.340Z,0.0043,-0.9862,0.1057,0.1246,0.0000,0.1950,0.0016,0.0520,0.0015,-2.1908,1.4590,2.9944
2024-10-11T12:44:58.351Z,0.0060,-0.9885,0.1188,0.1246,0.0000,0.1950,-0.0034,0.0560,0.0012,-2.1908,1.4590,2.9944
2024-10-11T12:44:58.360Z,0.0183,-0.9928,0.1246,-0.0210,-0.0093,-0.1394,-0.0034,0.0560,0.0012,-2.1915,1.4590,2.9964
2024-10-11T12:44:58.371Z,0.0225,-1.0013,0.1181,-0.0210,-0.0093,-0.1394,-0.0043,0.0565,0.0074,-2.1915,1.4590,2.9964
2024-10-11T12:44:58.381Z,0.0228,-1.0032,0.1244,-0.0210,-0.0093,-0.1394,-0.0095,0.0629,0.0071,-2.1915,1.4590,2.9964
2024-10-11T12:44:58.390Z,0.0082,-1.0036,0.1286,0.0741,0.0960,-0.1803,-0.0095,0.0629,0.0071,-2.1930,1.4593,2.9994
2024-10-11T12:44:58.401Z,0.0276,-1.0094,0.1096,0.0741,0.0960,-0.1803,-0.0123,0.0669,0.0097,-2.1930,1.4593,2.9994
2024-10-11T12:44:58.411Z,0.0232,-1.0021,0.1019,0.0741,0.0960,-0.1803,-0.0104,0.0682,0.0072,-2.1930,1.4593,2.9994
2024-10-11T12:44:58.421Z,0.0080,-0.9923,0.0921,0.0720,-0.0146,0.1741,-0.0104,0.0682,0.0072,-2.1950,1.4596,3.0032
2024-10-11T12:44:58.431Z,0.0121,-0.9838,0.0852,0.0720,-0.0146,0.1741,-0.0052,0.0626,0.0037,-2.1950,1.4596,3.0032
2024-10-11T12:44:58.441Z,0.0113,-0.9848,0.0866,0.0720,-0.0146,0.1741,-0.0061,0.0582,0.0008,-2.1950,1.4596,3.0032
2024-10-11T12:44:58.451Z,-0.0009,-0.9860,0.0872,0.1555,-0.0769,0.2211,-0.0023,0.0555,-0.0024,-2.1964,1.4598,3.0062
2024-10-11T12:44:58.461Z,-0.0060,-0.9868,0.0817,0.1555,-0.0769,0.2211,0.0001,0.0512,-0.0032,-2.1964,1.4598,3.0062
2024-10-11T12:44:58.474Z,0.0014,-0.9875,0.0788,0.1417,-0.0254,0.2768,-0.0018,0.0536,-0.0074,-2.1956,1.4598,3.0069
2024-10-11T12:44:58.479Z,0.0004,-0.9913,0.0815,0.1417,-0.0254,0.2768,-0.0018,0.0536,-0.0074,-2.1956,1.4598,3.0069
2024-10-11T12:44:58.491Z,0.0179,-0.9890,0.0822,0.1417,-0.0254,0.2768,0.0032,0.0554,-0.0068,-2.1956,1.4598,3.0069
2024-10-11T12:44:58.501Z,0.0152,-0.9893,0.0798,0.1417,-0.0254,0.2768,0.0030,0.0559,-0.0041,-2.1956,1.4598,3.0069
2024-10-11T12:44:58.510Z,0.0144,-0.9855,0.0842,0.0042,-0.0816,0.2516,0.0008,0.0608,-0.0041,-2.1944,1.4597,3.0071
2024-10-11T12:44:58.521Z,0.0279,-0.9861,0.0857,0.0042,-0.0816,0.2516,-0.0005,0.0656,0.0001,-2.1944,1.4597,3.0071
2024-10-11T12:44:58.531Z,0.0343,-0.9787,0.0990,-0.1219,-0.2276,0.0074,-0.0005,0.0656,0.0001,-2.1941,1.4596,3.0085
2024-10-11T12:44:58.541Z,0.0271,-0.9706,0.1092,-0.1219,-0.2276,0.0074,-0.0035,0.0676,0.0025,-2.1941,1.4596,3.0085
2024-10-11T12:44:58.550Z,0.0226,-0.9741,0.1100,-0.1219,-0.2276,0.0074,-0.0022,0.0665,0.0035,-2.1941,1.4596,3.0085
2024-10-11T12:44:58.561Z,0.0224,-0.9858,0.1046,-0.1219,-0.2276,0.0074,-0.0022,0.0696,0.0025,-2.1941,1.4596,3.0085
2024-10-11T12:44:58.572Z,0.0202,-0.9965,0.0968,-0.0567,0.0262,0.1286,0.0004,0.0749,0.0037,-2.1951,1.4597,3.0113
2024-10-11T12:44:58.580Z,0.0148,-0.9979,0.1031,-0.0567,0.0262,0.1286,0.0011,0.0716,0.0021,-2.1951,1.4597,3.0113
2024-10-11T12:44:58.590Z,0.0200,-0.9980,0.1041,-0.0567,0.0262,0.1286,0.0019,0.0710,0.0008,-2.1951,1.4597,3.0113
2024-10-11T12:44:58.600Z,0.0052,-0.9876,0.1129,0.0870,-0.0610,-0.0275,0.0037,0.0694,-0.0009,-2.1961,1.4596,3.0141
2024-10-11T12:44:58.610Z,0.0029,-0.9797,0.1075,0.0870,-0.0610,-0.0275,0.0031,0.0736,-0.0029,-2.1961,1.4596,3.0141
2024-10-11T12:44:58.623Z,0.0106,-0.9739,0.0991,0.0527,-0.2734,0.1009,0.0052,0.0751,-0.0036,-2.1959,1.4595,3.0159
2024-10-11T12:44:58.630Z,0.0086,-0.9659,0.0999,0.0527,-0.2734,0.1009,0.0074,0.0761,-0.0022,-2.1959,1.4595,3.0159
2024-10-11T12:44:58.640Z,0.0143,-0.9623,0.1047,0.0527,-0.2734,0.1009,0.0094,0.0758,-0.0033,-2.1959,1.4595,3.0159
2024-10-11T12:44:58.650Z,0.0088,-0.9650,0.1066,0.0527,-0.2734,0.1009,0.0106,0.0762,-0.0058,-2.1959,1.4595,3.0159
2024-10-11T12:44:58.660Z,0.0087,-0.9665,0.1088,0.0504,-0.2675,0.0165,0.0084,0.0796,-0.0077,-2.1954,1.4592,3.0175
2024-10-11T12:44:58.671Z,0.0088,-0.9779,0.1246,0.0504,-0.2675,0.0165,0.0090,0.0800,-0.0075,-2.1954,1.4592,3.0175
2024-10-11T12:44:58.680Z,0.0088,-0.9779,0.1246,0.0504,-0.2675,0.0165,0.0071,0.0780,-0.0075,-2.1954,1.4592,3.0175
2024-10-11T12:44:58.690Z,0.0069,-0.9768,0.1353,0.0675,-0.1666,-0.2398,0.0003,0.0821,-0.0079,-2.1942,1.4589,3.0183
2024-10-11T12:44:58.700Z,0.0116,-0.9734,0.1421,0.0675,-0.1666,-0.2398,-0.0035,0.0825,-0.0096,-2.1942,1.4589,3.0183
2024-10-11T12:44:58.710Z,0.0233,-0.9745,0.1484,0.0675,-0.1666,-0.2398,-0.0056,0.0849,-0.0083,-2.1942,1.4589,3.0183
2024-10-11T12:44:58.720Z,0.0168,-0.9810,0.1452,-0.0306,-0.1251,-0.3374,-0.0094,0.0904,-0.0070,-2.1921,1.4589,3.0185
2024-10-11T12:44:58.730Z,0.0183,-0.9783,0.1401,-0.0306,-0.1251,-0.3374,-0.0102,0.0921,-0.0086,-2.1921,1.4589,3.0185
2024-10-11T12:44:58.741Z,0.0202,-0.9820,0.1341,-0.0094,-0.1415,-0.2212,-0.0102,0.0921,-0.0086,-2.1899,1.4591,3.0188
2024-10-11T12:44:58.750Z,0.0146,-0.9793,0.1332,-0.0094,-0.1415,-0.2212,-0.0153,0.0967,-0.0099,-2.1899,1.4591,3.0188
2024-10-11T12:44:58.760Z,0.0171,-0.9739,0.1289,-0.0094,-0.1415,-0.2212,-0.0136,0.0932,-0.0080,-2.1899,1.4591,3.0188
2024-10-11T12:44:58.770Z,0.0180,-0.9731,0.1218,-0.0094,-0.1415,-0.2212,-0.0175,0.0936,-0.0073,-2.1899,1.4591,3.0188
2024-10-11T12:44:58.781Z,0.0218,-0.9739,0.1235,-0.0116,-0.1856,-0.1505,-0.0150,0.0930,-0.0083,-2.1877,1.4595,3.0191
2024-10-11T12:44:58.790Z,0.0218,-0.9739,0.1235,-0.0116,-0.1856,-0.1505,-0.0145,0.0923,-0.0077,-2.1877,1.4595,3.0191
2024-10-11T12:44:58.800Z,0.0165,-0.9727,0.1183,-0.0116,-0.1856,-0.1505,-0.0155,0.0920,-0.0098,-2.1877,1.4595,3.0191
2024-10-11T12:44:58.811Z,0.0197,-0.9783,0.1130,0.0496,-0.1921,0.0012,-0.0186,0.0938,-0.0085,-2.1848,1.4599,3.0187
2024-10-11T12:44:58.820Z,0.0197,-0.9783,0.1130,0.0496,-0.1921,0.0012,-0.0138,0.0893,-0.0051,-2.1848,1.4599,3.0187
2024-10-11T12:44:58.830Z,0.0283,-0.9832,0.1211,-0.2055,-0.0428,-0.0848,-0.0126,0.0910,-0.0068,-2.1825,1.4603,3.0190
2024-10-11T12:44:58.840Z,0.0187,-0.9920,0.1150,-0.2055,-0.0428,-0.0848,-0.0126,0.0910,-0.0068,-2.1825,1.4603,3.0190
2024-10-11T12:44:58.850Z,0.0187,-0.9920,0.1150,-0.2055,-0.0428,-0.0848,-0.0117,0.0880,-0.0068,-2.1825,1.4603,3.0190
2024-10-11T12:44:58.861Z,0.0176,-0.9845,0.1118,-0.0277,-0.1356,-0.0875,-0.0139,0.0853,-0.0073,-2.1804,1.4606,3.0193
2024-10-11T12:44:58.871Z,0.0157,-0.9821,0.1287,-0.0277,-0.1356,-0.0875,-0.0146,0.0824,-0.0089,-2.1804,1.4606,3.0193
2024-10-11T12:44:58.880Z,0.0278,-0.9867,0.1201,-0.0277,-0.1356,-0.0875,-0.0140,0.0754,-0.0074,-2.1804,1.4606,3.0193
2024-10-11T12:44:58.890Z,0.0278,-0.9867,0.1201,-0.0277,-0.1356,-0.0875,-0.0112,0.0717,-0.0112,-2.1804,1.4606,3.0193
2024-10-11T12:44:58.899Z,0.0136,-0.9922,0.1101,-0.0022,-0.0172,-0.0125,-0.0088,0.0628,-0.0115,-2.1779,1.4610,3.0189
2024-10-11T12:44:58.911Z,0.0181,-0.9852,0.1092,-0.0022,-0.0172,-0.0125,-0.0094,0.0616,-0.0117,-2.1779,1.4610,3.0189
2024-10-11T12:44:58.920Z,0.0181,-0.9852,0.1092,-0.0022,-0.0172,-0.0125,-0.0073,0.0530,-0.0127,-2.1779,1.4610,3.0189
2024-10-11T12:44:58.930Z,0.0213,-0.9827,0.0959,0.0286,-0.0975,0.0465,-0.0046,0.0504,-0.0151,-2.1749,1.4611,3.0175
2024-10-11T12:44:58.940Z,0.0213,-0.9827,0.0959,0.0286,-0.0975,0.0465,-0.0046,0.0504,-0.0151,-2.1749,1.4611,3.0175
2024-10-11T12:44:58.950Z,0.0366,-0.9742,0.1010,-0.3043,-0.2076,0.0565,-0.0016,0.0512,-0.0019,-2.1724,1.4612,3.0162
2024-10-11T12:44:58.960Z,0.0447,-0.9728,0.1028,-0.3043,-0.2076,0.0565,0.0016,0.0458,-0.0057,-2.1724,1.4612,3.0162
2024-10-11T12:44:58.971Z,0.0170,-0.9795,0.0898,-0.3043,-0.2076,0.0565,0.0046,0.0408,-0.0062,-2.1724,1.4612,3.0162
2024-10-11T12:44:58.981Z,0.0170,-0.9795,0.0898,-0.0303,-0.2000,0.2408,0.0082,0.0327,-0.0082,-2.1708,1.4611,3.0158
2024-10-11T12:44:58.990Z,0.0122,-0.9734,0.0820,-0.0303,-0.2000,0.2408,0.0082,0.0327,-0.0082,-2.1708,1.4611,3.0158
2024-10-11T12:44:59.000Z,0.0198,-0.9734,0.0886,-0.0303,-0.2000,0.2408,0.0137,0.0258,-0.0078,-2.1708,1.4611,3.0158
2024-10-11T12:44:59.011Z,0.0198,-0.9734,0.0886,0.0009,-0.2209,0.0923,0.0154,0.0211,-0.0114,-2.1690,1.4606,3.0144
2024-10-11T12:44:59.020Z,0.0139,-0.9714,0.0997,0.0009,-0.2209,0.0923,0.0147,0.0100,-0.0127,-2.1690,1.4606,3.0144
2024-10-11T12:44:59.030Z,0.0202,-0.9737,0.1116,0.0009,-0.2209,0.0923,0.0193,0.0086,-0.0125,-2.1690,1.4606,3.0144
2024-10-11T12:44:59.040Z,0.0202,-0.9737,0.1116,0.0009,-0.2209,0.0923,0.0154,0.0033,-0.0091,-2.1690,1.4606,3.0144
2024-10-11T12:44:59.050Z,0.0176,-0.9747,0.1165,-0.0858,-0.1751,-0.0173,0.0158,0.0043,-0.0087,-2.1664,1.4601,3.0119
2024-10-11T12:44:59.061Z,0.0227,-0.9716,0.1257,-0.0858,-0.1751,-0.0173,0.0109,0.0057,-0.0087,-2.1664,1.4601,3.0119
2024-10-11T12:44:59.071Z,0.0227,-0.9716,0.1257,-0.2084,-0.2093,-0.2382,0.0098,0.0023,-0.0042,-2.1648,1.4597,3.0102
2024-10-11T12:44:59.080Z,0.0312,-0.9832,0.1280,-0.2084,-0.2093,-0.2382,0.0107,-0.0013,-0.0033,-2.1648,1.4597,3.0102
2024-10-11T12:44:59.090Z,0.0312,-0.9832,0.1280,-0.2084,-0.2093,-0.2382,0.0074,-0.0053,-0.0033,-2.1648,1.4597,3.0102
2024-10-11T12:44:59.100Z,0.0173,-0.9913,0.1206,0.0200,-0.1297,-0.0848,0.0067,-0.0055,-0.0028,-2.1642,1.4595,3.0093
2024-10-11T12:44:59.110Z,0.0217,-0.9727,0.1171,0.0200,-0.1297,-0.0848,0.0071,-0.0108,-0.0018,-2.1642,1.4595,3.0093
2024-10-11T12:44:59.119Z,0.0217,-0.9727,0.1171,0.0200,-0.1297,-0.0848,0.0076,-0.0152,-0.0031,-2.1642,1.4595,3.0093
2024-10-11T12:44:59.130Z,0.0197,-0.9693,0.1054,0.0283,-0.2533,0.0581,0.0079,-0.0175,-0.0068,-2.1638,1.4592,3.0083
2024-10-11T12:44:59.141Z,0.0119,-0.9680,0.1045,0.0283,-0.2533,0.0581,0.0111,-0.0178,-0.0058,-2.1638,1.4592,3.0083
2024-10-11T12:44:59.150Z,0.0218,-0.9717,0.0929,0.0283,-0.2533,0.0581,0.0126,-0.0186,-0.0046,-2.1638,1.4592,3.0083
2024-10-11T12:44:59.161Z,0.0218,-0.9717,0.0929,-0.1211,-0.2009,0.1778,0.0154,-0.0203,-0.0028,-2.1635,1.4588,3.0071
2024-10-11T12:44:59.170Z,0.0201,-0.9789,0.0961,-0.1211,-0.2009,0.1778,0.0145,-0.0212,0.0006,-2.1635,1.4588,3.0071
2024-10-11T12:44:59.180Z,0.0270,-0.9777,0.0955,-0.1211,-0.2009,0.1778,0.0175,-0.0205,0.0013,-2.1635,1.4588,3.0071
2024-10-11T12:44:59.190Z,0.0270,-0.9777,0.0955,-0.2013,-0.1171,0.1321,0.0175,-0.0205,0.0013,-2.1647,1.4582,3.0074
2024-10-11T12:44:59.200Z,0.0391,-0.9875,0.1113,-0.2013,-0.1171,0.1321,0.0173,-0.0175,0.0069,-2.1647,1.4582,3.0074
2024-10-11T12:44:59.210Z,0.0293,-0.9975,0.1228,-0.2013,-0.1171,0.1321,0.0174,-0.0210,0.0101,-2.1647,1.4582,3.0074
2024-10-11T12:44:59.220Z,0.0293,-0.9975,0.1228,-0.2057,0.0529,-0.0588,0.0162,-0.0235,0.0104,-2.1674,1.4578,3.0092
2024-10-11T12:44:59.230Z,0.0289,-0.9948,0.1220,-0.2057,0.0529,-0.0588,0.0125,-0.0214,0.0102,-2.1674,1.4578,3.0092
2024-10-11T12:44:59.240Z,0.0289,-0.9948,0.1220,-0.2057,0.0529,-0.0588,0.0119,-0.0255,0.0085,-2.1674,1.4578,3.0092
2024-10-11T12:44:59.250Z,0.0214,-0.9989,0.1279,0.0754,0.1120,-0.2384,0.0069,-0.0217,0.0087,-2.1703,1.4575,3.0112
2024-10-11T12:44:59.260Z,0.0181,-1.0041,0.1366,0.0754,0.1120,-0.2384,0.0055,-0.0221,0.0101,-2.1703,1.4575,3.0112
2024-10-11T12:44:59.270Z,0.0251,-1.0040,0.1344,0.0754,0.1120,-0.2384,0.0020,-0.0202,0.0108,-2.1703,1.4575,3.0112
2024-10-11T12:44:59.281Z,0.0201,-1.0022,0.1417,-0.0546,0.0847,-0.2897,0.0009,-0.0207,0.0097,-2.1727,1.4574,3.0127
2024-10-11T12:44:59.290Z,0.0201,-1.0022,0.1417,-0.0546,0.0847,-0.2897,-0.0000,-0.0196,0.0097,-2.1727,1.4574,3.0127
2024-10-11T12:44:59.300Z,0.0119,-1.0058,0.1355,-0.0546,0.0847,-0.2897,-0.0034,-0.0196,0.0100,-2.1727,1.4574,3.0127
2024-10-11T12:44:59.310Z,0.0119,-1.0058,0.1355,-0.0026,0.1024,-0.1830,-0.0043,-0.0167,0.0072,-2.1747,1.4575,3.0139
2024-10-11T12:44:59.320Z,0.0090,-1.0034,0.1256,-0.0026,0.1024,-0.1830,-0.0052,-0.0160,0.0069,-2.1747,1.4575,3.0139
2024-10-11T12:44:59.330Z,0.0100,-1.0057,0.1212,-0.0026,0.1024,-0.1830,-0.0083,-0.0121,0.0085,-2.1747,1.4575,3.0139
2024-10-11T12:44:59.342Z,0.0100,-1.0057,0.1212,0.0318,0.1505,-0.0836,-0.0109,-0.0162,0.0077,-2.1766,1.4577,3.0150
2024-10-11T12:44:59.350Z,0.0150,-1.0059,0.1114,0.0318,0.1505,-0.0836,-0.0102,-0.0138,0.0048,-2.1766,1.4577,3.0150
2024-10-11T12:44:59.360Z,0.0156,-1.0009,0.1105,0.0318,0.1505,-0.0836,-0.0122,-0.0151,0.0064,-2.1766,1.4577,3.0150
2024-10-11T12:44:59.370Z,0.0156,-1.0009,0.1105,-0.0551,0.0180,-0.0306,-0.0140,-0.0112,0.0053,-2.1781,1.4580,3.0160
2024-10-11T12:44:59.380Z,0.0138,-0.9857,0.1181,-0.0551,0.0180,-0.0306,-0.0161,-0.0064,0.0066,-2.1781,1.4580,3.0160
2024-10-11T12:44:59.391Z,0.0146,-0.9795,0.1204,-0.0551,0.0180,-0.0306,-0.0172,-0.0085,0.0062,-2.1781,1.4580,3.0160
2024-10-11T12:44:59.400Z,0.0149,-0.9793,0.1196,-0.0097,-0.1414,-0.0824,-0.0155,-0.0129,0.0077,-2.1797,1.4585,3.0170
2024-10-11T12:44:59.410Z,0.0125,-0.9812,0.1163,-0.0097,-0.1414,-0.0824,-0.0135,-0.0104,0.0071,-2.1797,1.4585,3.0170
2024-10-11T12:44:59.420Z,0.0145,-0.9855,0.1038,-0.0097,-0.1414,-0.0824,-0.0161,-0.0140,0.0075,-2.1797,1.4585,3.0170
2024-10-11T12:44:59.431Z,0.0112,-0.9812,0.1096,0.0253,-0.1228,0.0109,-0.0166,-0.0113,0.0080,-2.1812,1.4590,3.0180
2024-10-11T12:44:59.441Z,0.0111,-0.9726,0.1181,0.0253,-0.1228,0.0109,-0.0177,-0.0119,0.0061,-2.1812,1.4590,3.0180
2024-10-11T12:44:59.450Z,0.0089,-0.9701,0.1110,0.0253,-0.1228,0.0109,-0.0145,-0.0084,0.0042,-2.1812,1.4590,3.0180
2024-10-11T12:44:59.460Z,0.0089,-0.9701,0.1110,0.0712,-0.2220,0.0662,-0.0155,-0.0083,0.0045,-2.1825,1.4594,3.0187
2024-10-11T12:44:59.470Z,0.0146,-0.9696,0.0994,0.0712,-0.2220,0.0662,-0.0139,-0.0099,0.0061,-2.1825,1.4594,3.0187
2024-10-11T12:44:59.480Z,0.0151,-0.9654,0.0918,0.0712,-0.2220,0.0662,-0.0102,-0.0087,0.0035,-2.1825,1.4594,3.0187
2024-10-11T12:44:59.491Z,0.0151,-0.9654,0.0918,0.0413,-0.2271,0.3044,-0.0061,-0.0093,0.0045,-2.1839,1.4597,3.0196
2024-10-11T12:44:59.500Z,0.0066,-0.9754,0.0811,0.0413,-0.2271,0.3044,-0.0039,-0.0097,0.0033,-2.1839,1.4597,3.0196
2024-10-11T12:44:59.510Z,-0.0001,-0.9757,0.0897,0.0413,-0.2271,0.3044,0.0011,-0.0119,-0.0010,-2.1839,1.4597,3.0196
2024-10-11T12:44:59.521Z,0.0110,-0.9744,0.0940,0.0240,-0.1911,0.1568,0.0011,-0.0132,0.0013,-2.1845,1.4598,3.0195
2024-10-11T12:44:59.530Z,0.0159,-0.9745,0.0944,0.0240,-0.1911,0.1568,0.0021,-0.0101,0.0009,-2.1845,1.4598,3.0195
2024-10-11T12:44:59.541Z,0.0160,-0.9766,0.0933,0.0240,-0.1911,0.1568,0.0025,-0.0114,-0.0003,-2.1845,1.4598,3.0195
2024-10-11T12:44:59.550Z,0.0086,-0.9751,0.0985,0.0484,-0.1841,0.1129,0.0022,-0.0103,-0.0000,-2.1850,1.4597,3.0194
2024-10-11T12:44:59.559Z,0.0083,-0.9739,0.1012,0.0484,-0.1841,0.1129,0.0012,-0.0082,-0.0008,-2.1850,1.4597,3.0194
2024-10-11T12:44:59.570Z,0.0082,-0.9756,0.0958,0.0484,-0.1841,0.1129,0.0063,-0.0112,-0.0012,-2.1850,1.4597,3.0194
2024-10-11T12:44:59.580Z,0.0082,-0.9756,0.0958,0.0681,-0.1624,0.1654,0.0095,-0.0109,-0.0025,-2.1851,1.4596,3.0190
2024-10-11T12:44:59.591Z,0.0074,-0.9824,0.0953,0.0681,-0.1624,0.1654,0.0110,-0.0077,-0.0030,-2.1851,1.4596,3.0190
2024-10-11T12:44:59.600Z,0.0197,-0.9863,0.0950,0.0681,-0.1624,0.1654,0.0129,-0.0017,-0.0023,-2.1851,1.4596,3.0190
2024-10-11T12:44:59.610Z,0.0276,-0.9969,0.0911,-0.1374,0.0309,0.1907,0.0129,-0.0017,-0.0023,-2.1854,1.4592,3.0189
2024-10-11T12:44:59.620Z,0.0236,-1.0025,0.1008,-0.1374,0.0309,0.1907,0.0135,-0.0050,0.0014,-2.1854,1.4592,3.0189
2024-10-11T12:44:59.630Z,0.0236,-0.9987,0.1261,-0.1374,0.0309,0.1907,0.0115,-0.0012,0.0004,-2.1854,1.4592,3.0189
2024-10-11T12:44:59.640Z,0.0236,-0.9987,0.1261,-0.1595,-0.0079,-0.2486,0.0127,-0.0001,0.0058,-2.1864,1.4588,3.0196
2024-10-11T12:44:59.651Z,0.0270,-1.0009,0.1300,-0.1595,-0.0079,-0.2486,0.0087,0.0018,0.0039,-2.1864,1.4588,3.0196
2024-10-11T12:44:59.659Z,0.0235,-1.0111,0.1263,-0.1595,-0.0079,-0.2486,0.0078,0.0011,0.0053,-2.1864,1.4588,3.0196
2024-10-11T12:44:59.670Z,0.0214,-1.0196,0.1293,-0.0777,0.2543,-0.1785,0.0099,-0.0002,0.0072,-2.1880,1.4586,3.0210
2024-10-11T12:44:59.679Z,0.0142,-1.0198,0.1288,-0.0777,0.2543,-0.1785,0.0107,0.0008,0.0026,-2.1880,1.4586,3.0210
2024-10-11T12:44:59.690Z,0.0152,-1.0155,0.1207,-0.0777,0.2543,-0.1785,0.0061,0.0008,0.0041,-2.1880,1.4586,3.0210
2024-10-11T12:44:59.700Z,0.0203,-1.0090,0.1132,-0.0681,0.1507,-0.0176,0.0079,-0.0022,0.0045,-2.1893,1.4584,3.0220
2024-10-11T12:44:59.710Z,0.0165,-1.0065,0.1203,-0.0681,0.1507,-0.0176,0.0069,-0.0006,0.0056,-2.1893,1.4584,3.0220
2024-10-11T12:44:59.720Z,0.0167,-1.0159,0.1230,-0.0681,0.1507,-0.0176,0.0070,0.0010,0.0070,-2.1893,1.4584,3.0220
2024-10-11T12:44:59.730Z,0.0287,-1.0410,0.1117,-0.1510,0.4645,-0.0006,0.0100,0.0024,0.0055,-2.1907,1.4582,3.0232
2024-10-11T12:44:59.740Z,0.0166,-1.0541,0.1088,-0.1510,0.4645,-0.0006,0.0078,0.0018,0.0045,-2.1907,1.4582,3.0232
2024-10-11T12:44:59.750Z,0.0038,-1.0330,0.1308,-0.1510,0.4645,-0.0006,0.0010,0.0047,0.0043,-2.1907,1.4582,3.0232
2024-10-11T12:44:59.761Z,0.0167,-1.0134,0.1450,-0.0345,0.1940,-0.3266,-0.0032,0.0039,0.0033,-2.1919,1.4581,3.0242
2024-10-11T12:44:59.770Z,0.0290,-1.0165,0.1385,-0.0345,0.1940,-0.3266,-0.0069,0.0051,0.0048,-2.1919,1.4581,3.0242
2024-10-11T12:44:59.780Z,0.0194,-1.0191,0.1259,-0.0345,0.1940,-0.3266,-0.0081,0.0068,0.0054,-2.1919,1.4581,3.0242
2024-10-11T12:44:59.791Z,0.0194,-1.0191,0.1259,0.1653,0.1929,-0.1669,-0.0081,0.0068,0.0054,-2.1931,1.4583,3.0253
2024-10-11T12:44:59.800Z,0.0006,-1.0098,0.1309,0.1653,0.1929,-0.1669,-0.0107,0.0043,0.0036,-2.1931,1.4583,3.0253
2024-10-11T12:44:59.810Z,0.0240,-1.0058,0.1182,0.1653,0.1929,-0.1669,-0.0101,0.0056,0.0054,-2.1931,1.4583,3.0253
2024-10-11T12:44:59.821Z,0.0268,-1.0028,0.1079,-0.1364,0.0895,0.0322,-0.0113,0.0029,0.0065,-2.1942,1.4586,3.0263
2024-10-11T12:44:59.830Z,0.0141,-1.0022,0.1047,-0.1364,0.0895,0.0322,-0.0112,0.0006,0.0061,-2.1942,1.4586,3.0263
2024-10-11T12:44:59.841Z,-0.0004,-1.0032,0.1079,-0.1364,0.0895,0.0322,-0.0108,-0.0001,0.0014,-2.1942,1.4586,3.0263
2024-10-11T12:44:59.850Z,0.0076,-1.0187,0.1125,0.0513,0.2446,-0.0145,-0.0098,-0.0028,-0.0012,-2.1949,1.4588,3.0267
2024-10-11T12:44:59.860Z,0.0097,-1.0257,0.1079,0.0513,0.2446,-0.0145,-0.0132,-0.0008,-0.0021,-2.1949,1.4588,3.0267
2024-10-11T12:44:59.871Z,0.0135,-1.0080,0.1187,0.0513,0.2446,-0.0145,-0.0147,0.0021,-0.0016,-2.1949,1.4588,3.0267
2024-10-11T12:44:59.880Z,0.0174,-0.9818,0.1261,-0.0452,-0.1177,-0.1515,-0.0170,0.0019,0.0005,-2.1949,1.4592,3.0263
2024-10-11T12:44:59.890Z,0.0232,-0.9836,0.1106,-0.0452,-0.1177,-0.1515,-0.0187,-0.0005,-0.0004,-2.1949,1.4592,3.0263
2024-10-11T12:44:59.900Z,0.0086,-0.9882,0.0961,-0.0452,-0.1177,-0.1515,-0.0165,-0.0034,-0.0028,-2.1949,1.4592,3.0263
2024-10-11T12:44:59.910Z,0.0086,-0.9882,0.0961,0.1506,-0.0736,0.1886,-0.0143,-0.0060,-0.0029,-2.1943,1.4596,3.0254
2024-10-11T12:44:59.920Z,0.0015,-0.9853,0.0833,0.1506,-0.0736,0.1886,-0.0086,-0.0068,-0.0041,-2.1943,1.4596,3.0254
2024-10-11T12:44:59.930Z,0.0125,-0.9933,0.0778,0.1506,-0.0736,0.1886,-0.0102,-0.0017,-0.0015,-2.1943,1.4596,3.0254
2024-10-11T12:44:59.941Z,0.0196,-0.9896,0.0825,-0.0646,-0.0414,0.2688,-0.0073,-0.0040,-0.0046,-2.1931,1.4599,3.0239
2024-10-11T12:44:59.949Z,0.0118,-0.9853,0.0878,-0.0646,-0.0414,0.2688,-0.0038,-0.0025,-0.0021,-2.1931,1.4599,3.0239
2024-10-11T12:44:59.960Z,0.0165,-0.9827,0.1051,-0.0646,-0.0414,0.2688,-0.0076,-0.0022,-0.0039,-2.1931,1.4599,3.0239
2024-10-11T12:44:59.970Z,0.0115,-0.9822,0.1158,0.0166,-0.1146,-0.0597,-0.0075,-0.0043,-0.0029,-2.1918,1.4601,3.0223
2024-10-11T12:44:59.980Z,0.0000,-0.9974,0.1150,0.0166,-0.1146,-0.0597,-0.0073,-0.0013,-0.0064,-2.1918,1.4601,3.0223
2024-10-11T12:44:59.990Z,0.0113,-1.0034,0.1146,0.0166,-0.1146,-0.0597,-0.0094,0.0022,-0.0072,-2.1918,1.4601,3.0223
2024-10-11T12:45:00.000Z,0.0238,-1.0002,0.1310,-0.1027,0.0612,-0.2116,-0.0130,0.0033,-0.0023,-2.1904,1.4604,3.0207
2024-10-11T12:45:00.011Z,0.0177,-0.9924,0.1363,-0.1027,0.0612,-0.2116,-0.0147,0.0051,-0.0074,-2.1904,1.4604,3.0207
2024-10-11T12:45:00.020Z,0.0048,-1.0009,0.1255,-0.1027,0.0612,-0.2116,-0.0106,0.0043,-0.0045,-2.1904,1.4604,3.0207
2024-10-11T12:45:00.030Z,0.0195,-1.0003,0.1142,-0.0598,0.0623,-0.0517,-0.0117,0.0076,-0.0033,-2.1888,1.4608,3.0190
2024-10-11T12:45:00.040Z,0.0211,-0.9998,0.1090,-0.0598,0.0623,-0.0517,-0.0110,0.0077,-0.0013,-2.1888,1.4608,3.0190
2024-10-11T12:45:00.050Z,0.0197,-0.9990,0.1023,-0.0598,0.0623,-0.0517,-0.0109,0.0139,-0.0029,-2.1888,1.4608,3.0190
2024-10-11T12:45:00.061Z,0.0243,-0.9999,0.1003,-0.1063,0.0583,0.0818,-0.0081,0.0076,-0.0011,-2.1881,1.4611,3.0183
2024-10-11T12:45:00.070Z,0.0286,-0.9971,0.0985,-0.1063,0.0583,0.0818,-0.0096,0.0128,0.0011,-2.1881,1.4611,3.0183
2024-10-11T12:45:00.080Z,0.0181,-0.9949,0.0940,-0.1063,0.0583,0.0818,-0.0089,0.0119,-0.0002,-2.1881,1.4611,3.0183
2024-10-11T12:45:00.092Z,0.0064,-0.9939,0.0977,0.0690,-0.0007,0.1058,-0.0055,0.0066,0.0009,-2.1883,1.4613,3.0185
2024-10-11T12:45:00.100Z,0.0050,-0.9973,0.0911,0.0690,-0.0007,0.1058,-0.0067,0.0102,-0.0015,-2.1883,1.4613,3.0185
2024-10-11T12:45:00.110Z,0.0053,-1.0056,0.0875,0.0690,-0.0007,0.1058,-0.0012,0.0082,-0.0028,-2.1883,1.4613,3.0185
2024-10-11T12:45:00.120Z,0.0130,-1.0107,0.0907,0.0039,0.1636,0.1731,-0.0015,0.0114,-0.0007,-2.1881,1.4614,3.0184
2024-10-11T12:45:00.130Z,0.0070,-1.0078,0.1016,0.0039,0.1636,0.1731,-0.0007,0.0145,-0.0035,-2.1881,1.4614,3.0184
2024-10-11T12:45:00.140Z,0.0099,-1.0116,0.1086,0.0039,0.1636,0.1731,0.0009,0.0143,-0.0035,-2.1881,1.4614,3.0184
2024-10-11T12:45:00.150Z,0.0166,-1.0216,0.0985,-0.0304,0.2710,0.0977,0.0051,0.0145,-0.0032,-2.1877,1.4613,3.0181
2024-10-11T12:45:00.161Z,0.0110,-1.0181,0.0882,-0.0304,0.2710,0.0977,0.0074,0.0151,-0.0040,-2.1877,1.4613,3.0181
2024-10-11T12:45:00.170Z,0.0038,-1.0096,0.0902,-0.0304,0.2710,0.0977,0.0096,0.0150,-0.0078,-2.1877,1.4613,3.0181
2024-10-11T12:45:00.180Z,0.0042,-1.0033,0.1020,0.0915,0.0914,0.0653,0.0046,0.0151,-0.0055,-2.1867,1.4611,3.0174
2024-10-11T12:45:00.191Z,0.0180,-1.0039,0.1178,0.0915,0.0914,0.0653,0.0066,0.0193,-0.0038,-2.1867,1.4611,3.0174
2024-10-11T12:45:00.200Z,0.0132,-1.0076,0.1216,0.0915,0.0914,0.0653,0.0022,0.0172,-0.0054,-2.1867,1.4611,3.0174
2024-10-11T12:45:00.210Z,0.0132,-1.0076,0.1216,0.0230,0.1028,-0.1803,0.0022,0.0172,-0.0054,-2.1855,1.4610,3.0164
2024-10-11T12:45:00.220Z,0.0101,-0.9970,0.1275,0.0230,0.1028,-0.1803,-0.0007,0.0095,-0.0076,-2.1855,1.4610,3.0164
2024-10-11T12:45:00.230Z,0.0133,-1.0019,0.1229,0.0230,0.1028,-0.1803,-0.0016,0.0119,-0.0089,-2.1855,1.4610,3.0164
2024-10-11T12:45:00.241Z,0.0110,-1.0090,0.1248,0.0274,0.1471,-0.1583,-0.0046,0.0138,-0.0075,-2.1839,1.4610,3.0149
2024-10-11T12:45:00.250Z,0.0121,-1.0168,0.1183,0.0274,0.1471,-0.1583,-0.0041,0.0133,-0.0055,-2.1839,1.4610,3.0149
2024-10-11T12:45:00.260Z,0.0143,-1.0127,0.1157,0.0274,0.1471,-0.1583,-0.0022,0.0108,-0.0073,-2.1839,1.4610,3.0149
2024-10-11T12:45:00.270Z,0.0201,-1.0082,0.1130,-0.0594,0.1394,-0.0428,-0.0054,0.0135,-0.0073,-2.1820,1.4611,3.0132
2024-10-11T12:45:00.280Z,0.0239,-0.9938,0.1088,-0.0594,0.1394,-0.0428,-0.0059,0.0117,-0.0029,-2.1820,1.4611,3.0132
2024-10-11T12:45:00.291Z,0.0246,-0.9755,0.1203,-0.0594,0.1394,-0.0428,-0.0099,0.0131,-0.0029,-2.1820,1.4611,3.0132
2024-10-11T12:45:00.300Z,0.0197,-0.9777,0.1243,-0.0545,-0.1602,-0.1556,-0.0092,0.0125,-0.0022,-2.1808,1.4613,3.0121
2024-10-11T12:45:00.309Z,0.0260,-0.9895,0.1224,-0.0545,-0.1602,-0.1556,-0.0124,0.0101,-0.0021,-2.1808,1.4613,3.0121
2024-10-11T12:45:00.320Z,0.0237,-1.0001,0.1226,-0.0545,-0.1602,-0.1556,-0.0114,0.0128,-0.0009,-2.1808,1.4613,3.0121
2024-10-11T12:45:00.330Z,0.0211,-1.0039,0.1307,-0.0683,0.0968,-0.2219,-0.0150,0.0144,-0.0029,-2.1802,1.4616,3.0116
2024-10-11T12:45:00.341Z,0.0240,-1.0062,0.1267,-0.0683,0.0968,-0.2219,-0.0133,0.0121,0.0006,-2.1802,1.4616,3.0116
2024-10-11T12:45:00.350Z,0.0206,-1.0073,0.1120,-0.0683,0.0968,-0.2219,-0.0132,0.0109,0.0013,-2.1802,1.4616,3.0116
2024-10-11T12:45:00.360Z,0.0230,-1.0067,0.1054,-0.0876,0.1237,0.0228,-0.0114,0.0124,0.0029,-2.1801,1.4619,3.0117
2024-10-11T12:45:00.370Z,0.0292,-1.0121,0.1168,-0.0876,0.1237,0.0228,-0.0142,0.0166,0.0019,-2.1801,1.4619,3.0117
2024-10-11T12:45:00.380Z,0.0162,-1.0102,0.1248,-0.0876,0.1237,0.0228,-0.0145,0.0179,0.0015,-2.1801,1.4619,3.0117
2024-10-11T12:45:00.391Z,0.0191,-1.0001,0.1197,-0.0504,0.0590,-0.1204,-0.0120,0.0179,0.0046,-2.1807,1.4622,3.0125
2024-10-11T12:45:00.400Z,0.0182,-0.9929,0.1154,-0.0504,0.0590,-0.1204,-0.0110,0.0168,0.0064,-2.1807,1.4622,3.0125
2024-10-11T12:45:00.410Z,0.0318,-0.9869,0.1165,-0.0504,0.0590,-0.1204,-0.0156,0.0176,0.0062,-2.1807,1.4622,3.0125
2024-10-11T12:45:00.420Z,0.0228,-0.9927,0.1225,-0.0892,-0.0141,-0.1495,-0.0101,0.0143,0.0079,-2.1821,1.4625,3.0141
2024-10-11T12:45:00.430Z,0.0108,-1.0069,0.1225,-0.0892,-0.0141,-0.1495,-0.0086,0.0159,0.0073,-2.1821,1.4625,3.0141
2024-10-11T12:45:00.441Z,0.0092,-1.0088,0.1291,-0.0892,-0.0141,-0.1495,-0.0106,0.0126,0.0055,-2.1821,1.4625,3.0141
2024-10-11T12:45:00.450Z,0.0158,-1.0107,0.1149,-0.0221,0.1622,-0.0784,-0.0105,0.0168,0.0038,-2.1830,1.4628,3.0153
2024-10-11T12:45:00.460Z,0.0222,-1.0062,0.1097,-0.0221,0.1622,-0.0784,-0.0085,0.0156,0.0054,-2.1830,1.4628,3.0153
2024-10-11T12:45:00.470Z,0.0219,-0.9981,0.1075,-0.0221,0.1622,-0.0784,-0.0076,0.0151,0.0059,-2.1830,1.4628,3.0153
2024-10-11T12:45:00.480Z,0.0189,-0.9912,0.1084,-0.0539,-0.0290,-0.0167,-0.0082,0.0165,0.0074,-2.1841,1.4630,3.0165
2024-10-11T12:45:00.491Z,0.0220,-0.9964,0.1055,-0.0539,-0.0290,-0.0167,-0.0042,0.0177,0.0038,-2.1841,1.4630,3.0165
2024-10-11T12:45:00.500Z,0.0052,-1.0097,0.0905,-0.0539,-0.0290,-0.0167,-0.0014,0.0142,0.0031,-2.1841,1.4630,3.0165
2024-10-11T12:45:00.510Z,0.0052,-1.0097,0.0905,-0.0621,0.0960,0.1943,0.0056,0.0110,0.0044,-2.1855,1.4630,3.0179
2024-10-11T12:45:00.520Z,0.0142,-0.9969,0.0915,-0.0621,0.0960,0.1943,0.0030,0.0143,0.0048,-2.1855,1.4630,3.0179
2024-10-11T12:45:00.531Z,0.0127,-0.9983,0.1007,-0.0621,0.0960,0.1943,0.0023,0.0122,0.0026,-2.1855,1.4630,3.0179
2024-10-11T12:45:00.542Z,0.0151,-0.9954,0.1044,-0.0189,0.0120,0.0244,0.0023,0.0081,0.0012,-2.1865,1.4629,3.0188
2024-10-11T12:45:00.550Z,0.0062,-1.0010,0.1082,-0.0189,0.0120,0.0244,0.0029,0.0018,0.0011,-2.1865,1.4629,3.0188
2024-10-11T12:45:00.560Z,0.0061,-1.0045,0.1210,-0.0189,0.0120,0.0244,0.0055,0.0034,-0.0009,-2.1865,1.4629,3.0188
2024-10-11T12:45:00.570Z,0.0114,-1.0075,0.1208,0.0173,0.1309,-0.1344,0.0018,0.0027,-0.0003,-2.1870,1.4627,3.0192
2024-10-11T12:45:00.580Z,0.0157,-1.0072,0.1084,0.0173,0.1309,-0.1344,0.0050,0.0105,0.0005,-2.1870,1.4627,3.0192
2024-10-11T12:45:00.591Z,0.0119,-1.0029,0.1033,0.0173,0.1309,-0.1344,0.0041,0.0074,0.0003,-2.1870,1.4627,3.0192
2024-10-11T12:45:00.600Z,0.0050,-0.9918,0.1040,0.0797,-0.0230,0.0319,0.0061,0.0066,-0.0005,-2.1874,1.4626,3.0195
2024-10-11T12:45:00.610Z,0.0044,-0.9910,0.1043,0.0797,-0.0230,0.0319,0.0070,0.0020,-0.0006,-2.1874,1.4626,3.0195
2024-10-11T12:45:00.620Z,0.0065,-0.9989,0.1071,0.0797,-0.0230,0.0319,0.0087,0.0108,-0.0025,-2.1874,1.4626,3.0195
2024-10-11T12:45:00.629Z,0.0024,-1.0020,0.1082,0.1061,0.0777,-0.0072,0.0083,0.0048,-0.0032,-2.1872,1.4623,3.0193
2024-10-11T12:45:00.641Z,0.0082,-0.9986,0.1089,0.1061,0.0777,-0.0072,0.0120,-0.0020,-0.0055,-2.1872,1.4623,3.0193
2024-10-11T12:45:00.650Z,-0.0036,-0.9966,0.1142,0.1061,0.0777,-0.0072,0.0084,-0.0014,-0.0079,-2.1872,1.4623,3.0193
2024-10-11T12:45:00.660Z,0.0017,-0.9901,0.1263,0.1147,-0.0393,-0.1824,0.0042,-0.0017,-0.0059,-2.1860,1.4620,3.0178
2024-10-11T12:45:00.670Z,0.0163,-0.9893,0.1332,0.1147,-0.0393,-0.1824,0.0037,-0.0001,-0.0066,-2.1860,1.4620,3.0178
2024-10-11T12:45:00.680Z,0.0058,-0.9911,0.1315,0.1147,-0.0393,-0.1824,0.0024,-0.0019,-0.0085,-2.1860,1.4620,3.0178
2024-10-11T12:45:00.690Z,0.0162,-0.9903,0.1236,-0.0254,-0.0368,-0.1544,0.0011,-0.0030,-0.0062,-2.1843,1.4619,3.0158
2024-10-11T12:45:00.700Z,0.0344,-0.9828,0.1235,-0.0254,-0.0368,-0.1544,0.0018,0.0032,-0.0047,-2.1843,1.4619,3.0158
2024-10-11T12:45:00.710Z,0.0267,-0.9736,0.1240,-0.0254,-0.0368,-0.1544,0.0011,0.0046,-0.0018,-2.1843,1.4619,3.0158
2024-10-11T12:45:00.720Z,0.0205,-0.9663,0.1188,-0.0672,-0.2722,-0.1076,0.0005,0.0031,-0.0014,-2.1840,1.4619,3.0154
2024-10-11T12:45:00.730Z,0.0250,-0.9631,0.1060,-0.0672,-0.2722,-0.1076,-0.0007,0.0065,0.0033,-2.1840,1.4619,3.0154
2024-10-11T12:45:00.741Z,0.0276,-0.9690,0.0996,-0.0672,-0.2722,-0.1076,0.0034,0.0097,-0.0014,-2.1840,1.4619,3.0154
2024-10-11T12:45:00.751Z,0.0101,-0.9715,0.1037,0.0341,-0.2217,0.0430,0.0065,0.0080,-0.0008,-2.1850,1.4617,3.0163
2024-10-11T12:45:00.760Z,0.0088,-0.9769,0.1093,0.0341,-0.2217,0.0430,0.0084,0.0050,-0.0024,-2.1850,1.4617,3.0163
2024-10-11T12:45:00.770Z,0.0086,-0.9811,0.1087,0.0341,-0.2217,0.0430,0.0103,0.0082,-0.0019,-2.1850,1.4617,3.0163
2024-10-11T12:45:00.780Z,0.0137,-0.9794,0.1139,-0.0000,-0.1432,-0.0542,0.0099,0.0086,-0.0033,-2.1847,1.4613,3.0160
2024-10-11T12:45:00.790Z,0.0215,-0.9670,0.1188,-0.0000,-0.1432,-0.0542,0.0121,0.0093,-0.0018,-2.1847,1.4613,3.0160
2024-10-11T12:45:00.800Z,0.0255,-0.9642,0.1174,-0.0000,-0.1432,-0.0542,0.0088,0.0082,-0.0014,-2.1847,1.4613,3.0160
2024-10-11T12:45:00.810Z,0.0154,-0.9569,0.1272,-0.0158,-0.3639,-0.1808,0.0102,0.0119,-0.0035,-2.1843,1.4609,3.0157
2024-10-11T12:45:00.820Z,0.0222,-0.9503,0.1258,-0.0158,-0.3639,-0.1808,0.0100,0.0132,-0.0019,-2.1843,1.4609,3.0157
2024-10-11T12:45:00.829Z,0.0270,-0.9532,0.1186,-0.0158,-0.3639,-0.1808,0.0130,0.0174,0.0005,-2.1843,1.4609,3.0157
2024-10-11T12:45:00.840Z,0.0208,-0.9596,0.1189,-0.0692,-0.3365,-0.0961,0.0093,0.0137,0.0001,-2.1845,1.4606,3.0160
2024-10-11T12:45:00.850Z,0.0171,-0.9666,0.1238,-0.0692,-0.3365,-0.0961,0.0110,0.0190,-0.0017,-2.1845,1.4606,3.0160
2024-10-11T12:45:00.859Z,0.0274,-0.9658,0.1236,-0.0692,-0.3365,-0.0961,0.0105,0.0170,-0.0020,-2.1845,1.4606,3.0160
2024-10-11T12:45:00.870Z,0.0173,-0.9662,0.1397,-0.0347,-0.2721,-0.2967,0.0054,0.0207,-0.0024,-2.1846,1.4602,3.0164
2024-10-11T12:45:00.880Z,0.0042,-0.9656,0.1643,-0.0347,-0.2721,-0.2967,-0.0022,0.0202,-0.0034,-2.1846,1.4602,3.0164
2024-10-11T12:45:00.890Z,0.0157,-0.9746,0.1646,-0.0347,-0.2721,-0.2967,-0.0070,0.0189,-0.0044,-2.1846,1.4602,3.0164
2024-10-11T12:45:00.900Z,0.0237,-0.9794,0.1557,-0.0968,-0.1426,-0.4539,-0.0108,0.0180,-0.0037,-2.1837,1.4602,3.0158
2024-10-11T12:45:00.909Z,0.0187,-0.9685,0.1496,-0.0968,-0.1426,-0.4539,-0.0169,0.0195,-0.0014,-2.1837,1.4602,3.0158
2024-10-11T12:45:00.920Z,0.0236,-0.9569,0.1398,-0.0968,-0.1426,-0.4539,-0.0186,0.0226,0.0016,-2.1837,1.4602,3.0158
2024-10-11T12:45:00.930Z,0.0251,-0.9537,0.1295,-0.1110,-0.3947,-0.2002,-0.0184,0.0184,0.0035,-2.1836,1.4606,3.0160
2024-10-11T12:45:00.940Z,0.0259,-0.9560,0.1154,-0.1110,-0.3947,-0.2002,-0.0172,0.0169,0.0041,-2.1836,1.4606,3.0160
2024-10-11T12:45:00.950Z,0.0210,-0.9581,0.0985,-0.1110,-0.3947,-0.2002,-0.0160,0.0201,0.0037,-2.1836,1.4606,3.0160
2024-10-11T12:45:00.959Z,0.0064,-0.9655,0.0919,0.0705,-0.2799,0.1644,-0.0186,0.0226,0.0065,-2.1846,1.4610,3.0173
2024-10-11T12:45:00.970Z,0.0119,-0.9672,0.0937,0.0705,-0.2799,0.1644,-0.0206,0.0158,0.0033,-2.1846,1.4610,3.0173
2024-10-11T12:45:00.980Z,0.0136,-0.9635,0.0884,0.0705,-0.2799,0.1644,-0.0186,0.0147,0.0039,-2.1846,1.4610,3.0173
2024-10-11T12:45:00.990Z,0.0229,-0.9682,0.0905,-0.0926,-0.2529,0.1750,-0.0191,0.0085,0.0052,-2.1855,1.4614,3.0184
2024-10-11T12:45:00.999Z,0.0152,-0.9757,0.0963,-0.0926,-0.2529,0.1750,-0.0208,0.0030,0.0055,-2.1855,1.4614,3.0184
2024-10-11T12:45:01.009Z,0.0034,-0.9808,0.1051,-0.0926,-0.2529,0.1750,-0.0217,-0.0013,0.0045,-2.1855,1.4614,3.0184
2024-10-11T12:45:01.019Z,0.0075,-0.9849,0.0952,0.0572,-0.0902,0.1233,-0.0211,-0.0026,0.0014,-2.1857,1.4620,3.0183
2024-10-11T12:45:01.030Z,0.0075,-0.9873,0.0928,0.0572,-0.0902,0.1233,-0.0249,-0.0052,0.0027,-2.1857,1.4620,3.0183
2024-10-11T12:45:01.040Z,0.0147,-0.9755,0.0972,0.0572,-0.0902,0.1233,-0.0241,-0.0140,0.0041,-2.1857,1.4620,3.0183
2024-10-11T12:45:01.050Z,0.0200,-0.9667,0.0983,-0.0654,-0.2694,0.0849,-0.0255,-0.0189,0.0033,-2.1859,1.4628,3.0179
2024-10-11T12:45:01.059Z,0.0125,-0.9664,0.1006,-0.0654,-0.2694,0.0849,-0.0316,-0.0207,0.0029,-2.1859,1.4628,3.0179
2024-10-11T12:45:01.070Z,0.0075,-0.9706,0.0981,-0.0654,-0.2694,0.0849,-0.0324,-0.0238,0.0042,-2.1859,1.4628,3.0179
2024-10-11T12:45:01.080Z,0.0015,-0.9691,0.0912,0.1159,-0.2474,0.1453,-0.0287,-0.0274,0.0012,-2.1857,1.4637,3.0168
2024-10-11T12:45:01.090Z,0.0067,-0.9648,0.0863,0.1159,-0.2474,0.1453,-0.0297,-0.0332,0.0011,-2.1857,1.4637,3.0168
2024-10-11T12:45:01.100Z,0.0074,-0.9597,0.0855,0.1159,-0.2474,0.1453,-0.0316,-0.0328,0.0008,-2.1857,1.4637,3.0168
2024-10-11T12:45:01.110Z,0.0113,-0.9621,0.0826,0.0198,-0.3166,0.2210,-0.0295,-0.0367,0.0020,-2.1853,1.4646,3.0152
2024-10-11T12:45:01.119Z,0.0132,-0.9595,0.0843,0.0198,-0.3166,0.2210,-0.0318,-0.0394,0.0014,-2.1853,1.4646,3.0152
2024-10-11T12:45:01.130Z,0.0126,-0.9515,0.0873,0.0198,-0.3166,0.2210,-0.0326,-0.0369,0.0025,-2.1853,1.4646,3.0152
2024-10-11T12:45:01.140Z,0.0173,-0.9459,0.0819,-0.0388,-0.4768,0.2183,-0.0295,-0.0399,0.0048,-2.1854,1.4656,3.0139
2024-10-11T12:45:01.150Z,0.0165,-0.9573,0.0625,-0.0388,-0.4768,0.2183,-0.0256,-0.0443,0.0059,-2.1854,1.4656,3.0139
2024-10-11T12:45:01.160Z,0.0174,-0.9578,0.0576,-0.0388,-0.4768,0.2183,-0.0238,-0.0433,0.0074,-2.1854,1.4656,3.0139
2024-10-11T12:45:01.170Z,0.0227,-0.9479,0.0622,-0.0917,-0.4579,0.4043,-0.0204,-0.0379,0.0066,-2.1866,1.4663,3.0136
2024-10-11T12:45:01.180Z,0.0265,-0.9545,0.0698,-0.0917,-0.4579,0.4043,-0.0153,-0.0432,0.0080,-2.1866,1.4663,3.0136
2024-10-11T12:45:01.191Z,0.0106,-0.9597,0.0747,-0.0917,-0.4579,0.4043,-0.0112,-0.0469,0.0070,-2.1866,1.4663,3.0136
2024-10-11T12:45:01.200Z,0.0075,-0.9669,0.0687,0.0562,-0.2715,0.3364,-0.0104,-0.0470,0.0060,-2.1887,1.4668,3.0140
2024-10-11T12:45:01.210Z,0.0151,-0.9646,0.0674,0.0562,-0.2715,0.3364,-0.0094,-0.0444,0.0079,-2.1887,1.4668,3.0140
2024-10-11T12:45:01.220Z,0.0240,-0.9627,0.0840,0.0562,-0.2715,0.3364,-0.0094,-0.0465,0.0109,-2.1887,1.4668,3.0140
2024-10-11T12:45:01.230Z,0.0235,-0.9664,0.0849,-0.1019,-0.2766,0.1745,-0.0098,-0.0555,0.0117,-2.1909,1.4671,3.0146
2024-10-11T12:45:01.240Z,0.0225,-0.9670,0.0889,-0.1019,-0.2766,0.1745,-0.0087,-0.0526,0.0115,-2.1909,1.4671,3.0146
2024-10-11T12:45:01.250Z,0.0197,-0.9600,0.0925,-0.1019,-0.2766,0.1745,-0.0086,-0.0517,0.0120,-2.1909,1.4671,3.0146
2024-10-11T12:45:01.260Z,0.0140,-0.9641,0.0896,-0.0103,-0.3001,0.1253,-0.0032,-0.0522,0.0123,-2.1939,1.4674,3.0159
2024-10-11T12:45:01.270Z,0.0216,-0.9750,0.0756,-0.0103,-0.3001,0.1253,-0.0022,-0.0539,0.0132,-2.1939,1.4674,3.0159
2024-10-11T12:45:01.280Z,0.0154,-0.9853,0.0650,-0.0103,-0.3001,0.1253,-0.0009,-0.0481,0.0123,-2.1939,1.4674,3.0159
2024-10-11T12:45:01.290Z,0.0120,-0.9763,0.0842,0.0067,-0.1800,0.1781,0.0014,-0.0551,0.0143,-2.1978,1.4674,3.0180
2024-10-11T12:45:01.300Z,-0.0005,-0.9748,0.1056,0.0067,-0.1800,0.1781,-0.0023,-0.0547,0.0111,-2.1978,1.4674,3.0180
2024-10-11T12:45:01.310Z,-0.0126,-0.9851,0.1082,0.0067,-0.1800,0.1781,-0.0009,-0.0604,0.0101,-2.1978,1.4674,3.0180
2024-10-11T12:45:01.320Z,-0.0081,-0.9905,0.0948,0.2028,-0.0413,0.0737,-0.0024,-0.0577,0.0080,-2.2015,1.4675,3.0196
2024-10-11T12:45:01.329Z,0.0049,-0.9907,0.0904,0.2028,-0.0413,0.0737,-0.0001,-0.0649,0.0105,-2.2015,1.4675,3.0196
2024-10-11T12:45:01.340Z,0.0023,-0.9874,0.1046,0.2028,-0.0413,0.0737,-0.0019,-0.0668,0.0085,-2.2015,1.4675,3.0196
2024-10-11T12:45:01.350Z,-0.0018,-0.9884,0.1073,0.1404,-0.0617,-0.0488,-0.0041,-0.0565,0.0112,-2.2041,1.4676,3.0202
2024-10-11T12:45:01.360Z,0.0131,-0.9909,0.0918,0.1404,-0.0617,-0.0488,-0.0055,-0.0501,0.0148,-2.2041,1.4676,3.0202
2024-10-11T12:45:01.369Z,0.0346,-0.9914,0.0862,0.1404,-0.0617,-0.0488,-0.0029,-0.0560,0.0186,-2.2041,1.4676,3.0202
2024-10-11T12:45:01.380Z,0.0137,-0.9854,0.0799,-0.0145,-0.0910,0.2186,-0.0007,-0.0586,0.0185,-2.2089,1.4677,3.0230
2024-10-11T12:45:01.390Z,-0.0025,-0.9816,0.0710,-0.0145,-0.0910,0.2186,-0.0014,-0.0566,0.0157,-2.2089,1.4677,3.0230
2024-10-11T12:45:01.400Z,0.0106,-0.9797,0.0649,-0.0145,-0.0910,0.2186,-0.0000,-0.0539,0.0142,-2.2089,1.4677,3.0230
2024-10-11T12:45:01.411Z,-0.0054,-0.9830,0.0638,0.1703,-0.1147,0.3766,-0.0006,-0.0582,0.0126,-2.2133,1.4678,3.0255
2024-10-11T12:45:01.420Z,-0.0146,-0.9805,0.0715,0.1703,-0.1147,0.3766,0.0040,-0.0640,0.0077,-2.2133,1.4678,3.0255
2024-10-11T12:45:01.430Z,-0.0112,-0.9826,0.0738,0.1703,-0.1147,0.3766,0.0061,-0.0676,0.0028,-2.2133,1.4678,3.0255
2024-10-11T12:45:01.440Z,-0.0027,-0.9889,0.0737,0.1437,-0.0569,0.2806,0.0103,-0.0704,0.0056,-2.2155,1.4676,3.0255
2024-10-11T12:45:01.450Z,0.0035,-0.9855,0.0852,0.1437,-0.0569,0.2806,0.0090,-0.0738,0.0036,-2.2155,1.4676,3.0255
2024-10-11T12:45:01.460Z,-0.0079,-0.9890,0.0894,0.1437,-0.0569,0.2806,0.0068,-0.0762,0.0007,-2.2155,1.4676,3.0255
2024-10-11T12:45:01.470Z,-0.0030,-0.9830,0.0927,0.1482,-0.1140,0.0966,0.0141,-0.0781,0.0015,-2.2161,1.4673,3.0237
2024-10-11T12:45:01.480Z,0.0277,-0.9780,0.0808,0.1482,-0.1140,0.0966,0.0125,-0.0805,0.0020,-2.2161,1.4673,3.0237
2024-10-11T12:45:01.490Z,0.0316,-0.9685,0.0713,0.1482,-0.1140,0.0966,0.0102,-0.0841,0.0030,-2.2161,1.4673,3.0237
2024-10-11T12:45:01.500Z,0.0173,-0.9579,0.0689,-0.0487,-0.3605,0.3337,0.0102,-0.0807,0.0020,-2.2174,1.4670,3.0224
2024-10-11T12:45:01.510Z,0.0108,-0.9547,0.0714,-0.0487,-0.3605,0.3337,0.0121,-0.0830,0.0037,-2.2174,1.4670,3.0224
2024-10-11T12:45:01.520Z,0.0143,-0.9614,0.0687,-0.0487,-0.3605,0.3337,0.0132,-0.0884,0.0034,-2.2174,1.4670,3.0224
2024-10-11T12:45:01.530Z,0.0116,-0.9732,0.0737,0.0093,-0.2098,0.2901,0.0127,-0.0917,0.0010,-2.2187,1.4666,3.0207
2024-10-11T12:45:01.540Z,0.0113,-0.9741,0.0840,0.0093,-0.2098,0.2901,0.0136,-0.0939,0.0008,-2.2187,1.4666,3.0207
2024-10-11T12:45:01.550Z,0.0083,-0.9685,0.1059,0.0093,-0.2098,0.2901,0.0103,-0.0895,-0.0017,-2.2187,1.4666,3.0207
2024-10-11T12:45:01.560Z,0.0180,-0.9697,0.1140,-0.0510,-0.2437,-0.1025,0.0071,-0.0871,0.0013,-2.2192,1.4662,3.0183
2024-10-11T12:45:01.570Z,0.0190,-0.9726,0.1116,-0.0510,-0.2437,-0.1025,0.0109,-0.0845,0.0027,-2.2192,1.4662,3.0183
2024-10-11T12:45:01.580Z,0.0245,-0.9674,0.1073,-0.0510,-0.2437,-0.1025,0.0109,-0.0808,0.0069,-2.2192,1.4662,3.0183
2024-10-11T12:45:01.590Z,0.0204,-0.9665,0.1054,-0.0722,-0.2746,-0.0144,0.0112,-0.0806,0.0044,-2.2210,1.4659,3.0172
2024-10-11T12:45:01.600Z,0.0103,-0.9649,0.0968,-0.0722,-0.2746,-0.0144,0.0160,-0.0758,0.0079,-2.2210,1.4659,3.0172
2024-10-11T12:45:01.611Z,0.0136,-0.9646,0.0766,-0.0722,-0.2746,-0.0144,0.0213,-0.0811,0.0065,-2.2210,1.4659,3.0172
2024-10-11T12:45:01.620Z,0.0106,-0.9601,0.0656,0.0244,-0.3369,0.3819,0.0268,-0.0835,0.0056,-2.2236,1.4653,3.0171
2024-10-11T12:45:01.630Z,0.0059,-0.9597,0.0711,0.0244,-0.3369,0.3819,0.0291,-0.0924,0.0059,-2.2236,1.4653,3.0171
2024-10-11T12:45:01.640Z,0.0075,-0.9610,0.0756,0.0244,-0.3369,0.3819,0.0368,-0.0946,0.0051,-2.2236,1.4653,3.0171
2024-10-11T12:45:01.650Z,-0.0014,-0.9656,0.0736,0.1437,-0.2817,0.3125,0.0347,-0.0900,0.0019,-2.2258,1.4643,3.0164
2024-10-11T12:45:01.660Z,-0.0050,-0.9682,0.0741,0.1437,-0.2817,0.3125,0.0389,-0.0967,-0.0013,-2.2258,1.4643,3.0164
2024-10-11T12:45:01.670Z,-0.0005,-0.9726,0.0779,0.1437,-0.2817,0.3125,0.0445,-0.1012,-0.0076,-2.2258,1.4643,3.0164
2024-10-11T12:45:01.679Z,0.0011,-0.9808,0.0843,0.1231,-0.1316,0.2190,0.0456,-0.0935,-0.0058,-2.2264,1.4631,3.0140
2024-10-11T12:45:01.690Z,0.0061,-0.9896,0.0881,0.1231,-0.1316,0.2190,0.0458,-0.0877,-0.0069,-2.2264,1.4631,3.0140
2024-10-11T12:45:01.699Z,0.0049,-0.9877,0.0945,0.1231,-0.1316,0.2190,0.0487,-0.0895,-0.0034,-2.2264,1.4631,3.0140
2024-10-11T12:45:01.710Z,0.0070,-0.9825,0.1018,0.0703,-0.1134,0.0611,0.0479,-0.0872,-0.0057,-2.2268,1.4616,3.0115
2024-10-11T12:45:01.720Z,-0.0058,-0.9911,0.1032,0.0703,-0.1134,0.0611,0.0512,-0.0800,-0.0056,-2.2268,1.4616,3.0115
2024-10-11T12:45:01.730Z,0.0002,-1.0022,0.1077,0.0703,-0.1134,0.0611,0.0480,-0.0762,-0.0079,-2.2268,1.4616,3.0115
2024-10-11T12:45:01.740Z,0.0021,-1.0063,0.1201,0.1227,0.1216,-0.1034,0.0499,-0.0756,-0.0102,-2.2270,1.4601,3.0091
2024-10-11T12:45:01.750Z,0.0016,-1.0107,0.1274,0.1227,0.1216,-0.1034,0.0440,-0.0681,-0.0084,-2.2270,1.4601,3.0091
2024-10-11T12:45:01.760Z,0.0036,-1.0133,0.1288,0.1227,0.1216,-0.1034,0.0444,-0.0683,-0.0088,-2.2270,1.4601,3.0091
2024-10-11T12:45:01.770Z,0.0002,-1.0157,0.1348,0.1459,0.2152,-0.2357,0.0384,-0.0727,-0.0095,-2.2263,1.4588,3.0061
2024-10-11T12:45:01.779Z,0.0118,-1.0153,0.1381,0.1459,0.2152,-0.2357,0.0377,-0.0663,-0.0102,-2.2263,1.4588,3.0061
2024-10-11T12:45:01.790Z,0.0190,-1.0176,0.1417,0.1459,0.2152,-0.2357,0.0278,-0.0636,-0.0097,-2.2263,1.4588,3.0061
2024-10-11T12:45:01.800Z,0.0155,-1.0284,0.1458,0.0017,0.3416,-0.3352,0.0200,-0.0600,-0.0073,-2.2250,1.4578,3.0026
2024-10-11T12:45:01.810Z,0.0211,-1.0343,0.1424,0.0017,0.3416,-0.3352,0.0187,-0.0658,-0.0075,-2.2250,1.4578,3.0026
2024-10-11T12:45:01.820Z,0.0151,-1.0329,0.1440,0.0017,0.3416,-0.3352,0.0140,-0.0610,-0.0082,-2.2250,1.4578,3.0026
2024-10-11T12:45:01.830Z,0.0048,-1.0301,0.1463,0.1107,0.3581,-0.3355,0.0121,-0.0592,-0.0067,-2.2236,1.4573,2.9991
2024-10-11T12:45:01.840Z,0.0017,-1.0385,0.1399,0.1107,0.3581,-0.3355,0.0117,-0.0561,-0.0079,-2.2236,1.4573,2.9991
2024-10-11T12:45:01.849Z,-0.0031,-1.0471,0.1365,0.1107,0.3581,-0.3355,0.0117,-0.0549,-0.0110,-2.2236,1.4573,2.9991
2024-10-11T12:45:01.860Z,0.0042,-1.0473,0.1358,0.1211,0.5272,-0.2285,0.0114,-0.0545,-0.0112,-2.2217,1.4569,2.9953
2024-10-11T12:45:01.870Z,0.0053,-1.0483,0.1393,0.1211,0.5272,-0.2285,0.0129,-0.0436,-0.0098,-2.2217,1.4569,2.9953
2024-10-11T12:45:01.880Z,0.0035,-1.0607,0.1344,0.1211,0.5272,-0.2285,0.0128,-0.0482,-0.0126,-2.2217,1.4569,2.9953
2024-10-11T12:45:01.890Z,0.0129,-1.0743,0.1243,0.0409,0.7928,-0.1124,0.0130,-0.0438,-0.0090,-2.2194,1.4564,2.9914
2024-10-11T12:45:01.900Z,0.0256,-1.0793,0.1181,0.0409,0.7928,-0.1124,0.0168,-0.0402,-0.0064,-2.2194,1.4564,2.9914
2024-10-11T12:45:01.910Z,0.0368,-1.0822,0.1249,0.0409,0.7928,-0.1124,0.0150,-0.0335,-0.0051,-2.2194,1.4564,2.9914
2024-10-11T12:45:01.920Z,0.0318,-1.0836,0.1364,-0.1411,0.8843,-0.2265,0.0125,-0.0374,-0.0035,-2.2187,1.4559,2.9894
2024-10-11T12:45:01.930Z,0.0310,-1.0874,0.1441,-0.1411,0.8843,-0.2265,0.0066,-0.0392,-0.0003,-2.2187,1.4559,2.9894
2024-10-11T12:45:01.940Z,0.0359,-1.0908,0.1450,-0.1411,0.8843,-0.2265,-0.0010,-0.0296,0.0043,-2.2187,1.4559,2.9894
2024-10-11T12:45:01.950Z,0.0252,-1.0976,0.1508,-0.0762,1.0221,-0.3675,-0.0026,-0.0296,0.0047,-2.2192,1.4558,2.9888
2024-10-11T12:45:01.960Z,0.0207,-1.1045,0.1606,-0.0762,1.0221,-0.3675,-0.0089,-0.0270,0.0046,-2.2192,1.4558,2.9888
2024-10-11T12:45:01.970Z,0.0116,-1.1113,0.1632,-0.0762,1.0221,-0.3675,-0.0143,-0.0185,0.0018,-2.2192,1.4558,2.9888
2024-10-11T12:45:01.980Z,0.0180,-1.1017,0.1692,-0.0052,1.0618,-0.5520,-0.0228,-0.0031,0.0045,-2.2196,1.4562,2.9884
2024-10-11T12:45:01.990Z,0.0310,-1.0932,0.1746,-0.0052,1.0618,-0.5520,-0.0283,-0.0020,0.0066,-2.2196,1.4562,2.9884
2024-10-11T12:45:02.000Z,0.0355,-1.0865,0.1692,-0.0052,1.0618,-0.5520,-0.0335,0.0026,0.0117,-2.2196,1.4562,2.9884
2024-10-11T12:45:02.010Z,0.0430,-1.0846,0.1502,-0.2536,0.8932,-0.3745,-0.0387,0.0108,0.0146,-2.2211,1.4572,2.9896
2024-10-11T12:45:02.019Z,0.0361,-1.0790,0.1465,-0.2536,0.8932,-0.3745,-0.0428,0.0196,0.0168,-2.2211,1.4572,2.9896
2024-10-11T12:45:02.030Z,0.0370,-1.0766,0.1400,-0.2536,0.8932,-0.3745,-0.0499,0.0253,0.0209,-2.2211,1.4572,2.9896
2024-10-11T12:45:02.040Z,0.0288,-1.0797,0.1321,-0.1201,0.8435,-0.2091,-0.0519,0.0273,0.0214,-2.2245,1.4586,2.9934
2024-10-11T12:45:02.050Z,0.0284,-1.0825,0.1223,-0.1201,0.8435,-0.2091,-0.0516,0.0271,0.0224,-2.2245,1.4586,2.9934
2024-10-11T12:45:02.061Z,0.0272,-1.0870,0.1092,-0.1201,0.8435,-0.2091,-0.0522,0.0310,0.0213,-2.2245,1.4586,2.9934
2024-10-11T12:45:02.070Z,0.0150,-1.0849,0.1107,0.0080,0.8931,-0.0141,-0.0579,0.0307,0.0201,-2.2282,1.4602,2.9977
2024-10-11T12:45:02.079Z,0.0015,-1.0809,0.1190,0.0080,0.8931,-0.0141,-0.0560,0.0275,0.0159,-2.2282,1.4602,2.9977
2024-10-11T12:45:02.090Z,-0.0055,-1.0816,0.1276,0.0080,0.8931,-0.0141,-0.0635,0.0328,0.0109,-2.2282,1.4602,2.9977
2024-10-11T12:45:02.100Z,0.0028,-1.0894,0.1288,0.1240,0.9355,-0.2089,-0.0647,0.0319,0.0088,-2.2292,1.4619,2.9994
2024-10-11T12:45:02.110Z,0.0178,-1.0845,0.1342,0.1240,0.9355,-0.2089,-0.0697,0.0304,0.0086,-2.2292,1.4619,2.9994
2024-10-11T12:45:02.120Z,0.0436,-1.0732,0.1341,0.1240,0.9355,-0.2089,-0.0777,0.0348,0.0094,-2.2292,1.4619,2.9994
2024-10-11T12:45:02.130Z,0.0493,-1.0742,0.1359,-0.3364,0.7836,-0.2998,-0.0817,0.0376,0.0134,-2.2293,1.4642,3.0002
2024-10-11T12:45:02.140Z,0.0627,-1.0777,0.1362,-0.3364,0.7836,-0.2998,-0.0885,0.0337,0.0174,-2.2293,1.4642,3.0002
2024-10-11T12:45:02.150Z,0.0562,-1.0753,0.1375,-0.3364,0.7836,-0.2998,-0.0951,0.0388,0.0203,-2.2293,1.4642,3.0002
2024-10-11T12:45:02.160Z,0.0425,-1.0700,0.1242,-0.2762,0.7399,-0.2118,-0.0952,0.0386,0.0238,-2.2312,1.4670,3.0030
2024-10-11T12:45:02.170Z,0.0439,-1.0578,0.1109,-0.2762,0.7399,-0.2118,-0.0989,0.0380,0.0259,-2.2312,1.4670,3.0030
2024-10-11T12:45:02.180Z,0.0255,-1.0564,0.1022,-0.2762,0.7399,-0.2118,-0.0963,0.0310,0.0257,-2.2312,1.4670,3.0030
2024-10-11T12:45:02.190Z,0.0168,-1.0549,0.0936,-0.0332,0.5880,0.0601,-0.0967,0.0285,0.0301,-2.2355,1.4700,3.0081
2024-10-11T12:45:02.200Z,0.0077,-1.0544,0.0901,-0.0332,0.5880,0.0601,-0.0952,0.0364,0.0288,-2.2355,1.4700,3.0081
2024-10-11T12:45:02.210Z,0.0224,-1.0498,0.0889,-0.0332,0.5880,0.0601,-0.0947,0.0333,0.0301,-2.2355,1.4700,3.0081
2024-10-11T12:45:02.220Z,0.0128,-1.0543,0.0814,-0.0038,0.5793,0.1530,-0.0911,0.0338,0.0311,-2.2411,1.4728,3.0143
2024-10-11T12:45:02.230Z,0.0098,-1.0475,0.0745,-0.0038,0.5793,0.1530,-0.0887,0.0346,0.0311,-2.2411,1.4728,3.0143
2024-10-11T12:45:02.240Z,0.0134,-1.0422,0.0823,-0.0038,0.5793,0.1530,-0.0876,0.0362,0.0322,-2.2411,1.4728,3.0143
2024-10-11T12:45:02.250Z,0.0187,-1.0250,0.0751,-0.0726,0.2894,0.1894,-0.0838,0.0359,0.0343,-2.2486,1.4755,3.0224
2024-10-11T12:45:02.260Z,0.0199,-1.0280,0.0668,-0.0726,0.2894,0.1894,-0.0816,0.0353,0.0367,-2.2486,1.4755,3.0224
2024-10-11T12:45:02.270Z,0.0082,-1.0211,0.0526,-0.0726,0.2894,0.1894,-0.0797,0.0311,0.0353,-2.2486,1.4755,3.0224
2024-10-11T12:45:02.279Z,0.0110,-1.0225,0.0481,-0.0083,0.2626,0.4317,-0.0721,0.0216,0.0370,-2.2577,1.4780,3.0321
2024-10-11T12:45:02.290Z,0.0096,-1.0226,0.0343,-0.0083,0.2626,0.4317,-0.0680,0.0170,0.0338,-2.2577,1.4780,3.0321
2024-10-11T12:45:02.300Z,0.0101,-1.0255,0.0374,-0.0083,0.2626,0.4317,-0.0596,0.0109,0.0302,-2.2577,1.4780,3.0321
2024-10-11T12:45:02.311Z,0.0096,-1.0331,0.0362,-0.0045,0.3655,0.5312,-0.0525,0.0062,0.0285,-2.2663,1.4799,3.0408
2024-10-11T12:45:02.320Z,0.0132,-1.0382,0.0538,-0.0045,0.3655,0.5312,-0.0480,0.0104,0.0270,-2.2663,1.4799,3.0408
2024-10-11T12:45:02.330Z,0.0125,-1.0349,0.0764,-0.0045,0.3655,0.5312,-0.0455,0.0133,0.0230,-2.2663,1.4799,3.0408
2024-10-11T12:45:02.340Z,0.0187,-1.0309,0.0862,-0.1017,0.3429,0.0280,-0.0415,0.0168,0.0254,-2.2737,1.4813,3.0483
2024-10-11T12:45:02.350Z,0.0099,-1.0222,0.0951,-0.1017,0.3429,0.0280,-0.0408,0.0247,0.0255,-2.2737,1.4813,3.0483
2024-10-11T12:45:02.360Z,0.0089,-1.0180,0.1096,-0.1017,0.3429,0.0280,-0.0399,0.0268,0.0229,-2.2737,1.4813,3.0483
2024-10-11T12:45:02.370Z,0.0094,-1.0192,0.1133,-0.0186,0.2268,-0.2500,-0.0410,0.0259,0.0262,-2.2813,1.4825,3.0564
2024-10-11T12:45:02.380Z,0.0123,-1.0280,0.1189,-0.0186,0.2268,-0.2500,-0.0391,0.0204,0.0255,-2.2813,1.4825,3.0564
2024-10-11T12:45:02.390Z,-0.0000,-1.0246,0.1239,-0.0186,0.2268,-0.2500,-0.0421,0.0213,0.0192,-2.2813,1.4825,3.0564
2024-10-11T12:45:02.400Z,-0.0049,-1.0317,0.1324,0.1158,0.3484,-0.4491,-0.0451,0.0236,0.0141,-2.2870,1.4838,3.0626
2024-10-11T12:45:02.411Z,-0.0058,-1.0361,0.1352,0.1158,0.3484,-0.4491,-0.0474,0.0272,0.0114,-2.2870,1.4838,3.0626
2024-10-11T12:45:02.420Z,0.0017,-1.0343,0.1372,0.1158,0.3484,-0.4491,-0.0507,0.0282,0.0078,-2.2870,1.4838,3.0626
2024-10-11T12:45:02.430Z,0.0166,-1.0394,0.1355,-0.0988,0.4222,-0.4931,-0.0507,0.0293,0.0062,-2.2894,1.4853,3.0654
2024-10-11T12:45:02.440Z,0.0273,-1.0476,0.1398,-0.0988,0.4222,-0.4931,-0.0515,0.0280,0.0059,-2.2894,1.4853,3.0654
2024-10-11T12:45:02.450Z,0.0280,-1.0447,0.1397,-0.0988,0.4222,-0.4931,-0.0506,0.0249,0.0064,-2.2894,1.4853,3.0654
2024-10-11T12:45:02.461Z,0.0238,-1.0338,0.1388,-0.1716,0.3657,-0.5403,-0.0477,0.0168,0.0066,-2.2904,1.4868,3.0669
2024-10-11T12:45:02.470Z,0.0308,-1.0339,0.1353,-0.1716,0.3657,-0.5403,-0.0448,0.0121,0.0049,-2.2904,1.4868,3.0669
2024-10-11T12:45:02.480Z,0.0388,-1.0326,0.1304,-0.1716,0.3657,-0.5403,-0.0404,0.0020,0.0053,-2.2904,1.4868,3.0669
2024-10-11T12:45:02.490Z,0.0316,-1.0307,0.1309,-0.2500,0.3351,-0.4745,-0.0336,-0.0040,0.0026,-2.2916,1.4879,3.0680
2024-10-11T12:45:02.501Z,0.0250,-1.0277,0.1247,-0.2500,0.3351,-0.4745,-0.0300,-0.0102,-0.0007,-2.2916,1.4879,3.0680
2024-10-11T12:45:02.513Z,0.0228,-1.0227,0.1270,-0.0268,0.2699,-0.3946,-0.0219,-0.0154,-0.0019,-2.2903,1.4885,3.0660
2024-10-11T12:45:02.520Z,0.0089,-1.0241,0.1222,-0.0268,0.2699,-0.3946,-0.0107,-0.0164,-0.0090,-2.2903,1.4885,3.0660
2024-10-11T12:45:02.530Z,0.0055,-1.0290,0.1138,-0.0268,0.2699,-0.3946,-0.0024,-0.0083,-0.0117,-2.2903,1.4885,3.0660
2024-10-11T12:45:02.540Z,0.0133,-1.0278,0.1168,-0.0268,0.2699,-0.3946,0.0007,-0.0050,-0.0128,-2.2903,1.4885,3.0660
2024-10-11T12:45:02.550Z,0.0184,-1.0234,0.1277,-0.1159,0.2627,-0.4468,0.0136,-0.0038,-0.0134,-2.2859,1.4883,3.0611
2024-10-11T12:45:02.561Z,0.0193,-1.0274,0.1293,-0.1159,0.2627,-0.4468,0.0196,-0.0039,-0.0139,-2.2859,1.4883,3.0611
2024-10-11T12:45:02.570Z,0.0279,-1.0321,0.1273,-0.1159,0.2627,-0.4468,0.0252,0.0020,-0.0148,-2.2859,1.4883,3.0611
2024-10-11T12:45:02.580Z,0.0299,-1.0320,0.1324,-0.2233,0.3475,-0.4847,0.0317,0.0006,-0.0139,-2.2811,1.4874,3.0561
2024-10-11T12:45:02.590Z,0.0276,-1.0338,0.1414,-0.2233,0.3475,-0.4847,0.0391,-0.0064,-0.0167,-2.2811,1.4874,3.0561
2024-10-11T12:45:02.600Z,0.0203,-1.0348,0.1435,-0.2233,0.3475,-0.4847,0.0431,-0.0173,-0.0158,-2.2811,1.4874,3.0561
2024-10-11T12:45:02.611Z,0.0130,-1.0265,0.1465,-0.0530,0.2956,-0.6094,0.0470,-0.0197,-0.0189,-2.2768,1.4860,3.0513
2024-10-11T12:45:02.620Z,0.0083,-1.0150,0.1531,-0.0530,0.2956,-0.6094,0.0534,-0.0279,-0.0186,-2.2768,1.4860,3.0513
2024-10-11T12:45:02.630Z,0.0137,-1.0083,0.1469,-0.0530,0.2956,-0.6094,0.0555,-0.0305,-0.0187,-2.2768,1.4860,3.0513
2024-10-11T12:45:02.640Z,0.0162,-1.0010,0.1436,-0.0770,0.0468,-0.5640,0.0606,-0.0332,-0.0199,-2.2720,1.4842,3.0454
2024-10-11T12:45:02.650Z,0.0132,-0.9930,0.1418,-0.0770,0.0468,-0.5640,0.0596,-0.0308,-0.0213,-2.2720,1.4842,3.0454
2024-10-11T12:45:02.663Z,0.0112,-0.9812,0.1390,-0.0424,-0.3326,-0.5129,0.0643,-0.0384,-0.0235,-2.2664,1.4822,3.0385
2024-10-11T12:45:02.670Z,0.0134,-0.9622,0.1403,-0.0424,-0.3326,-0.5129,0.0643,-0.0384,-0.0235,-2.2664,1.4822,3.0385
2024-10-11T12:45:02.681Z,0.0218,-0.9471,0.1312,-0.0424,-0.3326,-0.5129,0.0674,-0.0353,-0.0231,-2.2664,1.4822,3.0385
2024-10-11T12:45:02.691Z,0.0377,-0.9448,0.1247,-0.0424,-0.3326,-0.5129,0.0745,-0.0454,-0.0196,-2.2664,1.4822,3.0385
2024-10-11T12:45:02.701Z,0.0284,-0.9413,0.1223,-0.1821,-0.5356,-0.3153,0.0775,-0.0538,-0.0233,-2.2619,1.4800,3.0326
2024-10-11T12:45:02.710Z,0.0192,-0.9462,0.1230,-0.1821,-0.5356,-0.3153,0.0775,-0.0538,-0.0233,-2.2619,1.4800,3.0326
2024-10-11T12:45:02.720Z,0.0150,-0.9563,0.1118,-0.1821,-0.5356,-0.3153,0.0831,-0.0656,-0.0251,-2.2619,1.4800,3.0326
2024-10-11T12:45:02.730Z,0.0212,-0.9630,0.1017,-0.1019,-0.3201,-0.0905,0.0815,-0.0759,-0.0275,-2.2570,1.4776,3.0255
2024-10-11T12:45:02.741Z,0.0228,-0.9591,0.1024,-0.1019,-0.3201,-0.0905,0.0829,-0.1083,-0.0266,-2.2570,1.4776,3.0255
2024-10-11T12:45:02.752Z,0.0213,-0.9556,0.0964,-0.1019,-0.3201,-0.0905,0.0786,-0.1156,-0.0243,-2.2570,1.4776,3.0255
2024-10-11T12:45:02.761Z,0.0310,-0.9481,0.0902,-0.1877,-0.4646,0.0461,0.0772,-0.1257,-0.0235,-2.2518,1.4750,3.0170
2024-10-11T12:45:02.770Z,0.0366,-0.9416,0.0819,-0.1877,-0.4646,0.0461,0.0772,-0.1257,-0.0235,-2.2518,1.4750,3.0170
2024-10-11T12:45:02.782Z,0.0406,-0.9403,0.0792,-0.1877,-0.4646,0.0461,0.0777,-0.1373,-0.0167,-2.2518,1.4750,3.0170
2024-10-11T12:45:02.789Z,0.0414,-0.9446,0.0715,-0.2802,-0.4965,0.2526,0.0777,-0.1373,-0.0167,-2.2489,1.4726,3.0101
2024-10-11T12:45:02.802Z,0.0406,-0.9457,0.0668,-0.2802,-0.4965,0.2526,0.0749,-0.1288,-0.0117,-2.2489,1.4726,3.0101
2024-10-11T12:45:02.811Z,0.0340,-0.9469,0.0607,-0.2802,-0.4965,0.2526,0.0748,-0.1204,-0.0085,-2.2489,1.4726,3.0101
2024-10-11T12:45:02.821Z,0.0207,-0.9500,0.0723,-0.0696,-0.4413,0.2666,0.0788,-0.1178,-0.0078,-2.2488,1.4703,3.0059
2024-10-11T12:45:02.831Z,0.0142,-0.9475,0.0692,-0.0696,-0.4413,0.2666,0.0757,-0.1176,-0.0100,-2.2488,1.4703,3.0059
2024-10-11T12:45:02.841Z,0.0125,-0.9491,0.0649,-0.0696,-0.4413,0.2666,0.0712,-0.1225,-0.0133,-2.2488,1.4703,3.0059
2024-10-11T12:45:02.850Z,0.0120,-0.9481,0.0660,0.0225,-0.4570,0.3497,0.0716,-0.1191,-0.0141,-2.2488,1.4680,3.0021
2024-10-11T12:45:02.861Z,0.0049,-0.9415,0.0624,0.0225,-0.4570,0.3497,0.0688,-0.1143,-0.0201,-2.2488,1.4680,3.0021
2024-10-11T12:45:02.871Z,-0.0009,-0.9331,0.0550,0.0225,-0.4570,0.3497,0.0717,-0.1195,-0.0203,-2.2488,1.4680,3.0021
2024-10-11T12:45:02.879Z,-0.0033,-0.9367,0.0541,0.1803,-0.5669,0.4866,0.0717,-0.1195,-0.0203,-2.2473,1.4658,2.9968
2024-10-11T12:45:02.889Z,0.0085,-0.9339,0.0594,0.1803,-0.5669,0.4866,0.0679,-0.1253,-0.0202,-2.2473,1.4658,2.9968
2024-10-11T12:45:02.900Z,0.0110,-0.9269,0.0564,0.1803,-0.5669,0.4866,0.0675,-0.1331,-0.0216,-2.2473,1.4658,2.9968
2024-10-11T12:45:02.910Z,0.0090,-0.9154,0.0581,0.0704,-0.7740,0.4662,0.0651,-0.1349,-0.0223,-2.2444,1.4637,2.9899
2024-10-11T12:45:02.921Z,0.0041,-0.9032,0.0567,0.0704,-0.7740,0.4662,0.0600,-0.1312,-0.0292,-2.2444,1.4637,2.9899
2024-10-11T12:45:02.930Z,0.0090,-0.8932,0.0531,0.0704,-0.7740,0.4662,0.0600,-0.1312,-0.0292,-2.2444,1.4637,2.9899
2024-10-11T12:45:02.941Z,0.0070,-0.8965,0.0526,0.1010,-0.9575,0.5391,0.0662,-0.1383,-0.0288,-2.2404,1.4617,2.9817
2024-10-11T12:45:02.950Z,0.0034,-0.9052,0.0559,0.1010,-0.9575,0.5391,0.0664,-0.1449,-0.0326,-2.2404,1.4617,2.9817
2024-10-11T12:45:02.961Z,0.0036,-0.9078,0.0619,0.1010,-0.9575,0.5391,0.0712,-0.1505,-0.0312,-2.2404,1.4617,2.9817
2024-10-11T12:45:02.970Z,0.0042,-0.9113,0.0669,0.1422,-0.8090,0.4171,0.0684,-0.1513,-0.0281,-2.2356,1.4595,2.9725
2024-10-11T12:45:02.979Z,0.0176,-0.9090,0.0817,0.1422,-0.8090,0.4171,0.0684,-0.1513,-0.0281,-2.2356,1.4595,2.9725
2024-10-11T12:45:02.991Z,0.0383,-0.9009,0.1005,0.1422,-0.8090,0.4171,0.0679,-0.1621,-0.0237,-2.2356,1.4595,2.9725
2024-10-11T12:45:03.001Z,0.0381,-0.8983,0.1268,-0.1774,-0.9347,-0.1501,0.0659,-0.1686,-0.0211,-2.2317,1.4573,2.9636
2024-10-11T12:45:03.011Z,0.0499,-0.9026,0.1410,-0.1774,-0.9347,-0.1501,0.0556,-0.1700,-0.0147,-2.2317,1.4573,2.9636
2024-10-11T12:45:03.020Z,0.0589,-0.9029,0.1474,-0.1774,-0.9347,-0.1501,0.0541,-0.1729,-0.0093,-2.2317,1.4573,2.9636
2024-10-11T12:45:03.030Z,0.0511,-0.8987,0.1486,-0.2947,-0.9282,-0.3483,0.0511,-0.1729,-0.0090,-2.2304,1.4555,2.9571
2024-10-11T12:45:03.040Z,0.0343,-0.8951,0.1564,-0.2947,-0.9282,-0.3483,0.0504,-0.1764,-0.0068,-2.2304,1.4555,2.9571
2024-10-11T12:45:03.050Z,0.0278,-0.8951,0.1470,-0.2947,-0.9282,-0.3483,0.0512,-0.1737,-0.0051,-2.2304,1.4555,2.9571
2024-10-11T12:45:03.060Z,0.0288,-0.8965,0.1401,-0.0667,-0.9485,-0.2504,0.0536,-0.1750,-0.0042,-2.2311,1.4539,2.9522
2024-10-11T12:45:03.070Z,0.0311,-0.8877,0.1445,-0.0667,-0.9485,-0.2504,0.0524,-0.1715,-0.0028,-2.2311,1.4539,2.9522
2024-10-11T12:45:03.080Z,0.0311,-0.8877,0.1445,-0.0667,-0.9485,-0.2504,0.0483,-0.1675,0.0008,-2.2311,1.4539,2.9522
2024-10-11T12:45:03.090Z,0.0214,-0.8823,0.1546,0.0128,-1.0854,-0.3778,0.0512,-0.1586,0.0021,-2.2329,1.4523,2.9486
2024-10-11T12:45:03.100Z,0.0287,-0.8824,0.1541,0.0128,-1.0854,-0.3778,0.0509,-0.1547,0.0032,-2.2329,1.4523,2.9486
2024-10-11T12:45:03.110Z,0.0364,-0.8758,0.1548,0.0128,-1.0854,-0.3778,0.0494,-0.1455,0.0061,-2.2329,1.4523,2.9486
2024-10-11T12:45:03.121Z,0.0307,-0.8642,0.1574,-0.0928,-1.2444,-0.4013,0.0490,-0.1392,0.0086,-2.2363,1.4508,2.9472
2024-10-11T12:45:03.130Z,0.0307,-0.8642,0.1574,-0.0928,-1.2444,-0.4013,0.0490,-0.1392,0.0086,-2.2363,1.4508,2.9472
2024-10-11T12:45:03.140Z,0.0291,-0.8702,0.1549,0.0107,-1.1963,-0.3305,0.0481,-0.1245,0.0100,-2.2410,1.4493,2.9476
2024-10-11T12:45:03.151Z,0.0100,-0.8674,0.1532,0.0107,-1.1963,-0.3305,0.0522,-0.1177,0.0092,-2.2410,1.4493,2.9476
2024-10-11T12:45:03.160Z,0.0100,-0.8674,0.1532,0.0107,-1.1963,-0.3305,0.0510,-0.1151,0.0035,-2.2410,1.4493,2.9476
2024-10-11T12:45:03.170Z,0.0078,-0.8692,0.1524,0.0107,-1.1963,-0.3305,0.0505,-0.1074,0.0051,-2.2410,1.4493,2.9476
2024-10-11T12:45:03.181Z,0.0100,-0.8715,0.1454,0.1329,-1.1869,-0.2457,0.0480,-0.0996,0.0050,-2.2451,1.4479,2.9480
2024-10-11T12:45:03.190Z,0.0057,-0.8653,0.1458,0.1329,-1.1869,-0.2457,0.0471,-0.0933,0.0040,-2.2451,1.4479,2.9480
2024-10-11T12:45:03.200Z,0.0050,-0.8556,0.1455,0.1329,-1.1869,-0.2457,0.0460,-0.0910,0.0067,-2.2451,1.4479,2.9480
2024-10-11T12:45:03.210Z,0.0119,-0.8500,0.1440,0.1166,-1.3956,-0.2188,0.0425,-0.0804,0.0031,-2.2485,1.4465,2.9483
2024-10-11T12:45:03.220Z,0.0167,-0.8571,0.1408,0.1166,-1.3956,-0.2188,0.0398,-0.0774,0.0079,-2.2485,1.4465,2.9483
2024-10-11T12:45:03.230Z,0.0208,-0.8577,0.1344,0.1166,-1.3956,-0.2188,0.0420,-0.0665,0.0068,-2.2485,1.4465,2.9483
2024-10-11T12:45:03.240Z,0.0202,-0.8524,0.1383,0.0367,-1.3706,-0.1510,0.0405,-0.0648,0.0057,-2.2522,1.4452,2.9493
2024-10-11T12:45:03.250Z,0.0158,-0.8534,0.1443,0.0367,-1.3706,-0.1510,0.0405,-0.0586,0.0010,-2.2522,1.4452,2.9493
2024-10-11T12:45:03.261Z,0.0135,-0.8594,0.1443,0.0878,-1.3531,-0.0659,0.0429,-0.0557,0.0048,-2.2555,1.4440,2.9505
2024-10-11T12:45:03.270Z,0.0151,-0.8540,0.1308,0.0878,-1.3531,-0.0659,0.0431,-0.0519,0.0056,-2.2555,1.4440,2.9505
2024-10-11T12:45:03.281Z,0.0143,-0.8534,0.1294,0.0878,-1.3531,-0.0659,0.0431,-0.0519,0.0056,-2.2555,1.4440,2.9505
2024-10-11T12:45:03.291Z,0.0143,-0.8534,0.1294,0.0525,-1.3158,0.0767,0.0434,-0.0523,0.0029,-2.2584,1.4428,2.9516
2024-10-11T12:45:03.300Z,0.0188,-0.8577,0.1175,0.0525,-1.3158,0.0767,0.0445,-0.0596,0.0057,-2.2584,1.4428,2.9516
2024-10-11T12:45:03.310Z,0.0230,-0.8539,0.1004,0.0525,-1.3158,0.0767,0.0445,-0.0596,0.0057,-2.2584,1.4428,2.9516
2024-10-11T12:45:03.321Z,0.0261,-0.8533,0.0923,-0.0185,-1.3570,0.3367,0.0420,-0.0606,0.0039,-2.2616,1.4416,2.9526
2024-10-11T12:45:03.330Z,0.0261,-0.8533,0.0923,-0.0185,-1.3570,0.3367,0.0436,-0.0625,0.0080,-2.2616,1.4416,2.9526
2024-10-11T12:45:03.341Z,0.0216,-0.8646,0.0919,-0.0185,-1.3570,0.3367,0.0460,-0.0593,0.0085,-2.2616,1.4416,2.9526
2024-10-11T12:45:03.351Z,0.0216,-0.8646,0.0919,0.0440,-1.2254,0.2620,0.0460,-0.0593,0.0085,-2.2658,1.4402,2.9547
2024-10-11T12:45:03.360Z,0.0210,-0.8657,0.1021,0.0440,-1.2254,0.2620,0.0484,-0.0597,0.0120,-2.2658,1.4402,2.9547
2024-10-11T12:45:03.371Z,0.0181,-0.8717,0.1030,0.0440,-1.2254,0.2620,0.0476,-0.0634,0.0134,-2.2658,1.4402,2.9547
2024-10-11T12:45:03.382Z,0.0181,-0.8717,0.1030,0.1931,-1.1359,0.2340,0.0457,-0.0600,0.0110,-2.2710,1.4389,2.9578
2024-10-11T12:45:03.391Z,-0.0050,-0.8752,0.1096,0.1931,-1.1359,0.2340,0.0499,-0.0619,0.0105,-2.2710,1.4389,2.9578
2024-10-11T12:45:03.400Z,-0.0068,-0.8820,0.1066,0.1931,-1.1359,0.2340,0.0487,-0.0571,0.0087,-2.2710,1.4389,2.9578
2024-10-11T12:45:03.410Z,-0.0068,-0.8820,0.1066,0.1931,-1.1359,0.2340,0.0495,-0.0521,0.0069,-2.2710,1.4389,2.9578
2024-10-11T12:45:03.420Z,-0.0097,-0.8893,0.1079,0.3764,-1.0066,0.2140,0.0510,-0.0525,0.0084,-2.2755,1.4375,2.9602
2024-10-11T12:45:03.430Z,-0.0097,-0.8893,0.1079,0.3764,-1.0066,0.2140,0.0512,-0.0501,0.0103,-2.2755,1.4375,2.9602
2024-10-11T12:45:03.441Z,-0.0117,-0.8852,0.1100,0.2874,-1.0938,0.1895,0.0487,-0.0447,0.0127,-2.2799,1.4361,2.9629
2024-10-11T12:45:03.450Z,-0.0067,-0.8815,0.1181,0.2874,-1.0938,0.1895,0.0487,-0.0447,0.0127,-2.2799,1.4361,2.9629
2024-10-11T12:45:03.460Z,-0.0078,-0.8896,0.1185,0.2874,-1.0938,0.1895,0.0465,-0.0304,0.0117,-2.2799,1.4361,2.9629
2024-10-11T12:45:03.471Z,-0.0078,-0.8896,0.1185,0.3709,-0.9337,0.0808,0.0429,-0.0283,0.0129,-2.2847,1.4348,2.9664
2024-10-11T12:45:03.481Z,-0.0142,-0.8956,0.1253,0.3709,-0.9337,0.0808,0.0432,-0.0226,0.0107,-2.2847,1.4348,2.9664
2024-10-11T12:45:03.490Z,-0.0116,-0.9014,0.1269,0.3709,-0.9337,0.0808,0.0408,-0.0166,0.0096,-2.2847,1.4348,2.9664
2024-10-11T12:45:03.501Z,-0.0116,-0.9014,0.1269,0.3805,-0.8234,0.0452,0.0385,-0.0157,0.0047,-2.2884,1.4336,2.9692
2024-10-11T12:45:03.510Z,-0.0156,-0.9057,0.1343,0.3805,-0.8234,0.0452,0.0363,-0.0181,0.0004,-2.2884,1.4336,2.9692
2024-10-11T12:45:03.521Z,-0.0090,-0.9018,0.1289,0.3805,-0.8234,0.0452,0.0374,-0.0216,-0.0014,-2.2884,1.4336,2.9692
2024-10-11T12:45:03.531Z,-0.0090,-0.9018,0.1289,0.1492,-0.8348,0.1223,0.0372,-0.0350,-0.0031,-2.2900,1.4324,2.9698
2024-10-11T12:45:03.540Z,0.0294,-0.9028,0.1219,0.1492,-0.8348,0.1223,0.0417,-0.0472,-0.0065,-2.2900,1.4324,2.9698
2024-10-11T12:45:03.551Z,0.0526,-0.8963,0.1059,0.1492,-0.8348,0.1223,0.0445,-0.0709,-0.0068,-2.2900,1.4324,2.9698
2024-10-11T12:45:03.561Z,0.0526,-0.8963,0.1059,-0.5490,-0.9449,0.3364,0.0456,-0.0945,-0.0117,-2.2901,1.4311,2.9676
2024-10-11T12:45:03.571Z,0.0882,-0.8969,0.1087,-0.5490,-0.9449,0.3364,0.0479,-0.1137,-0.0111,-2.2901,1.4311,2.9676
2024-10-11T12:45:03.581Z,0.0882,-0.8969,0.1087,-0.5490,-0.9449,0.3364,0.0494,-0.1245,-0.0117,-2.2901,1.4311,2.9676
2024-10-11T12:45:03.591Z,0.0856,-0.9035,0.1149,-0.4007,-0.7703,0.2711,0.0505,-0.1285,-0.0109,-2.2898,1.4296,2.9636
2024-10-11T12:45:03.601Z,0.0362,-0.9086,0.1135,-0.4007,-0.7703,0.2711,0.0508,-0.1188,-0.0122,-2.2898,1.4296,2.9636
2024-10-11T12:45:03.609Z,0.0362,-0.9086,0.1135,-0.4007,-0.7703,0.2711,0.0546,-0.1107,-0.0117,-2.2898,1.4296,2.9636
2024-10-11T12:45:03.621Z,0.0188,-0.9050,0.1166,0.2765,-0.8334,0.2019,0.0543,-0.0943,-0.0112,-2.2897,1.4280,2.9599
2024-10-11T12:45:03.630Z,-0.0025,-0.9049,0.1194,0.2765,-0.8334,0.2019,0.0541,-0.0674,-0.0123,-2.2897,1.4280,2.9599
2024-10-11T12:45:03.640Z,-0.0240,-0.9024,0.1345,0.2765,-0.8334,0.2019,0.0508,-0.0492,-0.0095,-2.2897,1.4280,2.9599
2024-10-11T12:45:03.650Z,-0.0240,-0.9024,0.1345,0.5245,-0.7839,0.0272,0.0504,-0.0230,-0.0077,-2.2902,1.4264,2.9584
2024-10-11T12:45:03.660Z,-0.0365,-0.9199,0.1333,0.5245,-0.7839,0.0272,0.0477,0.0007,-0.0046,-2.2902,1.4264,2.9584
2024-10-11T12:45:03.670Z,-0.0488,-0.9315,0.1366,0.5245,-0.7839,0.0272,0.0485,0.0289,-0.0021,-2.2902,1.4264,2.9584
2024-10-11T12:45:03.682Z,-0.0488,-0.9315,0.1366,0.7424,-0.4598,-0.0293,0.0461,0.0511,-0.0011,-2.2914,1.4249,2.9600
2024-10-11T12:45:03.690Z,-0.0508,-0.9523,0.1500,0.7424,-0.4598,-0.0293,0.0464,0.0721,0.0004,-2.2914,1.4249,2.9600
2024-10-11T12:45:03.700Z,-0.0567,-0.9658,0.1484,0.7424,-0.4598,-0.0293,0.0437,0.0963,-0.0005,-2.2914,1.4249,2.9600
2024-10-11T12:45:03.710Z,-0.0567,-0.9658,0.1484,0.7724,-0.0909,0.0318,0.0475,0.1083,-0.0000,-2.2931,1.4236,2.9640
2024-10-11T12:45:03.720Z,-0.0520,-0.9939,0.1362,0.7724,-0.0909,0.0318,0.0445,0.1237,-0.0055,-2.2931,1.4236,2.9640
2024-10-11T12:45:03.731Z,-0.0495,-1.0098,0.1348,0.7724,-0.0909,0.0318,0.0544,0.1275,-0.0069,-2.2931,1.4236,2.9640
2024-10-11T12:45:03.740Z,-0.0495,-1.0098,0.1348,0.6200,0.3990,0.1843,0.0610,0.1300,-0.0096,-2.2937,1.4220,2.9680
2024-10-11T12:45:03.749Z,-0.0187,-1.0482,0.1302,0.6200,0.3990,0.1843,0.0666,0.1336,-0.0124,-2.2937,1.4220,2.9680
2024-10-11T12:45:03.760Z,-0.0122,-1.0566,0.1437,0.6200,0.3990,0.1843,0.0737,0.1336,-0.0152,-2.2937,1.4220,2.9680
2024-10-11T12:45:03.771Z,-0.0007,-1.0679,0.1587,0.2570,0.7773,-0.1023,0.0772,0.1397,-0.0152,-2.2935,1.4198,2.9716
2024-10-11T12:45:03.780Z,-0.0007,-1.0679,0.1587,0.2570,0.7773,-0.1023,0.0845,0.1475,-0.0187,-2.2935,1.4198,2.9716
2024-10-11T12:45:03.790Z,-0.0131,-1.1155,0.1576,0.2570,0.7773,-0.1023,0.0906,0.1550,-0.0201,-2.2935,1.4198,2.9716
2024-10-11T12:45:03.801Z,-0.0131,-1.1155,0.1576,0.3615,1.2512,-0.1310,0.0911,0.1633,-0.0221,-2.2927,1.4171,2.9750
2024-10-11T12:45:03.810Z,-0.0217,-1.1136,0.1739,0.3615,1.2512,-0.1310,0.0923,0.1662,-0.0229,-2.2927,1.4171,2.9750
2024-10-11T12:45:03.820Z,-0.0288,-1.1117,0.1764,0.3615,1.2512,-0.1310,0.0838,0.1740,-0.0268,-2.2927,1.4171,2.9750
2024-10-11T12:45:03.830Z,-0.0288,-1.1117,0.1764,0.5435,1.2017,-0.1803,0.0843,0.1789,-0.0264,-2.2912,1.4143,2.9784
2024-10-11T12:45:03.840Z,-0.0227,-1.1140,0.1686,0.5435,1.2017,-0.1803,0.0784,0.1861,-0.0277,-2.2912,1.4143,2.9784
2024-10-11T12:45:03.850Z,-0.0276,-1.1183,0.1612,0.5435,1.2017,-0.1803,0.0752,0.1974,-0.0260,-2.2912,1.4143,2.9784
2024-10-11T12:45:03.860Z,-0.0287,-1.1373,0.1629,0.5282,1.4703,-0.0653,0.0776,0.2091,-0.0233,-2.2891,1.4118,2.9819
2024-10-11T12:45:03.870Z,-0.0259,-1.1626,0.1662,0.5282,1.4703,-0.0653,0.0773,0.2261,-0.0247,-2.2891,1.4118,2.9819
2024-10-11T12:45:03.880Z,-0.0262,-1.1705,0.1723,0.5282,1.4703,-0.0653,0.0744,0.2392,-0.0257,-2.2891,1.4118,2.9819
2024-10-11T12:45:03.890Z,-0.0262,-1.1705,0.1723,0.4671,1.8325,-0.2597,0.0737,0.2556,-0.0261,-2.2867,1.4094,2.9864
2024-10-11T12:45:03.899Z,-0.0159,-1.1818,0.1987,0.4671,1.8325,-0.2597,0.0737,0.2697,-0.0281,-2.2867,1.4094,2.9864
2024-10-11T12:45:03.910Z,-0.0081,-1.1936,0.2122,0.4671,1.8325,-0.2597,0.0715,0.2719,-0.0337,-2.2867,1.4094,2.9864
2024-10-11T12:45:03.921Z,-0.0081,-1.1936,0.2122,0.2841,2.0364,-0.7058,0.0651,0.2768,-0.0345,-2.2831,1.4072,2.9906
2024-10-11T12:45:03.931Z,0.0143,-1.1959,0.2362,0.2841,2.0364,-0.7058,0.0599,0.2730,-0.0363,-2.2831,1.4072,2.9906
2024-10-11T12:45:03.939Z,0.0284,-1.2002,0.2381,0.2841,2.0364,-0.7058,0.0518,0.2667,-0.0395,-2.2831,1.4072,2.9906
2024-10-11T12:45:03.951Z,0.0284,-1.2002,0.2381,-0.1553,2.0622,-0.7342,0.0423,0.2599,-0.0430,-2.2777,1.4055,2.9931
2024-10-11T12:45:03.960Z,0.0568,-1.1884,0.2380,-0.1553,2.0622,-0.7342,0.0314,0.2516,-0.0398,-2.2777,1.4055,2.9931
2024-10-11T12:45:03.970Z,0.0706,-1.1918,0.2336,-0.1553,2.0622,-0.7342,0.0170,0.2392,-0.0412,-2.2777,1.4055,2.9931
2024-10-11T12:45:03.982Z,0.0783,-1.2115,0.2314,-0.5285,2.2095,-0.6656,0.0170,0.2392,-0.0412,-2.2711,1.4047,2.9935
2024-10-11T12:45:03.990Z,0.0923,-1.2272,0.2200,-0.5285,2.2095,-0.6656,-0.0032,0.2121,-0.0379,-2.2711,1.4047,2.9935
2024-10-11T12:45:04.000Z,0.0820,-1.2419,0.2166,-0.5285,2.2095,-0.6656,-0.0107,0.2051,-0.0376,-2.2711,1.4047,2.9935
2024-10-11T12:45:04.011Z,0.0757,-1.2533,0.2201,-0.5020,2.6200,-0.5558,-0.0213,0.1950,-0.0378,-2.2643,1.4048,2.9927
2024-10-11T12:45:04.020Z,0.0828,-1.2592,0.2273,-0.5020,2.6200,-0.5558,-0.0240,0.1833,-0.0389,-2.2643,1.4048,2.9927
2024-10-11T12:45:04.031Z,0.0765,-1.2616,0.2307,-0.5020,2.6200,-0.5558,-0.0334,0.1728,-0.0399,-2.2643,1.4048,2.9927
2024-10-11T12:45:04.040Z,0.0771,-1.2632,0.2382,-0.5126,2.7155,-0.7408,-0.0379,0.1644,-0.0399,-2.2567,1.4055,2.9902
2024-10-11T12:45:04.050Z,0.0850,-1.2565,0.2438,-0.5126,2.7155,-0.7408,-0.0486,0.1535,-0.0410,-2.2567,1.4055,2.9902
2024-10-11T12:45:04.060Z,0.0822,-1.2526,0.2404,-0.5126,2.7155,-0.7408,-0.0508,0.1439,-0.0407,-2.2567,1.4055,2.9902
2024-10-11T12:45:04.070Z,0.0724,-1.2455,0.2410,-0.4620,2.5403,-0.7823,-0.0568,0.1334,-0.0407,-2.2483,1.4068,2.9860
2024-10-11T12:45:04.080Z,0.0777,-1.2378,0.2459,-0.4620,2.5403,-0.7823,-0.0620,0.1213,-0.0384,-2.2483,1.4068,2.9860
2024-10-11T12:45:04.090Z,0.0882,-1.2279,0.2525,-0.4620,2.5403,-0.7823,-0.0717,0.1088,-0.0348,-2.2483,1.4068,2.9860
2024-10-11T12:45:04.100Z,0.0838,-1.2228,0.2599,-0.5695,2.3142,-0.9861,-0.0808,0.0993,-0.0311,-2.2404,1.4086,2.9815
2024-10-11T12:45:04.110Z,0.0896,-1.2167,0.2664,-0.5695,2.3142,-0.9861,-0.0891,0.0924,-0.0228,-2.2404,1.4086,2.9815
2024-10-11T12:45:04.120Z,0.0937,-1.2120,0.2677,-0.5695,2.3142,-0.9861,-0.0979,0.0883,-0.0187,-2.2404,1.4086,2.9815
2024-10-11T12:45:04.130Z,0.0937,-1.2120,0.2677,-0.5117,2.2170,-1.1225,-0.1071,0.0880,-0.0179,-2.2338,1.4113,2.9774
2024-10-11T12:45:04.140Z,0.0705,-1.2096,0.2734,-0.5117,2.2170,-1.1225,-0.1135,0.0901,-0.0158,-2.2338,1.4113,2.9774
2024-10-11T12:45:04.150Z,0.0665,-1.2044,0.2686,-0.5117,2.2170,-1.1225,-0.1187,0.0946,-0.0120,-2.2338,1.4113,2.9774
2024-10-11T12:45:04.160Z,0.0596,-1.2019,0.2536,-0.3301,2.1000,-0.9836,-0.1229,0.0919,-0.0125,-2.2276,1.4147,2.9737
2024-10-11T12:45:04.170Z,0.0552,-1.1969,0.2375,-0.3301,2.1000,-0.9836,-0.1254,0.0934,-0.0106,-2.2276,1.4147,2.9737
2024-10-11T12:45:04.180Z,0.0524,-1.1853,0.2256,-0.3301,2.1000,-0.9836,-0.1243,0.0887,-0.0068,-2.2276,1.4147,2.9737
2024-10-11T12:45:04.191Z,0.0612,-1.1755,0.2113,-0.3470,1.8358,-0.6042,-0.1271,0.0842,-0.0060,-2.2218,1.4183,2.9705
2024-10-11T12:45:04.200Z,0.0704,-1.1676,0.2018,-0.3470,1.8358,-0.6042,-0.1306,0.0857,-0.0007,-2.2218,1.4183,2.9705
2024-10-11T12:45:04.210Z,0.0817,-1.1661,0.1886,-0.3470,1.8358,-0.6042,-0.1345,0.0839,0.0041,-2.2218,1.4183,2.9705
2024-10-11T12:45:04.220Z,0.0881,-1.1718,0.1797,-0.6149,1.7935,-0.3312,-0.1309,0.0825,0.0053,-2.2181,1.4221,2.9690
2024-10-11T12:45:04.230Z,0.0816,-1.1793,0.1844,-0.6149,1.7935,-0.3312,-0.1259,0.0756,0.0070,-2.2181,1.4221,2.9690
2024-10-11T12:45:04.240Z,0.0755,-1.1842,0.1914,-0.6149,1.7935,-0.3312,-0.1216,0.0702,0.0092,-2.2181,1.4221,2.9690
2024-10-11T12:45:04.250Z,0.0755,-1.1842,0.1914,-0.5466,1.9052,-0.5824,-0.1178,0.0649,0.0077,-2.2155,1.4258,2.9683
2024-10-11T12:45:04.261Z,0.0696,-1.1811,0.2188,-0.5466,1.9052,-0.5824,-0.1159,0.0576,0.0102,-2.2155,1.4258,2.9683
2024-10-11T12:45:04.270Z,0.0731,-1.1729,0.2289,-0.5466,1.9052,-0.5824,-0.1086,0.0501,0.0116,-2.2155,1.4258,2.9683
2024-10-11T12:45:04.282Z,0.0714,-1.1639,0.2322,-0.4615,1.7061,-0.9132,-0.1052,0.0488,0.0100,-2.2139,1.4291,2.9681
2024-10-11T12:45:04.290Z,0.0506,-1.1528,0.2289,-0.4615,1.7061,-0.9132,-0.0986,0.0415,0.0108,-2.2139,1.4291,2.9681
2024-10-11T12:45:04.299Z,0.0509,-1.1398,0.2239,-0.4615,1.7061,-0.9132,-0.0964,0.0392,0.0101,-2.2139,1.4291,2.9681
2024-10-11T12:45:04.310Z,0.0539,-1.1306,0.2163,-0.2934,1.3757,-0.7848,-0.0890,0.0346,0.0075,-2.2123,1.4320,2.9676
2024-10-11T12:45:04.320Z,0.0520,-1.1308,0.2032,-0.2934,1.3757,-0.7848,-0.0844,0.0363,0.0065,-2.2123,1.4320,2.9676
2024-10-11T12:45:04.330Z,0.0481,-1.1311,0.1903,-0.2934,1.3757,-0.7848,-0.0796,0.0251,0.0034,-2.2123,1.4320,2.9676
2024-10-11T12:45:04.340Z,0.0433,-1.1322,0.1843,-0.1921,1.3881,-0.4944,-0.0744,0.0180,-0.0022,-2.2101,1.4344,2.9660
2024-10-11T12:45:04.350Z,0.0409,-1.1372,0.1774,-0.1921,1.3881,-0.4944,-0.0674,0.0121,-0.0024,-2.2101,1.4344,2.9660
2024-10-11T12:45:04.360Z,0.0431,-1.1396,0.1684,-0.1921,1.3881,-0.4944,-0.0622,0.0040,-0.0039,-2.2101,1.4344,2.9660
2024-10-11T12:45:04.370Z,0.0427,-1.1371,0.1643,-0.1846,1.4338,-0.3165,-0.0567,-0.0051,-0.0050,-2.2071,1.4362,2.9629
2024-10-11T12:45:04.381Z,0.0414,-1.1325,0.1700,-0.1846,1.4338,-0.3165,-0.0516,-0.0118,-0.0047,-2.2071,1.4362,2.9629
2024-10-11T12:45:04.390Z,0.0470,-1.1274,0.1670,-0.1846,1.4338,-0.3165,-0.0468,-0.0152,-0.0013,-2.2071,1.4362,2.9629
2024-10-11T12:45:04.401Z,0.0470,-1.1274,0.1670,-0.2197,1.2081,-0.4058,-0.0422,-0.0218,-0.0026,-2.2047,1.4376,2.9599
2024-10-11T12:45:04.410Z,0.0514,-1.0959,0.1822,-0.2197,1.2081,-0.4058,-0.0347,-0.0264,-0.0005,-2.2047,1.4376,2.9599
2024-10-11T12:45:04.420Z,0.0565,-1.0825,0.1965,-0.2197,1.2081,-0.4058,-0.0340,-0.0206,0.0006,-2.2047,1.4376,2.9599
2024-10-11T12:45:04.432Z,0.0565,-1.0776,0.2107,-0.3186,0.8466,-0.7959,-0.0316,-0.0164,0.0015,-2.2038,1.4386,2.9582
2024-10-11T12:45:04.440Z,0.0533,-1.0729,0.2163,-0.3186,0.8466,-0.7959,-0.0332,-0.0136,0.0010,-2.2038,1.4386,2.9582
2024-10-11T12:45:04.450Z,0.0522,-1.0657,0.2158,-0.3186,0.8466,-0.7959,-0.0281,-0.0044,0.0000,-2.2038,1.4386,2.9582
2024-10-11T12:45:04.460Z,0.0590,-1.0508,0.2119,-0.3422,0.5831,-0.8153,-0.0305,-0.0031,-0.0009,-2.2025,1.4394,2.9564
2024-10-11T12:45:04.470Z,0.0594,-1.0353,0.1977,-0.3422,0.5831,-0.8153,-0.0310,0.0003,-0.0031,-2.2025,1.4394,2.9564
2024-10-11T12:45:04.481Z,0.0589,-1.0149,0.1785,-0.3422,0.5831,-0.8153,-0.0366,-0.0080,-0.0058,-2.2025,1.4394,2.9564
2024-10-11T12:45:04.490Z,0.0614,-1.0092,0.1519,-0.3635,0.1733,-0.2368,-0.0369,-0.0104,-0.0060,-2.2002,1.4404,2.9536
2024-10-11T12:45:04.500Z,0.0614,-1.0155,0.1240,-0.3635,0.1733,-0.2368,-0.0343,-0.0225,-0.0060,-2.2002,1.4404,2.9536
2024-10-11T12:45:04.510Z,0.0649,-1.0159,0.1078,-0.3635,0.1733,-0.2368,-0.0323,-0.0304,-0.0083,-2.2002,1.4404,2.9536
2024-10-11T12:45:04.520Z,0.0622,-1.0066,0.0953,-0.3679,0.1468,0.3097,-0.0355,-0.0505,-0.0096,-2.1970,1.4412,2.9493
2024-10-11T12:45:04.531Z,0.0608,-0.9951,0.0955,-0.3679,0.1468,0.3097,-0.0338,-0.0618,-0.0065,-2.1970,1.4412,2.9493
2024-10-11T12:45:04.540Z,0.0644,-0.9841,0.0928,-0.3679,0.1468,0.3097,-0.0367,-0.0798,-0.0100,-2.1970,1.4412,2.9493
2024-10-11T12:45:04.551Z,0.0677,-0.9776,0.0949,-0.4162,-0.1382,0.3041,-0.0418,-0.0948,-0.0113,-2.1933,1.4420,2.9431
2024-10-11T12:45:04.560Z,0.0659,-0.9678,0.1006,-0.4162,-0.1382,0.3041,-0.0418,-0.1121,-0.0138,-2.1933,1.4420,2.9431
2024-10-11T12:45:04.570Z,0.0645,-0.9622,0.1009,-0.4162,-0.1382,0.3041,-0.0415,-0.1266,-0.0156,-2.1933,1.4420,2.9431
2024-10-11T12:45:04.581Z,0.0649,-0.9689,0.0960,-0.3795,-0.2249,0.2802,-0.0388,-0.1500,-0.0129,-2.1886,1.4431,2.9345
2024-10-11T12:45:04.590Z,0.0844,-0.9623,0.0876,-0.3795,-0.2249,0.2802,-0.0386,-0.1621,-0.0079,-2.1886,1.4431,2.9345
2024-10-11T12:45:04.600Z,0.0940,-0.9582,0.0819,-0.3795,-0.2249,0.2802,-0.0333,-0.1747,-0.0041,-2.1886,1.4431,2.9345
2024-10-11T12:45:04.610Z,0.0964,-0.9453,0.0749,-0.6815,-0.4578,0.4771,-0.0248,-0.1865,0.0044,-2.1863,1.4440,2.9268
2024-10-11T12:45:04.620Z,0.0947,-0.9422,0.0603,-0.6815,-0.4578,0.4771,-0.0198,-0.1987,0.0094,-2.1863,1.4440,2.9268
2024-10-11T12:45:04.631Z,0.0912,-0.9349,0.0466,-0.6815,-0.4578,0.4771,-0.0068,-0.2120,0.0147,-2.1863,1.4440,2.9268
2024-10-11T12:45:04.640Z,0.0877,-0.9291,0.0466,-0.5924,-0.6175,0.7501,0.0055,-0.2250,0.0190,-2.1891,1.4444,2.9230
2024-10-11T12:45:04.650Z,0.0755,-0.9284,0.0453,-0.5924,-0.6175,0.7501,0.0149,-0.2427,0.0236,-2.1891,1.4444,2.9230
2024-10-11T12:45:04.660Z,0.0631,-0.9263,0.0523,-0.5924,-0.6175,0.7501,0.0216,-0.2575,0.0258,-2.1891,1.4444,2.9230
2024-10-11T12:45:04.670Z,0.0575,-0.9207,0.0633,-0.2942,-0.6991,0.5906,0.0272,-0.2705,0.0275,-2.1961,1.4440,2.9220
2024-10-11T12:45:04.681Z,0.0512,-0.9164,0.0757,-0.2942,-0.6991,0.5906,0.0320,-0.2853,0.0303,-2.1961,1.4440,2.9220
2024-10-11T12:45:04.690Z,0.0356,-0.9234,0.0877,-0.2942,-0.6991,0.5906,0.0327,-0.2919,0.0283,-2.1961,1.4440,2.9220
2024-10-11T12:45:04.700Z,0.0258,-0.9311,0.0985,0.0192,-0.5963,0.2527,0.0375,-0.2977,0.0310,-2.2048,1.4431,2.9218
2024-10-11T12:45:04.710Z,0.0240,-0.9290,0.1122,0.0192,-0.5963,0.2527,0.0402,-0.3007,0.0318,-2.2048,1.4431,2.9218
2024-10-11T12:45:04.720Z,0.0179,-0.9266,0.1221,0.0192,-0.5963,0.2527,0.0444,-0.3043,0.0329,-2.2048,1.4431,2.9218
2024-10-11T12:45:04.732Z,0.0140,-0.9207,0.1208,0.1360,-0.6964,0.0445,0.0472,-0.3058,0.0361,-2.2151,1.4420,2.9227
2024-10-11T12:45:04.740Z,0.0142,-0.9181,0.1121,0.1360,-0.6964,0.0445,0.0522,-0.3057,0.0379,-2.2151,1.4420,2.9227
2024-10-11T12:45:04.749Z,0.0077,-0.9172,0.1023,0.1360,-0.6964,0.0445,0.0555,-0.3103,0.0397,-2.2151,1.4420,2.9227
2024-10-11T12:45:04.759Z,0.0151,-0.9036,0.0910,0.1255,-0.8629,0.3502,0.0562,-0.3138,0.0377,-2.2268,1.4407,2.9247
2024-10-11T12:45:04.770Z,0.0206,-0.9012,0.0990,0.1255,-0.8629,0.3502,0.0513,-0.3226,0.0386,-2.2268,1.4407,2.9247
2024-10-11T12:45:04.781Z,0.0254,-0.8946,0.1082,0.1255,-0.8629,0.3502,0.0510,-0.3316,0.0376,-2.2268,1.4407,2.9247
2024-10-11T12:45:04.790Z,0.0279,-0.8897,0.1303,0.0015,-0.9976,-0.0233,0.0444,-0.3459,0.0365,-2.2383,1.4394,2.9259
2024-10-11T12:45:04.799Z,0.0244,-0.8777,0.1351,0.0015,-0.9976,-0.0233,0.0416,-0.3527,0.0375,-2.2383,1.4394,2.9259
2024-10-11T12:45:04.810Z,0.0100,-0.8806,0.1112,0.0015,-0.9976,-0.0233,0.0351,-0.3609,0.0334,-2.2383,1.4394,2.9259
2024-10-11T12:45:04.820Z,-0.0140,-0.8861,0.1420,0.4167,-1.0318,-0.1300,0.0261,-0.3631,0.0298,-2.2474,1.4386,2.9241
2024-10-11T12:45:04.830Z,0.0192,-0.8838,0.1667,0.4167,-1.0318,-0.1300,0.0204,-0.3606,0.0316,-2.2474,1.4386,2.9241
2024-10-11T12:45:04.839Z,0.0198,-0.8772,0.1377,0.4167,-1.0318,-0.1300,0.0174,-0.3540,0.0318,-2.2474,1.4386,2.9241
2024-10-11T12:45:04.850Z,0.0198,-0.8772,0.1377,0.2070,-1.1914,0.0777,0.0149,-0.3512,0.0312,-2.2556,1.4382,2.9213
2024-10-11T12:45:04.860Z,-0.0317,-0.8645,0.1235,0.2070,-1.1914,0.0777,0.0127,-0.3467,0.0249,-2.2556,1.4382,2.9213
2024-10-11T12:45:04.869Z,-0.0213,-0.8676,0.1210,0.2070,-1.1914,0.0777,0.0090,-0.3486,0.0228,-2.2556,1.4382,2.9213
2024-10-11T12:45:04.880Z,-0.0142,-0.8645,0.1152,0.4291,-1.2431,0.1350,0.0099,-0.3403,0.0204,-2.2614,1.4381,2.9164
2024-10-11T12:45:04.890Z,0.0075,-0.8565,0.0941,0.4291,-1.2431,0.1350,0.0110,-0.3392,0.0248,-2.2614,1.4381,2.9164
2024-10-11T12:45:04.900Z,0.0237,-0.8463,0.0737,0.4291,-1.2431,0.1350,0.0114,-0.3340,0.0232,-2.2614,1.4381,2.9164
2024-10-11T12:45:04.910Z,-0.0180,-0.8423,0.0904,0.4727,-1.4608,0.3786,0.0054,-0.3349,0.0160,-2.2670,1.4379,2.9117
2024-10-11T12:45:04.920Z,-0.0643,-0.8388,0.1234,0.4727,-1.4608,0.3786,0.0012,-0.3389,0.0113,-2.2670,1.4379,2.9117
2024-10-11T12:45:04.929Z,-0.0478,-0.8398,0.1189,0.4727,-1.4608,0.3786,-0.0016,-0.3369,0.0025,-2.2670,1.4379,2.9117
2024-10-11T12:45:04.940Z,-0.0365,-0.8556,0.1356,0.6654,-1.3302,-0.0677,-0.0092,-0.3314,0.0012,-2.2682,1.4380,2.9026
2024-10-11T12:45:04.949Z,-0.0109,-0.8614,0.1543,0.6654,-1.3302,-0.0677,-0.0122,-0.3238,0.0037,-2.2682,1.4380,2.9026
2024-10-11T12:45:04.960Z,0.0113,-0.8665,0.1397,0.6654,-1.3302,-0.0677,-0.0178,-0.3113,-0.0034,-2.2682,1.4380,2.9026
2024-10-11T12:45:04.970Z,-0.0378,-0.8677,0.1695,0.6906,-1.2124,-0.4080,-0.0230,-0.2970,-0.0031,-2.2675,1.4384,2.8921
2024-10-11T12:45:04.980Z,-0.0168,-0.8703,0.1790,0.6906,-1.2124,-0.4080,-0.0281,-0.2926,-0.0045,-2.2675,1.4384,2.8921
2024-10-11T12:45:04.990Z,-0.0090,-0.8709,0.1579,0.6906,-1.2124,-0.4080,-0.0331,-0.2851,-0.0044,-2.2675,1.4384,2.8921
2024-10-11T12:45:05.000Z,-0.0090,-0.8709,0.1579,0.7180,-1.1940,-0.2333,-0.0332,-0.2813,-0.0064,-2.2648,1.4392,2.8806
2024-10-11T12:45:05.010Z,-0.0127,-0.8671,0.1586,0.7180,-1.1940,-0.2333,-0.0402,-0.2782,-0.0062,-2.2648,1.4392,2.8806
2024-10-11T12:45:05.020Z,-0.0069,-0.8630,0.1881,0.7180,-1.1940,-0.2333,-0.0470,-0.2671,-0.0065,-2.2648,1.4392,2.8806
2024-10-11T12:45:05.030Z,-0.0073,-0.8660,0.1875,0.4155,-1.2314,-0.6118,-0.0552,-0.2564,-0.0062,-2.2609,1.4405,2.8684
2024-10-11T12:45:05.040Z,0.0100,-0.8628,0.1622,0.4155,-1.2314,-0.6118,-0.0583,-0.2521,-0.0027,-2.2609,1.4405,2.8684
2024-10-11T12:45:05.049Z,0.0010,-0.8522,0.1707,0.4155,-1.2314,-0.6118,-0.0621,-0.2471,-0.0002,-2.2609,1.4405,2.8684
2024-10-11T12:45:05.060Z,0.0057,-0.8505,0.1651,0.2976,-1.3856,-0.4125,-0.0668,-0.2414,0.0018,-2.2567,1.4422,2.8566
2024-10-11T12:45:05.070Z,0.0165,-0.8487,0.1580,0.2976,-1.3856,-0.4125,-0.0736,-0.2336,0.0016,-2.2567,1.4422,2.8566
2024-10-11T12:45:05.080Z,0.0033,-0.8438,0.1429,0.2976,-1.3856,-0.4125,-0.0724,-0.2248,0.0030,-2.2567,1.4422,2.8566
2024-10-11T12:45:05.090Z,-0.0087,-0.8388,0.1315,0.4465,-1.5030,-0.1058,-0.0716,-0.2171,0.0035,-2.2527,1.4443,2.8455
2024-10-11T12:45:05.099Z,-0.0071,-0.8276,0.1112,0.4465,-1.5030,-0.1058,-0.0719,-0.2076,-0.0001,-2.2527,1.4443,2.8455
2024-10-11T12:45:05.110Z,-0.0085,-0.8228,0.0963,0.4465,-1.5030,-0.1058,-0.0685,-0.2027,0.0008,-2.2527,1.4443,2.8455
2024-10-11T12:45:05.120Z,-0.0090,-0.8267,0.0923,0.4568,-1.6241,0.2572,-0.0654,-0.1914,0.0011,-2.2482,1.4462,2.8348
2024-10-11T12:45:05.130Z,0.0210,-0.8299,0.0992,0.4568,-1.6241,0.2572,-0.0652,-0.1898,0.0050,-2.2482,1.4462,2.8348
2024-10-11T12:45:05.140Z,0.0225,-0.8230,0.1163,0.4568,-1.6241,0.2572,-0.0692,-0.1875,0.0096,-2.2482,1.4462,2.8348
2024-10-11T12:45:05.149Z,0.0256,-0.8187,0.1071,0.1214,-1.7048,0.0907,-0.0694,-0.1872,0.0100,-2.2452,1.4481,2.8259
2024-10-11T12:45:05.160Z,0.0285,-0.8186,0.1216,0.1214,-1.7048,0.0907,-0.0750,-0.1828,0.0095,-2.2452,1.4481,2.8259
2024-10-11T12:45:05.170Z,0.0231,-0.8188,0.1468,0.1214,-1.7048,0.0907,-0.0804,-0.1816,0.0163,-2.2452,1.4481,2.8259
2024-10-11T12:45:05.180Z,0.0654,-0.8163,0.1377,-0.2663,-1.7306,-0.2321,-0.0830,-0.1807,0.0232,-2.2433,1.4503,2.8183
2024-10-11T12:45:05.190Z,0.0541,-0.8123,0.1147,-0.2663,-1.7306,-0.2321,-0.0818,-0.1752,0.0238,-2.2433,1.4503,2.8183
2024-10-11T12:45:05.199Z,0.0209,-0.8126,0.1313,-0.2663,-1.7306,-0.2321,-0.0866,-0.1739,0.0270,-2.2433,1.4503,2.8183
2024-10-11T12:45:05.210Z,0.0388,-0.8110,0.1443,-0.0077,-1.7861,-0.3236,-0.0878,-0.1713,0.0293,-2.2430,1.4529,2.8125
2024-10-11T12:45:05.220Z,0.0403,-0.8115,0.1486,-0.0077,-1.7861,-0.3236,-0.0880,-0.1714,0.0323,-2.2430,1.4529,2.8125
2024-10-11T12:45:05.230Z,0.0303,-0.8123,0.1323,-0.0077,-1.7861,-0.3236,-0.0867,-0.1683,0.0346,-2.2430,1.4529,2.8125
2024-10-11T12:45:05.240Z,0.0292,-0.8109,0.1047,0.0829,-1.7906,0.0380,-0.0849,-0.1701,0.0337,-2.2439,1.4556,2.8081
2024-10-11T12:45:05.249Z,0.0190,-0.8090,0.0820,0.0829,-1.7906,0.0380,-0.0828,-0.1679,0.0351,-2.2439,1.4556,2.8081
2024-10-11T12:45:05.260Z,0.0299,-0.7937,0.0740,0.0829,-1.7906,0.0380,-0.0754,-0.1656,0.0366,-2.2439,1.4556,2.8081
2024-10-11T12:45:05.270Z,0.0521,-0.7849,0.0629,-0.1476,-2.0476,0.4237,-0.0686,-0.1689,0.0425,-2.2468,1.4582,2.8056
2024-10-11T12:45:05.280Z,0.0571,-0.7879,0.0566,-0.1476,-2.0476,0.4237,-0.0660,-0.1696,0.0490,-2.2468,1.4582,2.8056
2024-10-11T12:45:05.290Z,0.0538,-0.7914,0.0611,-0.1476,-2.0476,0.4237,-0.0606,-0.1689,0.0506,-2.2468,1.4582,2.8056
2024-10-11T12:45:05.300Z,0.0520,-0.7968,0.0694,-0.1561,-1.9340,0.3401,-0.0557,-0.1774,0.0547,-2.2542,1.4604,2.8076
2024-10-11T12:45:05.310Z,0.0450,-0.8031,0.0794,-0.1561,-1.9340,0.3401,-0.0536,-0.1827,0.0563,-2.2542,1.4604,2.8076
2024-10-11T12:45:05.320Z,0.0528,-0.8131,0.0949,-0.1561,-1.9340,0.3401,-0.0532,-0.1879,0.0571,-2.2542,1.4604,2.8076
2024-10-11T12:45:05.330Z,0.0496,-0.8101,0.1041,-0.1429,-1.8050,-0.0169,-0.0473,-0.2000,0.0583,-2.2646,1.4624,2.8120
2024-10-11T12:45:05.340Z,0.0391,-0.8162,0.1107,-0.1429,-1.8050,-0.0169,-0.0460,-0.2048,0.0564,-2.2646,1.4624,2.8120
2024-10-11T12:45:05.350Z,0.0437,-0.8231,0.1062,-0.1429,-1.8050,-0.0169,-0.0446,-0.2163,0.0591,-2.2646,1.4624,2.8120
2024-10-11T12:45:05.360Z,0.0507,-0.8246,0.1242,-0.1646,-1.6652,-0.2298,-0.0492,-0.2213,0.0565,-2.2757,1.4643,2.8165
2024-10-11T12:45:05.370Z,0.0271,-0.8331,0.1371,-0.1646,-1.6652,-0.2298,-0.0546,-0.2237,0.0548,-2.2757,1.4643,2.8165
2024-10-11T12:45:05.380Z,0.0324,-0.8352,0.1343,-0.1646,-1.6652,-0.2298,-0.0539,-0.2300,0.0556,-2.2757,1.4643,2.8165
2024-10-11T12:45:05.390Z,0.0501,-0.8400,0.1278,-0.1676,-1.5166,-0.2835,-0.0563,-0.2404,0.0557,-2.2864,1.4663,2.8198
2024-10-11T12:45:05.400Z,0.0373,-0.8402,0.1301,-0.1676,-1.5166,-0.2835,-0.0605,-0.2439,0.0575,-2.2864,1.4663,2.8198
2024-10-11T12:45:05.410Z,0.0377,-0.8487,0.1212,-0.1676,-1.5166,-0.2835,-0.0594,-0.2546,0.0588,-2.2864,1.4663,2.8198
2024-10-11T12:45:05.420Z,0.0532,-0.8495,0.1202,-0.2088,-1.4247,-0.2279,-0.0589,-0.2581,0.0627,-2.2977,1.4686,2.8233
2024-10-11T12:45:05.430Z,0.0457,-0.8529,0.0900,-0.2088,-1.4247,-0.2279,-0.0525,-0.2611,0.0675,-2.2977,1.4686,2.8233
2024-10-11T12:45:05.440Z,0.0467,-0.8562,0.0585,-0.2088,-1.4247,-0.2279,-0.0490,-0.2639,0.0694,-2.2977,1.4686,2.8233
2024-10-11T12:45:05.450Z,0.0343,-0.8505,0.0670,-0.0359,-1.4176,0.2764,-0.0431,-0.2723,0.0695,-2.3126,1.4706,2.8300
2024-10-11T12:45:05.460Z,0.0115,-0.8540,0.0958,-0.0359,-1.4176,0.2764,-0.0448,-0.2739,0.0679,-2.3126,1.4706,2.8300
2024-10-11T12:45:05.470Z,0.0052,-0.8657,0.1064,-0.0359,-1.4176,0.2764,-0.0437,-0.2769,0.0658,-2.3126,1.4706,2.8300
2024-10-11T12:45:05.480Z,0.0224,-0.8746,0.1070,0.0694,-1.1830,-0.1308,-0.0403,-0.2797,0.0675,-2.3283,1.4724,2.8370
2024-10-11T12:45:05.490Z,0.0152,-0.8803,0.0927,0.0694,-1.1830,-0.1308,-0.0351,-0.2856,0.0701,-2.3283,1.4724,2.8370
2024-10-11T12:45:05.500Z,0.0275,-0.8900,0.0918,0.0694,-1.1830,-0.1308,-0.0351,-0.2872,0.0709,-2.3283,1.4724,2.8370
2024-10-11T12:45:05.510Z,0.0361,-0.8838,0.1152,-0.0785,-1.0944,-0.2232,-0.0370,-0.2944,0.0744,-2.3465,1.4740,2.8462
2024-10-11T12:45:05.520Z,0.0201,-0.8811,0.1338,-0.0785,-1.0944,-0.2232,-0.0383,-0.2965,0.0721,-2.3465,1.4740,2.8462
2024-10-11T12:45:05.530Z,-0.0024,-0.8865,0.1057,-0.0785,-1.0944,-0.2232,-0.0359,-0.2988,0.0738,-2.3465,1.4740,2.8462
2024-10-11T12:45:05.540Z,0.0324,-0.8869,0.0684,-0.0561,-1.0656,0.2226,-0.0310,-0.2954,0.0787,-2.3660,1.4757,2.8565
2024-10-11T12:45:05.550Z,0.0477,-0.8817,0.0546,-0.0561,-1.0656,0.2226,-0.0276,-0.2967,0.0821,-2.3660,1.4757,2.8565
2024-10-11T12:45:05.560Z,0.0209,-0.8751,0.0631,-0.0561,-1.0656,0.2226,-0.0281,-0.2898,0.0790,-2.3660,1.4757,2.8565
2024-10-11T12:45:05.570Z,-0.0268,-0.8727,0.0847,0.5096,-1.2054,0.0532,-0.0265,-0.2884,0.0728,-2.3880,1.4771,2.8694
2024-10-11T12:45:05.581Z,-0.0055,-0.8718,0.0721,0.5096,-1.2054,0.0532,-0.0201,-0.2994,0.0724,-2.3880,1.4771,2.8694
2024-10-11T12:45:05.590Z,-0.0049,-0.8790,0.0704,0.5096,-1.2054,0.0532,-0.0167,-0.2968,0.0659,-2.3880,1.4771,2.8694
2024-10-11T12:45:05.600Z,-0.0188,-0.8782,0.0745,0.4184,-1.1532,0.1456,-0.0170,-0.3034,0.0646,-2.4080,1.4782,2.8802
2024-10-11T12:45:05.610Z,-0.0058,-0.8750,0.0619,0.4184,-1.1532,0.1456,-0.0118,-0.3035,0.0620,-2.4080,1.4782,2.8802
2024-10-11T12:45:05.620Z,-0.0002,-0.8743,0.0361,0.4184,-1.1532,0.1456,-0.0024,-0.3109,0.0590,-2.4080,1.4782,2.8802
2024-10-11T12:45:05.630Z,-0.0078,-0.8718,0.0412,0.3011,-1.2164,0.4698,0.0017,-0.3061,0.0576,-2.4266,1.4787,2.8894
2024-10-11T12:45:05.640Z,-0.0171,-0.8717,0.0690,0.3011,-1.2164,0.4698,0.0063,-0.3062,0.0527,-2.4266,1.4787,2.8894
2024-10-11T12:45:05.650Z,-0.0177,-0.8920,0.0850,0.3011,-1.2164,0.4698,0.0094,-0.2998,0.0489,-2.4266,1.4787,2.8894
2024-10-11T12:45:05.660Z,-0.0057,-0.9044,0.0784,0.2738,-0.8962,0.1052,0.0134,-0.2898,0.0485,-2.4433,1.4788,2.8969
2024-10-11T12:45:05.670Z,-0.0093,-0.9056,0.0804,0.2738,-0.8962,0.1052,0.0156,-0.2801,0.0461,-2.4433,1.4788,2.8969
2024-10-11T12:45:05.679Z,-0.0258,-0.9099,0.0803,0.2738,-0.8962,0.1052,0.0269,-0.2685,0.0456,-2.4433,1.4788,2.8969
2024-10-11T12:45:05.690Z,-0.0195,-0.9149,0.0873,0.4034,-0.7926,0.0230,0.0306,-0.2501,0.0467,-2.4601,1.4785,2.9052
2024-10-11T12:45:05.700Z,-0.0052,-0.9182,0.1066,0.4034,-0.7926,0.0230,0.0313,-0.2324,0.0467,-2.4601,1.4785,2.9052
2024-10-11T12:45:05.710Z,-0.0055,-0.9223,0.1260,0.4034,-0.7926,0.0230,0.0336,-0.2168,0.0495,-2.4601,1.4785,2.9052
2024-10-11T12:45:05.720Z,-0.0211,-0.9278,0.1217,0.4099,-0.6660,-0.3065,0.0353,-0.1949,0.0510,-2.4781,1.4778,2.9164
2024-10-11T12:45:05.730Z,-0.0003,-0.9307,0.1141,0.4099,-0.6660,-0.3065,0.0377,-0.1740,0.0533,-2.4781,1.4778,2.9164
2024-10-11T12:45:05.740Z,0.0052,-0.9382,0.1069,0.4099,-0.6660,-0.3065,0.0423,-0.1600,0.0590,-2.4781,1.4778,2.9164
2024-10-11T12:45:05.749Z,-0.0166,-0.9424,0.1205,0.3540,-0.5224,-0.2833,0.0450,-0.1383,0.0588,-2.4989,1.4770,2.9321
2024-10-11T12:45:05.760Z,-0.0318,-0.9477,0.1162,0.3540,-0.5224,-0.2833,0.0495,-0.1230,0.0605,-2.4989,1.4770,2.9321
2024-10-11T12:45:05.769Z,-0.0211,-0.9541,0.0889,0.3540,-0.5224,-0.2833,0.0551,-0.0998,0.0632,-2.4989,1.4770,2.9321
2024-10-11T12:45:05.780Z,-0.0381,-0.9557,0.0650,0.5497,-0.3900,0.2771,0.0651,-0.0822,0.0625,-2.5218,1.4757,2.9515
2024-10-11T12:45:05.790Z,-0.0796,-0.9525,0.0872,0.5497,-0.3900,0.2771,0.0677,-0.0606,0.0551,-2.5218,1.4757,2.9515
2024-10-11T12:45:05.801Z,-0.1035,-0.9574,0.0983,0.5497,-0.3900,0.2771,0.0741,-0.0425,0.0475,-2.5218,1.4757,2.9515
2024-10-11T12:45:05.810Z,-0.0943,-0.9787,0.0824,1.0875,-0.1625,0.1266,0.0793,-0.0168,0.0423,-2.5415,1.4739,2.9695
2024-10-11T12:45:05.820Z,-0.0959,-0.9950,0.0799,1.0875,-0.1625,0.1266,0.0858,0.0070,0.0388,-2.5415,1.4739,2.9695
2024-10-11T12:45:05.830Z,-0.0979,-1.0128,0.0973,1.0875,-0.1625,0.1266,0.0862,0.0307,0.0347,-2.5415,1.4739,2.9695
2024-10-11T12:45:05.840Z,-0.0835,-1.0480,0.0969,0.9700,0.5196,0.0105,0.0909,0.0464,0.0343,-2.5571,1.4714,2.9854
2024-10-11T12:45:05.850Z,-0.0764,-1.0970,0.1015,0.9700,0.5196,0.0105,0.0968,0.0600,0.0331,-2.5571,1.4714,2.9854
2024-10-11T12:45:05.860Z,-0.0804,-1.1446,0.0899,0.9700,0.5196,0.0105,0.1014,0.0831,0.0290,-2.5571,1.4714,2.9854
2024-10-11T12:45:05.869Z,-0.0739,-1.1740,0.0649,0.8654,1.7582,0.3542,0.1042,0.1043,0.0236,-2.5702,1.4686,3.0006
2024-10-11T12:45:05.880Z,-0.0838,-1.1971,0.0692,0.8654,1.7582,0.3542,0.1069,0.1293,0.0151,-2.5702,1.4686,3.0006
2024-10-11T12:45:05.890Z,-0.1030,-1.2231,0.0761,0.8654,1.7582,0.3542,0.1119,0.1528,0.0065,-2.5702,1.4686,3.0006
2024-10-11T12:45:05.900Z,-0.1036,-1.2327,0.0532,1.1504,2.3371,0.5019,0.1225,0.1686,-0.0062,-2.5771,1.4653,3.0116
2024-10-11T12:45:05.910Z,-0.0918,-1.2413,0.0327,1.1504,2.3371,0.5019,0.1332,0.1946,-0.0146,-2.5771,1.4653,3.0116
2024-10-11T12:45:05.920Z,-0.0751,-1.2423,0.0396,1.1504,2.3371,0.5019,0.1376,0.2142,-0.0244,-2.5771,1.4653,3.0116
2024-10-11T12:45:05.929Z,-0.0504,-1.2514,0.0688,0.6275,2.5248,0.3906,0.1477,0.2274,-0.0274,-2.5767,1.4611,3.0172
2024-10-11T12:45:05.940Z,-0.0460,-1.2524,0.1064,0.6275,2.5248,0.3906,0.1554,0.2379,-0.0352,-2.5767,1.4611,3.0172
2024-10-11T12:45:05.950Z,-0.0602,-1.2364,0.1380,0.6275,2.5248,0.3906,0.1580,0.2554,-0.0418,-2.5767,1.4611,3.0172
2024-10-11T12:45:05.960Z,-0.0514,-1.2186,0.1431,0.6414,2.2082,-0.2920,0.1569,0.2678,-0.0507,-2.5711,1.4563,3.0188
2024-10-11T12:45:05.969Z,-0.0530,-1.2075,0.1724,0.6414,2.2082,-0.2920,0.1536,0.2826,-0.0597,-2.5711,1.4563,3.0188
2024-10-11T12:45:05.980Z,-0.0514,-1.2056,0.2119,0.6414,2.2082,-0.2920,0.1530,0.3039,-0.0667,-2.5711,1.4563,3.0188
2024-10-11T12:45:05.990Z,-0.0486,-1.2132,0.2212,0.6226,2.1609,-1.0113,0.1535,0.3312,-0.0746,-2.5595,1.4515,3.0160
2024-10-11T12:45:06.001Z,-0.0452,-1.2274,0.2309,0.6226,2.1609,-1.0113,0.1565,0.3559,-0.0872,-2.5595,1.4515,3.0160
2024-10-11T12:45:06.010Z,-0.0703,-1.2364,0.2490,0.6226,2.1609,-1.0113,0.1521,0.3955,-0.1031,-2.5595,1.4515,3.0160
2024-10-11T12:45:06.019Z,-0.0836,-1.2379,0.2758,0.9816,2.4092,-1.5007,0.1441,0.4283,-0.1162,-2.5403,1.4466,3.0083
2024-10-11T12:45:06.030Z,-0.0717,-1.2441,0.2804,0.9816,2.4092,-1.5007,0.1408,0.4611,-0.1320,-2.5403,1.4466,3.0083
2024-10-11T12:45:06.040Z,-0.0735,-1.2495,0.2798,0.9816,2.4092,-1.5007,0.1279,0.4916,-0.1436,-2.5403,1.4466,3.0083
2024-10-11T12:45:06.050Z,-0.0494,-1.2496,0.2765,0.6695,2.5298,-1.4671,0.1152,0.5200,-0.1514,-2.5120,1.4421,2.9945
2024-10-11T12:45:06.059Z,0.0040,-1.2464,0.2797,0.6695,2.5298,-1.4671,0.0949,0.5521,-0.1553,-2.5120,1.4421,2.9945
2024-10-11T12:45:06.070Z,0.0208,-1.2573,0.2859,0.6695,2.5298,-1.4671,0.0717,0.5765,-0.1541,-2.5120,1.4421,2.9945
2024-10-11T12:45:06.080Z,0.0229,-1.2694,0.2852,-0.0163,2.7282,-1.5258,0.0545,0.5931,-0.1557,-2.4801,1.4390,2.9796
2024-10-11T12:45:06.090Z,0.0330,-1.2853,0.2643,-0.0163,2.7282,-1.5258,0.0359,0.5955,-0.1526,-2.4801,1.4390,2.9796
2024-10-11T12:45:06.100Z,0.0278,-1.2988,0.2609,-0.0163,2.7282,-1.5258,0.0227,0.6035,-0.1558,-2.4801,1.4390,2.9796
2024-10-11T12:45:06.110Z,0.0327,-1.3091,0.2380,-0.0915,3.1188,-1.0512,0.0114,0.6120,-0.1544,-2.4468,1.4375,2.9645
2024-10-11T12:45:06.120Z,0.0452,-1.3089,0.2431,-0.0915,3.1188,-1.0512,-0.0046,0.6386,-0.1574,-2.4468,1.4375,2.9645
2024-10-11T12:45:06.130Z,0.0420,-1.2997,0.2489,-0.0915,3.1188,-1.0512,-0.0154,0.6644,-0.1606,-2.4468,1.4375,2.9645
2024-10-11T12:45:06.140Z,0.0146,-1.2894,0.2468,0.1077,2.9268,-1.1362,-0.0199,0.6874,-0.1675,-2.4115,1.4369,2.9490
2024-10-11T12:45:06.150Z,0.0058,-1.2771,0.2204,0.1077,2.9268,-1.1362,-0.0197,0.7130,-0.1747,-2.4115,1.4369,2.9490
2024-10-11T12:45:06.160Z,0.0349,-1.2778,0.1912,0.1077,2.9268,-1.1362,-0.0187,0.7437,-0.1787,-2.4115,1.4369,2.9490
2024-10-11T12:45:06.170Z,0.0487,-1.2738,0.1912,-0.2062,2.7742,-0.5890,-0.0157,0.7690,-0.1751,-2.3739,1.4363,2.9334
2024-10-11T12:45:06.179Z,0.0570,-1.2724,0.1973,-0.2062,2.7742,-0.5890,-0.0137,0.7806,-0.1727,-2.3739,1.4363,2.9334
2024-10-11T12:45:06.190Z,0.0666,-1.2716,0.2050,-0.2062,2.7742,-0.5890,-0.0124,0.8002,-0.1714,-2.3739,1.4363,2.9334
