time,gFx,gFy,gFz,ax,ay,az,wx,wy,wz,yaw,pitch,roll
2024-10-11T13:00:36.081Z,0.0118,-0.9838,0.1674,-0.1312,-0.0184,-0.0038,0.0314,-0.1265,0.0070,-2.5619,1.4042,-3.1133
2024-10-11T13:00:36.089Z,0.0073,-0.9859,0.1670,-0.1295,0.0087,-0.0043,0.0110,-0.0753,0.0066,-2.5629,1.4036,-3.1157
2024-10-11T13:00:36.099Z,0.0104,-0.9865,0.1664,-0.1295,0.0087,-0.0043,0.0088,-0.0756,0.0039,-2.5629,1.4036,-3.1157
2024-10-11T13:00:36.109Z,0.0118,-0.9846,0.1674,-0.1295,0.0087,-0.0043,0.0069,-0.0794,0.0067,-2.5629,1.4036,-3.1157
2024-10-11T13:00:36.118Z,0.0137,-0.9841,0.1674,-0.1847,-0.0020,-0.0137,0.0109,-0.0868,0.0087,-2.5641,1.4033,-3.1172
2024-10-11T13:00:36.129Z,0.0159,-0.9858,0.1685,-0.1847,-0.0020,-0.0137,0.0106,-0.0875,0.0098,-2.5641,1.4033,-3.1172
2024-10-11T13:00:36.138Z,0.0149,-0.9861,0.1660,-0.1847,-0.0020,-0.0137,0.0093,-0.0897,0.0105,-2.5641,1.4033,-3.1172
2024-10-11T13:00:36.149Z,0.0138,-0.9887,0.1657,-0.1699,0.0187,-0.0075,0.0129,-0.0962,0.0097,-2.5659,1.4030,-3.1184
2024-10-11T13:00:36.159Z,0.0128,-0.9879,0.1689,-0.1699,0.0187,-0.0075,0.0119,-0.1048,0.0111,-2.5659,1.4030,-3.1184
2024-10-11T13:00:36.169Z,0.0103,-0.9861,0.1712,-0.1699,0.0187,-0.0075,0.0155,-0.1117,0.0123,-2.5659,1.4030,-3.1184
2024-10-11T13:00:36.179Z,0.0123,-0.9845,0.1707,-0.1604,-0.0248,-0.0378,0.0118,-0.1197,0.0121,-2.5680,1.4027,-3.1199
2024-10-11T13:00:36.188Z,0.0117,-0.9819,0.1724,-0.1604,-0.0248,-0.0378,0.0156,-0.1232,0.0133,-2.5680,1.4027,-3.1199
2024-10-11T13:00:36.199Z,0.0124,-0.9833,0.1734,-0.1604,-0.0248,-0.0378,0.0123,-0.1230,0.0114,-2.5680,1.4027,-3.1199
2024-10-11T13:00:36.209Z,0.0119,-0.9862,0.1696,-0.1561,-0.0012,-0.0262,0.0130,-0.1173,0.0135,-2.5702,1.4022,-3.1216
2024-10-11T13:00:36.219Z,0.0127,-0.9862,0.1726,-0.1561,-0.0012,-0.0262,0.0093,-0.1200,0.0141,-2.5702,1.4022,-3.1216
2024-10-11T13:00:36.229Z,0.0142,-0.9872,0.1711,-0.1561,-0.0012,-0.0262,0.0113,-0.1304,0.0154,-2.5702,1.4022,-3.1216
2024-10-11T13:00:36.239Z,0.0137,-0.9895,0.1717,-0.1600,0.0385,-0.0438,0.0128,-0.1353,0.0151,-2.5729,1.4019,-3.1230
2024-10-11T13:00:36.250Z,0.0092,-0.9901,0.1721,-0.1600,0.0385,-0.0438,0.0106,-0.1319,0.0165,-2.5729,1.4019,-3.1230
2024-10-11T13:00:36.259Z,0.0092,-0.9901,0.1721,-0.1600,0.0385,-0.0438,0.0051,-0.1322,0.0156,-2.5729,1.4019,-3.1230
2024-10-11T13:00:36.270Z,0.0091,-0.9890,0.1731,-0.1310,0.0416,-0.0445,0.0061,-0.1334,0.0147,-2.5759,1.4017,-3.1242
2024-10-11T13:00:36.279Z,0.0091,-0.9890,0.1731,-0.1310,0.0416,-0.0445,0.0022,-0.1308,0.0155,-2.5759,1.4017,-3.1242
2024-10-11T13:00:36.288Z,0.0073,-0.9865,0.1742,-0.1310,0.0416,-0.0445,0.0006,-0.1321,0.0176,-2.5759,1.4017,-3.1242
2024-10-11T13:00:36.300Z,0.0037,-0.9859,0.1730,-0.0750,0.0014,-0.0690,-0.0026,-0.1337,0.0155,-2.5790,1.4017,-3.1254
2024-10-11T13:00:36.310Z,0.0052,-0.9853,0.1745,-0.0750,0.0014,-0.0690,0.0004,-0.1373,0.0167,-2.5790,1.4017,-3.1254
2024-10-11T13:00:36.320Z,0.0052,-0.9853,0.1745,-0.0750,0.0014,-0.0690,-0.0011,-0.1421,0.0170,-2.5790,1.4017,-3.1254
2024-10-11T13:00:36.329Z,0.0040,-0.9831,0.1732,-0.0615,-0.0391,-0.0351,0.0005,-0.1507,0.0177,-2.5821,1.4016,-3.1268
2024-10-11T13:00:36.340Z,0.0043,-0.9817,0.1735,-0.0615,-0.0391,-0.0351,0.0028,-0.1493,0.0187,-2.5821,1.4016,-3.1268
2024-10-11T13:00:36.350Z,0.0022,-0.9832,0.1735,-0.0615,-0.0391,-0.0351,0.0018,-0.1476,0.0176,-2.5821,1.4016,-3.1268
2024-10-11T13:00:36.358Z,0.0022,-0.9832,0.1735,-0.0358,-0.0163,-0.0378,0.0028,-0.1517,0.0174,-2.5852,1.4016,-3.1285
2024-10-11T13:00:36.369Z,0.0010,-0.9826,0.1719,-0.0358,-0.0163,-0.0378,0.0028,-0.1526,0.0185,-2.5852,1.4016,-3.1285
2024-10-11T13:00:36.380Z,0.0004,-0.9824,0.1729,-0.0358,-0.0163,-0.0378,0.0045,-0.1559,0.0184,-2.5852,1.4016,-3.1285
2024-10-11T13:00:36.389Z,0.0004,-0.9824,0.1729,-0.0245,-0.0128,-0.0318,0.0023,-0.1537,0.0155,-2.5884,1.4015,-3.1302
2024-10-11T13:00:36.400Z,0.0028,-0.9881,0.1718,-0.0245,-0.0128,-0.0318,0.0022,-0.1458,0.0152,-2.5884,1.4015,-3.1302
2024-10-11T13:00:36.410Z,0.0047,-0.9858,0.1719,-0.0245,-0.0128,-0.0318,0.0029,-0.1506,0.0172,-2.5884,1.4015,-3.1302
2024-10-11T13:00:36.419Z,0.0047,-0.9858,0.1719,-0.0688,-0.0029,-0.0338,0.0055,-0.1530,0.0174,-2.5914,1.4014,-3.1319
2024-10-11T13:00:36.430Z,0.0034,-0.9837,0.1727,-0.0688,-0.0029,-0.0338,0.0016,-0.1567,0.0170,-2.5914,1.4014,-3.1319
2024-10-11T13:00:36.440Z,0.0026,-0.9828,0.1749,-0.0688,-0.0029,-0.0338,0.0026,-0.1599,0.0196,-2.5914,1.4014,-3.1319
2024-10-11T13:00:36.449Z,0.0026,-0.9828,0.1749,-0.0287,-0.0455,-0.0642,0.0022,-0.1596,0.0177,-2.5947,1.4013,-3.1337
2024-10-11T13:00:36.460Z,0.0021,-0.9813,0.1746,-0.0287,-0.0455,-0.0642,0.0024,-0.1639,0.0186,-2.5947,1.4013,-3.1337
2024-10-11T13:00:36.470Z,0.0015,-0.9823,0.1756,-0.0287,-0.0455,-0.0642,0.0045,-0.1635,0.0171,-2.5947,1.4013,-3.1337
2024-10-11T13:00:36.479Z,0.0022,-0.9841,0.1752,-0.0290,-0.0215,-0.0647,0.0008,-0.1610,0.0156,-2.5977,1.4013,-3.1358
2024-10-11T13:00:36.489Z,0.0018,-0.9835,0.1753,-0.0290,-0.0215,-0.0647,0.0022,-0.1628,0.0162,-2.5977,1.4013,-3.1358
2024-10-11T13:00:36.499Z,0.0005,-0.9831,0.1767,-0.0290,-0.0215,-0.0647,0.0019,-0.1618,0.0184,-2.5977,1.4013,-3.1358
2024-10-11T13:00:36.509Z,0.0009,-0.9825,0.1767,-0.0112,-0.0178,-0.0774,0.0017,-0.1638,0.0187,-2.6009,1.4012,-3.1378
2024-10-11T13:00:36.520Z,0.0023,-0.9826,0.1766,-0.0112,-0.0178,-0.0774,0.0006,-0.1631,0.0184,-2.6009,1.4012,-3.1378
2024-10-11T13:00:36.529Z,0.0017,-0.9830,0.1762,-0.0112,-0.0178,-0.0774,0.0006,-0.1639,0.0186,-2.6009,1.4012,-3.1378
2024-10-11T13:00:36.539Z,0.0017,-0.9830,0.1762,-0.0255,-0.0216,-0.0788,0.0013,-0.1659,0.0211,-2.6044,1.4011,-3.1396
2024-10-11T13:00:36.549Z,0.0029,-0.9838,0.1785,-0.0255,-0.0216,-0.0788,-0.0035,-0.1637,0.0231,-2.6044,1.4011,-3.1396
2024-10-11T13:00:36.559Z,0.0008,-0.9808,0.1770,-0.0255,-0.0216,-0.0788,0.0001,-0.1617,0.0200,-2.6044,1.4011,-3.1396
2024-10-11T13:00:36.570Z,0.0008,-0.9808,0.1770,-0.0130,-0.0445,-0.0658,-0.0022,-0.1613,0.0244,-2.6084,1.4012,-3.1407
2024-10-11T13:00:36.579Z,0.0015,-0.9816,0.1721,-0.0130,-0.0445,-0.0658,0.0020,-0.1572,0.0220,-2.6084,1.4012,-3.1407
2024-10-11T13:00:36.590Z,-0.0004,-0.9795,0.1698,-0.0130,-0.0445,-0.0658,-0.0017,-0.1521,0.0241,-2.6084,1.4012,-3.1407
2024-10-11T13:00:36.599Z,-0.0008,-0.9803,0.1693,0.0103,-0.0562,-0.0055,0.0030,-0.1510,0.0273,-2.6130,1.4011,-3.1410
2024-10-11T13:00:36.609Z,-0.0036,-0.9793,0.1702,0.0103,-0.0562,-0.0055,0.0029,-0.1487,0.0255,-2.6130,1.4011,-3.1410
2024-10-11T13:00:36.619Z,-0.0036,-0.9793,0.1702,0.0103,-0.0562,-0.0055,0.0013,-0.1441,0.0271,-2.6130,1.4011,-3.1410
2024-10-11T13:00:36.629Z,-0.0089,-0.9797,0.1722,0.0765,-0.0540,-0.0212,0.0041,-0.1430,0.0290,-2.6180,1.4010,-3.1408
2024-10-11T13:00:36.639Z,-0.0117,-0.9804,0.1724,0.0765,-0.0540,-0.0212,0.0035,-0.1400,0.0274,-2.6180,1.4010,-3.1408
2024-10-11T13:00:36.649Z,-0.0136,-0.9840,0.1729,0.0765,-0.0540,-0.0212,0.0031,-0.1382,0.0303,-2.6180,1.4010,-3.1408
2024-10-11T13:00:36.659Z,-0.0145,-0.9859,0.1735,0.1415,-0.0042,-0.0509,0.0014,-0.1320,0.0289,-2.6232,1.4009,-3.1400
2024-10-11T13:00:36.670Z,-0.0145,-0.9859,0.1735,0.1415,-0.0042,-0.0509,0.0025,-0.1251,0.0263,-2.6232,1.4009,-3.1400
2024-10-11T13:00:36.679Z,-0.0149,-0.9832,0.1719,0.1415,-0.0042,-0.0509,0.0009,-0.1190,0.0290,-2.6232,1.4009,-3.1400
2024-10-11T13:00:36.689Z,-0.0146,-0.9833,0.1694,0.1458,-0.0198,-0.0236,0.0024,-0.1145,0.0291,-2.6284,1.4009,-3.1389
2024-10-11T13:00:36.699Z,-0.0144,-0.9823,0.1705,0.1458,-0.0198,-0.0236,0.0024,-0.1091,0.0292,-2.6284,1.4009,-3.1389
2024-10-11T13:00:36.709Z,-0.0162,-0.9828,0.1700,0.1458,-0.0198,-0.0236,0.0026,-0.1048,0.0289,-2.6284,1.4009,-3.1389
2024-10-11T13:00:36.721Z,-0.0198,-0.9851,0.1691,0.1602,-0.0180,-0.0055,0.0026,-0.0996,0.0288,-2.6335,1.4008,-3.1373
2024-10-11T13:00:36.729Z,-0.0211,-0.9873,0.1683,0.1602,-0.0180,-0.0055,0.0034,-0.0940,0.0276,-2.6335,1.4008,-3.1373
2024-10-11T13:00:36.739Z,-0.0238,-0.9879,0.1685,0.1602,-0.0180,-0.0055,0.0035,-0.0859,0.0258,-2.6335,1.4008,-3.1373
2024-10-11T13:00:36.749Z,-0.0236,-0.9872,0.1692,0.2263,0.0272,0.0127,0.0032,-0.0789,0.0279,-2.6385,1.4006,-3.1353
2024-10-11T13:00:36.760Z,-0.0251,-0.9855,0.1720,0.2263,0.0272,0.0127,0.0037,-0.0723,0.0236,-2.6385,1.4006,-3.1353
2024-10-11T13:00:36.771Z,-0.0266,-0.9838,0.1698,0.2263,0.0272,0.0127,0.0043,-0.0687,0.0242,-2.6385,1.4006,-3.1353
2024-10-11T13:00:36.779Z,-0.0230,-0.9858,0.1702,0.2231,-0.0086,0.0043,0.0020,-0.0640,0.0223,-2.6427,1.4005,-3.1334
2024-10-11T13:00:36.789Z,-0.0260,-0.9855,0.1685,0.2231,-0.0086,0.0043,0.0002,-0.0561,0.0209,-2.6427,1.4005,-3.1334
2024-10-11T13:00:36.799Z,-0.0237,-0.9847,0.1711,0.2231,-0.0086,0.0043,0.0020,-0.0531,0.0212,-2.6427,1.4005,-3.1334
2024-10-11T13:00:36.809Z,-0.0252,-0.9828,0.1686,0.2249,-0.0169,-0.0028,0.0053,-0.0474,0.0201,-2.6466,1.4004,-3.1315
2024-10-11T13:00:36.822Z,-0.0236,-0.9822,0.1686,0.2249,-0.0169,-0.0028,0.0046,-0.0464,0.0189,-2.6466,1.4004,-3.1315
2024-10-11T13:00:36.829Z,-0.0237,-0.9829,0.1684,0.2249,-0.0169,-0.0028,0.0030,-0.0401,0.0177,-2.6466,1.4004,-3.1315
2024-10-11T13:00:36.839Z,-0.0228,-0.9818,0.1672,0.2099,-0.0287,0.0210,0.0050,-0.0379,0.0190,-2.6499,1.4003,-3.1297
2024-10-11T13:00:36.849Z,-0.0239,-0.9827,0.1689,0.2099,-0.0287,0.0210,0.0055,-0.0321,0.0134,-2.6499,1.4003,-3.1297
2024-10-11T13:00:36.859Z,-0.0237,-0.9829,0.1701,0.2099,-0.0287,0.0210,0.0065,-0.0290,0.0174,-2.6499,1.4003,-3.1297
2024-10-11T13:00:36.870Z,-0.0232,-0.9846,0.1716,0.2047,-0.0218,-0.0144,0.0048,-0.0231,0.0174,-2.6530,1.4001,-3.1278
2024-10-11T13:00:36.879Z,-0.0226,-0.9828,0.1715,0.2047,-0.0218,-0.0144,0.0049,-0.0183,0.0166,-2.6530,1.4001,-3.1278
2024-10-11T13:00:36.889Z,-0.0208,-0.9818,0.1724,0.2047,-0.0218,-0.0144,0.0053,-0.0169,0.0124,-2.6530,1.4001,-3.1278
2024-10-11T13:00:36.899Z,-0.0208,-0.9863,0.1723,0.1803,-0.0080,-0.0286,0.0064,-0.0105,0.0114,-2.6558,1.3999,-3.1258
2024-10-11T13:00:36.909Z,-0.0220,-0.9878,0.1721,0.1803,-0.0080,-0.0286,0.0046,-0.0055,0.0138,-2.6558,1.3999,-3.1258
2024-10-11T13:00:36.920Z,-0.0215,-0.9906,0.1713,0.1803,-0.0080,-0.0286,0.0102,-0.0068,0.0121,-2.6558,1.3999,-3.1258
2024-10-11T13:00:36.929Z,-0.0205,-0.9891,0.1746,0.1629,0.0485,-0.0187,0.0144,-0.0127,0.0120,-2.6608,1.3997,-3.1212
2024-10-11T13:00:36.940Z,-0.0203,-0.9878,0.1791,0.1629,0.0485,-0.0187,0.0153,-0.0261,0.0109,-2.6608,1.3997,-3.1212
2024-10-11T13:00:36.949Z,-0.0189,-0.9901,0.1817,0.1629,0.0485,-0.0187,0.0172,-0.0321,0.0117,-2.6608,1.3997,-3.1212
2024-10-11T13:00:36.959Z,-0.0225,-0.9937,0.1827,0.1733,0.0748,-0.1114,0.0133,-0.0216,0.0108,-2.6640,1.3992,-3.1191
2024-10-11T13:00:36.970Z,-0.0203,-0.9931,0.1830,0.1733,0.0748,-0.1114,0.0040,0.0077,0.0087,-2.6640,1.3992,-3.1191
2024-10-11T13:00:36.979Z,-0.0177,-0.9962,0.1890,0.1733,0.0748,-0.1114,0.0001,0.0167,0.0087,-2.6640,1.3992,-3.1191
2024-10-11T13:00:36.989Z,-0.0204,-0.9974,0.1870,0.1422,0.1131,-0.1751,-0.0031,0.0222,0.0099,-2.6660,1.3992,-3.1169
2024-10-11T13:00:37.000Z,-0.0185,-0.9962,0.1851,0.1422,0.1131,-0.1751,-0.0033,0.0283,0.0086,-2.6660,1.3992,-3.1169
2024-10-11T13:00:37.010Z,-0.0207,-0.9939,0.1851,0.1422,0.1131,-0.1751,-0.0038,0.0317,0.0073,-2.6660,1.3992,-3.1169
2024-10-11T13:00:37.021Z,-0.0184,-0.9934,0.1823,0.1486,0.0872,-0.1267,-0.0060,0.0394,0.0042,-2.6676,1.3993,-3.1147
2024-10-11T13:00:37.029Z,-0.0167,-0.9915,0.1802,0.1486,0.0872,-0.1267,-0.0085,0.0414,0.0079,-2.6676,1.3993,-3.1147
2024-10-11T13:00:37.039Z,-0.0177,-0.9919,0.1792,0.1486,0.0872,-0.1267,-0.0108,0.0443,0.0058,-2.6676,1.3993,-3.1147
2024-10-11T13:00:37.049Z,-0.0186,-0.9935,0.1773,0.1342,0.0688,-0.0713,-0.0105,0.0442,0.0062,-2.6689,1.3996,-3.1124
2024-10-11T13:00:37.059Z,-0.0180,-0.9913,0.1784,0.1342,0.0688,-0.0713,-0.0110,0.0491,0.0026,-2.6689,1.3996,-3.1124
2024-10-11T13:00:37.070Z,-0.0152,-0.9897,0.1783,0.1342,0.0688,-0.0713,-0.0092,0.0473,0.0029,-2.6689,1.3996,-3.1124
2024-10-11T13:00:37.079Z,-0.0157,-0.9895,0.1769,0.0891,0.0417,-0.0705,-0.0104,0.0502,0.0040,-2.6701,1.3998,-3.1101
2024-10-11T13:00:37.089Z,-0.0139,-0.9880,0.1775,0.0891,0.0417,-0.0705,-0.0095,0.0500,0.0053,-2.6701,1.3998,-3.1101
2024-10-11T13:00:37.099Z,-0.0132,-0.9880,0.1773,0.0891,0.0417,-0.0705,-0.0123,0.0525,0.0022,-2.6701,1.3998,-3.1101
2024-10-11T13:00:37.109Z,-0.0149,-0.9880,0.1788,0.0776,0.0308,-0.0715,-0.0109,0.0534,0.0043,-2.6713,1.4001,-3.1076
2024-10-11T13:00:37.120Z,-0.0154,-0.9881,0.1798,0.0776,0.0308,-0.0715,-0.0115,0.0534,0.0006,-2.6713,1.4001,-3.1076
2024-10-11T13:00:37.129Z,-0.0177,-0.9875,0.1800,0.0776,0.0308,-0.0715,-0.0140,0.0547,-0.0006,-2.6713,1.4001,-3.1076
2024-10-11T13:00:37.139Z,-0.0195,-0.9866,0.1777,0.1156,0.0111,-0.0999,-0.0136,0.0535,-0.0003,-2.6721,1.4004,-3.1053
2024-10-11T13:00:37.149Z,-0.0178,-0.9871,0.1772,0.1156,0.0111,-0.0999,-0.0171,0.0534,-0.0009,-2.6721,1.4004,-3.1053
2024-10-11T13:00:37.159Z,-0.0144,-0.9863,0.1768,0.1156,0.0111,-0.0999,-0.0205,0.0548,-0.0008,-2.6721,1.4004,-3.1053
2024-10-11T13:00:37.170Z,-0.0145,-0.9877,0.1768,0.0724,0.0131,-0.0770,-0.0160,0.0548,-0.0028,-2.6735,1.4007,-3.1026
2024-10-11T13:00:37.179Z,-0.0147,-0.9899,0.1753,0.0724,0.0131,-0.0770,-0.0190,0.0559,-0.0009,-2.6735,1.4007,-3.1026
2024-10-11T13:00:37.190Z,-0.0164,-0.9874,0.1751,0.0724,0.0131,-0.0770,-0.0183,0.0518,-0.0009,-2.6735,1.4007,-3.1026
2024-10-11T13:00:37.199Z,-0.0155,-0.9839,0.1732,0.0950,-0.0057,-0.0524,-0.0199,0.0556,-0.0030,-2.6753,1.4009,-3.0994
2024-10-11T13:00:37.210Z,-0.0146,-0.9857,0.1719,0.0950,-0.0057,-0.0524,-0.0206,0.0537,-0.0025,-2.6753,1.4009,-3.0994
2024-10-11T13:00:37.221Z,-0.0158,-0.9840,0.1720,0.0950,-0.0057,-0.0524,-0.0203,0.0531,-0.0011,-2.6753,1.4009,-3.0994
2024-10-11T13:00:37.229Z,-0.0145,-0.9829,0.1714,0.0724,-0.0256,-0.0300,-0.0210,0.0523,-0.0018,-2.6769,1.4011,-3.0964
2024-10-11T13:00:37.239Z,-0.0163,-0.9826,0.1720,0.0724,-0.0256,-0.0300,-0.0190,0.0554,-0.0028,-2.6769,1.4011,-3.0964
2024-10-11T13:00:37.249Z,-0.0175,-0.9845,0.1695,0.0724,-0.0256,-0.0300,-0.0208,0.0545,-0.0042,-2.6769,1.4011,-3.0964
2024-10-11T13:00:37.259Z,-0.0182,-0.9859,0.1685,0.0993,-0.0028,-0.0027,-0.0224,0.0541,-0.0041,-2.6770,1.4016,-3.0949
2024-10-11T13:00:37.271Z,-0.0170,-0.9826,0.1671,0.0993,-0.0028,-0.0027,-0.0207,0.0545,-0.0053,-2.6770,1.4016,-3.0949
2024-10-11T13:00:37.279Z,-0.0156,-0.9811,0.1652,0.0993,-0.0028,-0.0027,-0.0214,0.0553,-0.0056,-2.6770,1.4016,-3.0949
2024-10-11T13:00:37.288Z,-0.0145,-0.9804,0.1669,0.0712,-0.0453,0.0241,-0.0169,0.0590,-0.0071,-2.6765,1.4022,-3.0940
2024-10-11T13:00:37.299Z,-0.0135,-0.9802,0.1652,0.0712,-0.0453,0.0241,-0.0190,0.0583,-0.0079,-2.6765,1.4022,-3.0940
2024-10-11T13:00:37.309Z,-0.0148,-0.9815,0.1631,0.0712,-0.0453,0.0241,-0.0193,0.0602,-0.0075,-2.6765,1.4022,-3.0940
2024-10-11T13:00:37.320Z,-0.0141,-0.9792,0.1639,0.0631,-0.0521,0.0442,-0.0155,0.0588,-0.0080,-2.6754,1.4027,-3.0936
2024-10-11T13:00:37.329Z,-0.0158,-0.9805,0.1645,0.0631,-0.0521,0.0442,-0.0163,0.0595,-0.0075,-2.6754,1.4027,-3.0936
2024-10-11T13:00:37.339Z,-0.0174,-0.9795,0.1646,0.0631,-0.0521,0.0442,-0.0143,0.0590,-0.0088,-2.6754,1.4027,-3.0936
2024-10-11T13:00:37.349Z,-0.0185,-0.9806,0.1647,0.0946,-0.0645,0.0146,-0.0147,0.0601,-0.0094,-2.6738,1.4032,-3.0936
2024-10-11T13:00:37.359Z,-0.0198,-0.9801,0.1665,0.0946,-0.0645,0.0146,-0.0164,0.0640,-0.0111,-2.6738,1.4032,-3.0936
2024-10-11T13:00:37.369Z,-0.0185,-0.9825,0.1647,0.0946,-0.0645,0.0146,-0.0141,0.0649,-0.0100,-2.6738,1.4032,-3.0936
2024-10-11T13:00:37.379Z,-0.0185,-0.9834,0.1642,0.1102,-0.0243,0.0158,-0.0143,0.0636,-0.0116,-2.6720,1.4037,-3.0937
2024-10-11T13:00:37.389Z,-0.0175,-0.9832,0.1632,0.1102,-0.0243,0.0158,-0.0114,0.0647,-0.0144,-2.6720,1.4037,-3.0937
2024-10-11T13:00:37.399Z,-0.0170,-0.9817,0.1641,0.1102,-0.0243,0.0158,-0.0128,0.0658,-0.0152,-2.6720,1.4037,-3.0937
2024-10-11T13:00:37.409Z,-0.0153,-0.9839,0.1605,0.0857,-0.0354,0.0233,-0.0110,0.0672,-0.0105,-2.6699,1.4041,-3.0942
2024-10-11T13:00:37.419Z,-0.0138,-0.9852,0.1596,0.0857,-0.0354,0.0233,-0.0103,0.0684,-0.0117,-2.6699,1.4041,-3.0942
2024-10-11T13:00:37.429Z,-0.0144,-0.9842,0.1588,0.0857,-0.0354,0.0233,-0.0101,0.0696,-0.0146,-2.6699,1.4041,-3.0942
2024-10-11T13:00:37.439Z,-0.0149,-0.9861,0.1577,0.0692,-0.0076,0.0764,-0.0085,0.0722,-0.0121,-2.6677,1.4044,-3.0945
2024-10-11T13:00:37.449Z,-0.0132,-0.9830,0.1575,0.0692,-0.0076,0.0764,-0.0089,0.0747,-0.0103,-2.6677,1.4044,-3.0945
2024-10-11T13:00:37.459Z,-0.0129,-0.9809,0.1589,0.0692,-0.0076,0.0764,-0.0081,0.0775,-0.0124,-2.6677,1.4044,-3.0945
2024-10-11T13:00:37.469Z,-0.0139,-0.9847,0.1591,0.0553,-0.0344,0.0537,-0.0059,0.0794,-0.0115,-2.6654,1.4047,-3.0947
2024-10-11T13:00:37.479Z,-0.0126,-0.9835,0.1609,0.0553,-0.0344,0.0537,-0.0057,0.0824,-0.0129,-2.6654,1.4047,-3.0947
2024-10-11T13:00:37.489Z,-0.0126,-0.9832,0.1629,0.0553,-0.0344,0.0537,-0.0064,0.0821,-0.0106,-2.6654,1.4047,-3.0947
2024-10-11T13:00:37.499Z,-0.0129,-0.9861,0.1628,0.0521,-0.0180,0.0241,-0.0049,0.0852,-0.0098,-2.6634,1.4049,-3.0944
2024-10-11T13:00:37.509Z,-0.0141,-0.9856,0.1621,0.0521,-0.0180,0.0241,-0.0045,0.0851,-0.0081,-2.6634,1.4049,-3.0944
2024-10-11T13:00:37.519Z,-0.0140,-0.9845,0.1631,0.0521,-0.0180,0.0241,-0.0044,0.0878,-0.0086,-2.6634,1.4049,-3.0944
2024-10-11T13:00:37.529Z,-0.0154,-0.9827,0.1650,0.0737,-0.0321,0.0168,-0.0035,0.0905,-0.0103,-2.6617,1.4050,-3.0937
2024-10-11T13:00:37.539Z,-0.0151,-0.9829,0.1670,0.0737,-0.0321,0.0168,-0.0009,0.0898,-0.0105,-2.6617,1.4050,-3.0937
2024-10-11T13:00:37.549Z,-0.0162,-0.9815,0.1661,0.0737,-0.0321,0.0168,0.0011,0.0881,-0.0091,-2.6617,1.4050,-3.0937
2024-10-11T13:00:37.559Z,-0.0140,-0.9822,0.1683,0.0694,-0.0431,-0.0316,0.0001,0.0919,-0.0120,-2.6599,1.4051,-3.0931
2024-10-11T13:00:37.569Z,-0.0137,-0.9829,0.1691,0.0694,-0.0431,-0.0316,0.0009,0.0907,-0.0094,-2.6599,1.4051,-3.0931
2024-10-11T13:00:37.579Z,-0.0147,-0.9838,0.1703,0.0694,-0.0431,-0.0316,0.0008,0.0922,-0.0121,-2.6599,1.4051,-3.0931
2024-10-11T13:00:37.589Z,-0.0142,-0.9832,0.1709,0.0667,-0.0266,-0.0551,0.0020,0.0919,-0.0108,-2.6579,1.4050,-3.0925
2024-10-11T13:00:37.599Z,-0.0168,-0.9838,0.1681,0.0667,-0.0266,-0.0551,0.0031,0.0944,-0.0129,-2.6579,1.4050,-3.0925
2024-10-11T13:00:37.609Z,-0.0160,-0.9853,0.1686,0.0667,-0.0266,-0.0551,0.0037,0.0936,-0.0125,-2.6579,1.4050,-3.0925
2024-10-11T13:00:37.619Z,-0.0170,-0.9853,0.1673,0.0773,-0.0135,-0.0277,0.0036,0.0912,-0.0145,-2.6554,1.4050,-3.0924
2024-10-11T13:00:37.629Z,-0.0172,-0.9867,0.1669,0.0773,-0.0135,-0.0277,0.0040,0.0881,-0.0154,-2.6554,1.4050,-3.0924
2024-10-11T13:00:37.639Z,-0.0171,-0.9873,0.1681,0.0773,-0.0135,-0.0277,0.0013,0.0894,-0.0205,-2.6554,1.4050,-3.0924
2024-10-11T13:00:37.649Z,-0.0161,-0.9878,0.1669,0.0938,0.0153,-0.0167,0.0032,0.0865,-0.0156,-2.6524,1.4049,-3.0930
2024-10-11T13:00:37.660Z,-0.0159,-0.9868,0.1689,0.0938,0.0153,-0.0167,0.0040,0.0885,-0.0201,-2.6524,1.4049,-3.0930
2024-10-11T13:00:37.670Z,-0.0181,-0.9879,0.1671,0.0938,0.0153,-0.0167,0.0023,0.0836,-0.0200,-2.6524,1.4049,-3.0930
2024-10-11T13:00:37.679Z,-0.0143,-0.9860,0.1656,0.0773,-0.0001,-0.0117,0.0021,0.0844,-0.0201,-2.6486,1.4049,-3.0944
2024-10-11T13:00:37.689Z,-0.0157,-0.9881,0.1678,0.0773,-0.0001,-0.0117,-0.0007,0.0831,-0.0237,-2.6486,1.4049,-3.0944
2024-10-11T13:00:37.699Z,-0.0158,-0.9880,0.1690,0.0773,-0.0001,-0.0117,-0.0002,0.0821,-0.0230,-2.6486,1.4049,-3.0944
2024-10-11T13:00:37.709Z,-0.0179,-0.9844,0.1695,0.0963,0.0009,-0.0502,0.0001,0.0787,-0.0230,-2.6445,1.4050,-3.0963
2024-10-11T13:00:37.718Z,-0.0168,-0.9833,0.1698,0.0963,0.0009,-0.0502,-0.0020,0.0782,-0.0261,-2.6445,1.4050,-3.0963
2024-10-11T13:00:37.729Z,-0.0155,-0.9860,0.1699,0.0963,0.0009,-0.0502,0.0018,0.0757,-0.0269,-2.6445,1.4050,-3.0963
2024-10-11T13:00:37.739Z,-0.0135,-0.9854,0.1702,0.0704,0.0075,-0.0480,0.0020,0.0762,-0.0266,-2.6395,1.4050,-3.0991
2024-10-11T13:00:37.748Z,-0.0126,-0.9863,0.1694,0.0704,0.0075,-0.0480,0.0023,0.0745,-0.0288,-2.6395,1.4050,-3.0991
2024-10-11T13:00:37.759Z,-0.0122,-0.9879,0.1710,0.0704,0.0075,-0.0480,0.0002,0.0735,-0.0294,-2.6395,1.4050,-3.0991
2024-10-11T13:00:37.769Z,-0.0120,-0.9876,0.1698,0.0558,0.0169,-0.0552,-0.0001,0.0728,-0.0301,-2.6343,1.4050,-3.1023
2024-10-11T13:00:37.779Z,-0.0106,-0.9877,0.1706,0.0558,0.0169,-0.0552,0.0022,0.0751,-0.0315,-2.6343,1.4050,-3.1023
2024-10-11T13:00:37.789Z,-0.0110,-0.9866,0.1705,0.0558,0.0169,-0.0552,0.0002,0.0728,-0.0297,-2.6343,1.4050,-3.1023
2024-10-11T13:00:37.799Z,-0.0103,-0.9846,0.1690,0.0401,-0.0105,-0.0379,0.0032,0.0715,-0.0287,-2.6288,1.4050,-3.1058
2024-10-11T13:00:37.809Z,-0.0106,-0.9843,0.1714,0.0401,-0.0105,-0.0379,0.0009,0.0729,-0.0297,-2.6288,1.4050,-3.1058
2024-10-11T13:00:37.819Z,-0.0123,-0.9846,0.1731,0.0401,-0.0105,-0.0379,-0.0026,0.0704,-0.0322,-2.6288,1.4050,-3.1058
2024-10-11T13:00:37.829Z,-0.0117,-0.9853,0.1716,0.0652,-0.0088,-0.0834,-0.0033,0.0729,-0.0302,-2.6233,1.4051,-3.1094
2024-10-11T13:00:37.840Z,-0.0120,-0.9872,0.1710,0.0652,-0.0088,-0.0834,-0.0018,0.0702,-0.0316,-2.6233,1.4051,-3.1094
2024-10-11T13:00:37.849Z,-0.0117,-0.9869,0.1720,0.0652,-0.0088,-0.0834,-0.0055,0.0715,-0.0325,-2.6233,1.4051,-3.1094
2024-10-11T13:00:37.859Z,-0.0112,-0.9863,0.1723,0.0650,0.0061,-0.0710,-0.0076,0.0735,-0.0328,-2.6176,1.4052,-3.1131
2024-10-11T13:00:37.869Z,-0.0092,-0.9867,0.1729,0.0650,0.0061,-0.0710,-0.0070,0.0707,-0.0319,-2.6176,1.4052,-3.1131
2024-10-11T13:00:37.880Z,-0.0092,-0.9872,0.1741,0.0650,0.0061,-0.0710,-0.0074,0.0736,-0.0355,-2.6176,1.4052,-3.1131
2024-10-11T13:00:37.889Z,-0.0096,-0.9874,0.1759,0.0593,0.0047,-0.1031,-0.0075,0.0781,-0.0329,-2.6118,1.4055,-3.1169
2024-10-11T13:00:37.899Z,-0.0071,-0.9885,0.1731,0.0593,0.0047,-0.1031,-0.0099,0.0767,-0.0334,-2.6118,1.4055,-3.1169
2024-10-11T13:00:37.909Z,-0.0092,-0.9879,0.1709,0.0593,0.0047,-0.1031,-0.0092,0.0765,-0.0321,-2.6118,1.4055,-3.1169
2024-10-11T13:00:37.919Z,-0.0058,-0.9868,0.1696,0.0430,0.0086,-0.0641,-0.0088,0.0805,-0.0328,-2.6060,1.4058,-3.1206
2024-10-11T13:00:37.929Z,-0.0078,-0.9875,0.1694,0.0430,0.0086,-0.0641,-0.0131,0.0820,-0.0342,-2.6060,1.4058,-3.1206
2024-10-11T13:00:37.939Z,-0.0050,-0.9869,0.1689,0.0430,0.0086,-0.0641,-0.0081,0.0831,-0.0344,-2.6060,1.4058,-3.1206
2024-10-11T13:00:37.949Z,-0.0048,-0.9877,0.1673,0.0110,0.0129,-0.0446,-0.0079,0.0831,-0.0307,-2.6002,1.4061,-3.1241
2024-10-11T13:00:37.959Z,-0.0055,-0.9876,0.1659,0.0110,0.0129,-0.0446,-0.0094,0.0864,-0.0308,-2.6002,1.4061,-3.1241
2024-10-11T13:00:37.969Z,-0.0063,-0.9857,0.1660,0.0110,0.0129,-0.0446,-0.0105,0.0902,-0.0288,-2.6002,1.4061,-3.1241
2024-10-11T13:00:37.979Z,-0.0060,-0.9852,0.1652,0.0377,-0.0142,-0.0221,-0.0113,0.0921,-0.0323,-2.5947,1.4064,-3.1271
2024-10-11T13:00:37.989Z,-0.0052,-0.9870,0.1651,0.0377,-0.0142,-0.0221,-0.0122,0.0942,-0.0283,-2.5947,1.4064,-3.1271
2024-10-11T13:00:37.999Z,-0.0057,-0.9875,0.1626,0.0377,-0.0142,-0.0221,-0.0076,0.0938,-0.0306,-2.5947,1.4064,-3.1271
2024-10-11T13:00:38.009Z,-0.0047,-0.9865,0.1605,0.0320,0.0106,0.0199,-0.0110,0.0948,-0.0291,-2.5893,1.4067,-3.1299
2024-10-11T13:00:38.019Z,-0.0060,-0.9875,0.1621,0.0320,0.0106,0.0199,-0.0094,0.0953,-0.0303,-2.5893,1.4067,-3.1299
2024-10-11T13:00:38.029Z,-0.0044,-0.9890,0.1590,0.0320,0.0106,0.0199,-0.0092,0.0947,-0.0283,-2.5893,1.4067,-3.1299
2024-10-11T13:00:38.039Z,-0.0037,-0.9869,0.1596,0.0240,0.0156,0.0381,-0.0075,0.0955,-0.0299,-2.5841,1.4069,-3.1324
2024-10-11T13:00:38.048Z,-0.0039,-0.9846,0.1581,0.0240,0.0156,0.0381,-0.0053,0.0978,-0.0255,-2.5841,1.4069,-3.1324
2024-10-11T13:00:38.059Z,-0.0037,-0.9855,0.1566,0.0240,0.0156,0.0381,-0.0037,0.0967,-0.0270,-2.5841,1.4069,-3.1324
2024-10-11T13:00:38.069Z,-0.0025,-0.9839,0.1582,0.0174,-0.0156,0.0547,-0.0071,0.0964,-0.0277,-2.5792,1.4071,-3.1347
2024-10-11T13:00:38.079Z,-0.0006,-0.9826,0.1576,0.0174,-0.0156,0.0547,-0.0041,0.0961,-0.0254,-2.5792,1.4071,-3.1347
2024-10-11T13:00:38.089Z,0.0010,-0.9839,0.1577,0.0174,-0.0156,0.0547,-0.0017,0.0974,-0.0249,-2.5792,1.4071,-3.1347
2024-10-11T13:00:38.099Z,0.0030,-0.9826,0.1568,-0.0281,-0.0355,0.0534,-0.0022,0.0962,-0.0233,-2.5746,1.4072,-3.1365
2024-10-11T13:00:38.110Z,0.0050,-0.9811,0.1577,-0.0281,-0.0355,0.0534,-0.0010,0.0987,-0.0217,-2.5746,1.4072,-3.1365
2024-10-11T13:00:38.119Z,0.0055,-0.9806,0.1589,-0.0281,-0.0355,0.0534,0.0016,0.1011,-0.0211,-2.5746,1.4072,-3.1365
2024-10-11T13:00:38.129Z,0.0026,-0.9817,0.1592,-0.0414,-0.0518,0.0325,0.0000,0.1022,-0.0207,-2.5706,1.4072,-3.1378
2024-10-11T13:00:38.139Z,0.0031,-0.9805,0.1609,-0.0414,-0.0518,0.0325,0.0038,0.1007,-0.0195,-2.5706,1.4072,-3.1378
2024-10-11T13:00:38.149Z,0.0008,-0.9812,0.1620,-0.0414,-0.0518,0.0325,0.0019,0.0984,-0.0170,-2.5706,1.4072,-3.1378
2024-10-11T13:00:38.159Z,0.0017,-0.9829,0.1602,-0.0110,-0.0452,0.0172,0.0015,0.1019,-0.0201,-2.5672,1.4071,-3.1384
2024-10-11T13:00:38.169Z,0.0029,-0.9837,0.1606,-0.0110,-0.0452,0.0172,0.0023,0.1014,-0.0180,-2.5672,1.4071,-3.1384
2024-10-11T13:00:38.179Z,0.0025,-0.9822,0.1600,-0.0110,-0.0452,0.0172,0.0060,0.1021,-0.0176,-2.5672,1.4071,-3.1384
2024-10-11T13:00:38.189Z,0.0030,-0.9825,0.1577,-0.0339,-0.0386,0.0344,0.0058,0.1035,-0.0190,-2.5638,1.4069,-3.1388
2024-10-11T13:00:38.199Z,0.0052,-0.9816,0.1578,-0.0339,-0.0386,0.0344,0.0073,0.1029,-0.0170,-2.5638,1.4069,-3.1388
2024-10-11T13:00:38.209Z,0.0053,-0.9828,0.1560,-0.0339,-0.0386,0.0344,0.0064,0.1047,-0.0157,-2.5638,1.4069,-3.1388
2024-10-11T13:00:38.219Z,0.0035,-0.9838,0.1556,-0.0455,-0.0311,0.0735,0.0109,0.1048,-0.0173,-2.5610,1.4067,-3.1388
2024-10-11T13:00:38.229Z,0.0040,-0.9803,0.1530,-0.0455,-0.0311,0.0735,0.0124,0.1032,-0.0155,-2.5610,1.4067,-3.1388
2024-10-11T13:00:38.239Z,0.0019,-0.9803,0.1546,-0.0455,-0.0311,0.0735,0.0113,0.1044,-0.0154,-2.5610,1.4067,-3.1388
2024-10-11T13:00:38.249Z,0.0018,-0.9812,0.1548,-0.0230,-0.0524,0.0862,0.0123,0.1073,-0.0171,-2.5583,1.4063,-3.1386
2024-10-11T13:00:38.259Z,0.0033,-0.9814,0.1558,-0.0230,-0.0524,0.0862,0.0119,0.1060,-0.0143,-2.5583,1.4063,-3.1386
2024-10-11T13:00:38.269Z,0.0021,-0.9823,0.1575,-0.0230,-0.0524,0.0862,0.0125,0.1024,-0.0143,-2.5583,1.4063,-3.1386
2024-10-11T13:00:38.279Z,0.0032,-0.9832,0.1579,-0.0343,-0.0395,0.0544,0.0144,0.1049,-0.0182,-2.5558,1.4059,-3.1381
2024-10-11T13:00:38.290Z,0.0016,-0.9840,0.1585,-0.0343,-0.0395,0.0544,0.0109,0.1037,-0.0144,-2.5558,1.4059,-3.1381
2024-10-11T13:00:38.299Z,0.0043,-0.9809,0.1599,-0.0343,-0.0395,0.0544,0.0158,0.0995,-0.0166,-2.5558,1.4059,-3.1381
2024-10-11T13:00:38.309Z,0.0064,-0.9806,0.1601,-0.0621,-0.0641,0.0483,0.0157,0.1028,-0.0157,-2.5531,1.4055,-3.1380
2024-10-11T13:00:38.320Z,0.0084,-0.9819,0.1611,-0.0621,-0.0641,0.0483,0.0162,0.1026,-0.0155,-2.5531,1.4055,-3.1380
2024-10-11T13:00:38.330Z,0.0092,-0.9803,0.1620,-0.0621,-0.0641,0.0483,0.0167,0.1041,-0.0143,-2.5531,1.4055,-3.1380
2024-10-11T13:00:38.339Z,0.0099,-0.9813,0.1634,-0.0998,-0.0540,0.0249,0.0174,0.1016,-0.0129,-2.5507,1.4050,-3.1376
2024-10-11T13:00:38.349Z,0.0110,-0.9831,0.1617,-0.0998,-0.0540,0.0249,0.0170,0.1023,-0.0124,-2.5507,1.4050,-3.1376
2024-10-11T13:00:38.358Z,0.0106,-0.9828,0.1619,-0.0998,-0.0540,0.0249,0.0191,0.1018,-0.0125,-2.5507,1.4050,-3.1376
2024-10-11T13:00:38.369Z,0.0125,-0.9819,0.1650,-0.1245,-0.0422,0.0162,0.0207,0.1036,-0.0111,-2.5485,1.4044,-3.1369
2024-10-11T13:00:38.379Z,0.0123,-0.9837,0.1674,-0.1245,-0.0422,0.0162,0.0214,0.0993,-0.0106,-2.5485,1.4044,-3.1369
2024-10-11T13:00:38.389Z,0.0122,-0.9853,0.1679,-0.1245,-0.0422,0.0162,0.0199,0.0968,-0.0108,-2.5485,1.4044,-3.1369
2024-10-11T13:00:38.399Z,0.0197,-0.9838,0.1700,-0.1626,-0.0120,-0.0282,0.0196,0.0892,-0.0094,-2.5467,1.4038,-3.1360
2024-10-11T13:00:38.408Z,0.0188,-0.9853,0.1689,-0.1626,-0.0120,-0.0282,0.0198,0.0889,-0.0082,-2.5467,1.4038,-3.1360
2024-10-11T13:00:38.420Z,0.0203,-0.9881,0.1693,-0.1626,-0.0120,-0.0282,0.0187,0.0756,-0.0081,-2.5467,1.4038,-3.1360
2024-10-11T13:00:38.429Z,0.0207,-0.9870,0.1678,-0.2206,0.0229,-0.0238,0.0187,0.0756,-0.0081,-2.5449,1.4032,-3.1356
2024-10-11T13:00:38.439Z,0.0186,-0.9872,0.1666,-0.2206,0.0229,-0.0238,0.0160,0.0698,-0.0097,-2.5449,1.4032,-3.1356
2024-10-11T13:00:38.451Z,0.0168,-0.9866,0.1675,-0.2206,0.0229,-0.0238,0.0177,0.0648,-0.0096,-2.5449,1.4032,-3.1356
2024-10-11T13:00:38.458Z,0.0145,-0.9857,0.1688,-0.1581,-0.0017,-0.0105,0.0177,0.0648,-0.0096,-2.5431,1.4027,-3.1354
2024-10-11T13:00:38.471Z,0.0155,-0.9847,0.1700,-0.1581,-0.0017,-0.0105,0.0115,0.0586,-0.0092,-2.5431,1.4027,-3.1354
2024-10-11T13:00:38.480Z,0.0137,-0.9850,0.1702,-0.1581,-0.0017,-0.0105,0.0137,0.0561,-0.0085,-2.5431,1.4027,-3.1354
2024-10-11T13:00:38.490Z,0.0120,-0.9851,0.1715,-0.1511,-0.0032,-0.0242,0.0129,0.0521,-0.0071,-2.5416,1.4022,-3.1354
2024-10-11T13:00:38.500Z,0.0091,-0.9847,0.1767,-0.1511,-0.0032,-0.0242,0.0118,0.0522,-0.0062,-2.5416,1.4022,-3.1354
2024-10-11T13:00:38.508Z,0.0103,-0.9874,0.1755,-0.1511,-0.0032,-0.0242,0.0118,0.0522,-0.0062,-2.5416,1.4022,-3.1354
2024-10-11T13:00:38.520Z,0.0074,-0.9873,0.1760,-0.0867,0.0118,-0.0635,0.0078,0.0487,-0.0087,-2.5403,1.4019,-3.1354
2024-10-11T13:00:38.529Z,0.0090,-0.9892,0.1776,-0.0867,0.0118,-0.0635,0.0078,0.0487,-0.0087,-2.5403,1.4019,-3.1354
2024-10-11T13:00:38.540Z,0.0067,-0.9902,0.1770,-0.0867,0.0118,-0.0635,0.0079,0.0481,-0.0059,-2.5403,1.4019,-3.1354
2024-10-11T13:00:38.550Z,0.0096,-0.9924,0.1772,-0.0908,0.0631,-0.0939,0.0063,0.0436,-0.0069,-2.5389,1.4016,-3.1356
2024-10-11T13:00:38.558Z,0.0062,-0.9911,0.1784,-0.0908,0.0631,-0.0939,0.0063,0.0436,-0.0069,-2.5389,1.4016,-3.1356
2024-10-11T13:00:38.570Z,0.0087,-0.9924,0.1798,-0.0908,0.0631,-0.0939,0.0034,0.0409,-0.0057,-2.5389,1.4016,-3.1356
2024-10-11T13:00:38.580Z,0.0048,-1.0097,0.1835,-0.0918,0.1290,-0.1361,0.0039,0.0397,-0.0056,-2.5377,1.4015,-3.1358
2024-10-11T13:00:38.590Z,0.0072,-1.0320,0.1773,-0.0918,0.1290,-0.1361,0.0018,0.0396,-0.0077,-2.5377,1.4015,-3.1358
2024-10-11T13:00:38.600Z,0.0074,-1.0384,0.1718,-0.0918,0.1290,-0.1361,0.0019,0.0390,-0.0034,-2.5377,1.4015,-3.1358
2024-10-11T13:00:38.611Z,0.0082,-1.0304,0.1822,-0.0956,0.4705,-0.0554,-0.0010,0.0389,-0.0060,-2.5366,1.4014,-3.1359
2024-10-11T13:00:38.620Z,0.0048,-1.0263,0.1844,-0.0956,0.4705,-0.0554,-0.0043,0.0381,-0.0056,-2.5366,1.4014,-3.1359
2024-10-11T13:00:38.630Z,0.0085,-1.0265,0.1820,-0.0956,0.4705,-0.0554,-0.0086,0.0366,-0.0051,-2.5366,1.4014,-3.1359
2024-10-11T13:00:38.640Z,0.0051,-1.0190,0.1843,-0.0719,0.3598,-0.1235,-0.0119,0.0369,-0.0059,-2.5356,1.4014,-3.1361
2024-10-11T13:00:38.650Z,0.0101,-1.0128,0.1871,-0.0719,0.3598,-0.1235,-0.0170,0.0366,-0.0052,-2.5356,1.4014,-3.1361
2024-10-11T13:00:38.659Z,0.0079,-1.0086,0.1985,-0.0719,0.3598,-0.1235,-0.0170,0.0366,-0.0052,-2.5356,1.4014,-3.1361
2024-10-11T13:00:38.669Z,0.0094,-1.0011,0.2007,-0.0903,0.1838,-0.3118,-0.0241,0.0324,-0.0006,-2.5350,1.4018,-3.1357
2024-10-11T13:00:38.680Z,0.0068,-0.9957,0.1880,-0.0903,0.1838,-0.3118,-0.0251,0.0326,-0.0033,-2.5350,1.4018,-3.1357
2024-10-11T13:00:38.692Z,0.0065,-0.9921,0.1783,-0.0977,0.0358,-0.0754,-0.0251,0.0326,-0.0033,-2.5347,1.4025,-3.1353
2024-10-11T13:00:38.700Z,0.0111,-0.9908,0.1794,-0.0977,0.0358,-0.0754,-0.0251,0.0301,-0.0006,-2.5347,1.4025,-3.1353
2024-10-11T13:00:38.709Z,0.0095,-1.0066,0.1731,-0.0977,0.0358,-0.0754,-0.0271,0.0284,-0.0006,-2.5347,1.4025,-3.1353
2024-10-11T13:00:38.718Z,0.0087,-1.0043,0.1730,-0.0977,0.0358,-0.0754,-0.0271,0.0284,-0.0006,-2.5347,1.4025,-3.1353
2024-10-11T13:00:38.729Z,0.0065,-0.9787,0.1793,-0.0808,0.0826,-0.0849,-0.0350,0.0310,-0.0016,-2.5347,1.4033,-3.1347
2024-10-11T13:00:38.740Z,0.0103,-0.9657,0.1969,-0.0808,0.0826,-0.0849,-0.0350,0.0310,-0.0016,-2.5347,1.4033,-3.1347
2024-10-11T13:00:38.749Z,0.0134,-0.9691,0.1823,-0.0808,0.0826,-0.0849,-0.0372,0.0318,0.0010,-2.5347,1.4033,-3.1347
2024-10-11T13:00:38.760Z,0.0096,-0.9656,0.1666,-0.1420,-0.1612,-0.0912,-0.0431,0.0306,-0.0017,-2.5349,1.4044,-3.1338
2024-10-11T13:00:38.770Z,0.0027,-0.9638,0.1686,-0.1420,-0.1612,-0.0912,-0.0372,0.0286,0.0010,-2.5349,1.4044,-3.1338
2024-10-11T13:00:38.779Z,0.0017,-0.9663,0.1637,-0.1420,-0.1612,-0.0912,-0.0407,0.0285,0.0027,-2.5349,1.4044,-3.1338
2024-10-11T13:00:38.790Z,0.0016,-0.9650,0.1644,-0.0278,-0.1979,-0.0044,-0.0407,0.0285,0.0027,-2.5354,1.4056,-3.1327
2024-10-11T13:00:38.799Z,0.0077,-0.9662,0.1644,-0.0278,-0.1979,-0.0044,-0.0403,0.0310,0.0004,-2.5354,1.4056,-3.1327
2024-10-11T13:00:38.808Z,0.0097,-0.9701,0.1619,-0.0278,-0.1979,-0.0044,-0.0403,0.0310,0.0004,-2.5354,1.4056,-3.1327
2024-10-11T13:00:38.819Z,0.0191,-0.9751,0.1763,-0.1604,-0.1441,-0.0631,-0.0386,0.0325,0.0047,-2.5358,1.4067,-3.1317
2024-10-11T13:00:38.829Z,0.0185,-0.9787,0.1738,-0.1604,-0.1441,-0.0631,-0.0413,0.0365,0.0085,-2.5358,1.4067,-3.1317
2024-10-11T13:00:38.841Z,0.0118,-0.9927,0.1497,-0.1229,0.0478,0.1676,-0.0413,0.0365,0.0085,-2.5370,1.4079,-3.1297
2024-10-11T13:00:38.849Z,0.0106,-0.9874,0.1532,-0.1229,0.0478,0.1676,-0.0371,0.0386,0.0097,-2.5370,1.4079,-3.1297
2024-10-11T13:00:38.859Z,0.0087,-0.9720,0.1533,-0.1229,0.0478,0.1676,-0.0385,0.0355,0.0122,-2.5370,1.4079,-3.1297
2024-10-11T13:00:38.870Z,0.0096,-0.9745,0.1477,-0.1229,0.0478,0.1676,-0.0360,0.0337,0.0113,-2.5370,1.4079,-3.1297
2024-10-11T13:00:38.879Z,0.0036,-0.9759,0.1454,-0.0706,-0.1042,0.2122,-0.0364,0.0333,0.0121,-2.5392,1.4089,-3.1268
2024-10-11T13:00:38.891Z,0.0042,-0.9690,0.1592,-0.0706,-0.1042,0.2122,-0.0340,0.0314,0.0124,-2.5392,1.4089,-3.1268
2024-10-11T13:00:38.899Z,-0.0025,-0.9712,0.1540,-0.0706,-0.1042,0.2122,-0.0345,0.0256,0.0095,-2.5392,1.4089,-3.1268
2024-10-11T13:00:38.909Z,-0.0074,-0.9742,0.1417,0.0349,-0.1226,0.1594,-0.0256,0.0249,0.0101,-2.5412,1.4099,-3.1241
2024-10-11T13:00:38.919Z,-0.0055,-0.9703,0.1366,0.0349,-0.1226,0.1594,-0.0202,0.0251,0.0097,-2.5412,1.4099,-3.1241
2024-10-11T13:00:38.930Z,-0.0068,-0.9718,0.1336,0.0496,-0.1297,0.2585,-0.0183,0.0257,0.0067,-2.5427,1.4106,-3.1219
2024-10-11T13:00:38.941Z,-0.0085,-0.9725,0.1316,0.0496,-0.1297,0.2585,-0.0134,0.0279,0.0045,-2.5427,1.4106,-3.1219
2024-10-11T13:00:38.949Z,-0.0084,-0.9720,0.1381,0.0496,-0.1297,0.2585,-0.0072,0.0241,0.0071,-2.5427,1.4106,-3.1219
2024-10-11T13:00:38.959Z,-0.0107,-0.9715,0.1367,0.0496,-0.1297,0.2585,-0.0072,0.0241,0.0071,-2.5427,1.4106,-3.1219
2024-10-11T13:00:38.969Z,-0.0102,-0.9798,0.1381,0.0682,-0.1012,0.1933,-0.0052,0.0241,0.0016,-2.5437,1.4109,-3.1205
2024-10-11T13:00:38.980Z,-0.0064,-0.9781,0.1548,0.0682,-0.1012,0.1933,0.0001,0.0225,0.0061,-2.5437,1.4109,-3.1205
2024-10-11T13:00:38.993Z,-0.0090,-0.9754,0.1516,0.0278,-0.0589,0.0986,0.0004,0.0239,0.0006,-2.5446,1.4110,-3.1191
2024-10-11T13:00:38.999Z,-0.0045,-0.9889,0.1460,0.0278,-0.0589,0.0986,0.0017,0.0275,0.0050,-2.5446,1.4110,-3.1191
2024-10-11T13:00:39.010Z,-0.0030,-1.0001,0.1508,0.0278,-0.0589,0.0986,0.0070,0.0297,0.0082,-2.5446,1.4110,-3.1191
2024-10-11T13:00:39.021Z,-0.0008,-1.0064,0.1500,-0.0443,0.2178,0.1536,0.0071,0.0287,0.0084,-2.5460,1.4109,-3.1172
2024-10-11T13:00:39.029Z,0.0004,-1.0128,0.1433,-0.0443,0.2178,0.1536,0.0070,0.0320,0.0098,-2.5460,1.4109,-3.1172
2024-10-11T13:00:39.039Z,-0.0010,-1.0092,0.1533,-0.0443,0.2178,0.1536,0.0068,0.0329,0.0105,-2.5460,1.4109,-3.1172
2024-10-11T13:00:39.051Z,-0.0019,-1.0051,0.1599,-0.0022,0.1568,0.0011,0.0050,0.0349,0.0076,-2.5479,1.4107,-3.1145
2024-10-11T13:00:39.059Z,-0.0074,-1.0016,0.1627,-0.0022,0.1568,0.0011,0.0044,0.0340,0.0102,-2.5479,1.4107,-3.1145
2024-10-11T13:00:39.069Z,-0.0119,-0.9980,0.1573,-0.0022,0.1568,0.0011,0.0010,0.0337,0.0075,-2.5479,1.4107,-3.1145
2024-10-11T13:00:39.080Z,-0.0105,-0.9918,0.1566,0.0370,0.0080,0.0690,0.0030,0.0336,0.0072,-2.5497,1.4106,-3.1120
2024-10-11T13:00:39.090Z,-0.0073,-0.9879,0.1541,0.0370,0.0080,0.0690,0.0035,0.0342,0.0085,-2.5497,1.4106,-3.1120
2024-10-11T13:00:39.099Z,-0.0110,-0.9954,0.1584,0.0370,0.0080,0.0690,0.0010,0.0361,0.0075,-2.5497,1.4106,-3.1120
2024-10-11T13:00:39.109Z,-0.0129,-0.9924,0.1619,0.0370,0.0080,0.0690,0.0002,0.0378,0.0032,-2.5497,1.4106,-3.1120
2024-10-11T13:00:39.119Z,-0.0144,-0.9930,0.1600,0.0867,0.0496,-0.0486,-0.0002,0.0389,0.0036,-2.5510,1.4105,-3.1099
2024-10-11T13:00:39.129Z,-0.0145,-0.9948,0.1630,0.0867,0.0496,-0.0486,-0.0015,0.0398,0.0016,-2.5510,1.4105,-3.1099
2024-10-11T13:00:39.142Z,-0.0180,-0.9853,0.1561,0.1078,-0.1006,-0.0107,-0.0007,0.0392,0.0007,-2.5519,1.4105,-3.1080
2024-10-11T13:00:39.149Z,-0.0157,-0.9697,0.1571,0.1078,-0.1006,-0.0107,-0.0035,0.0396,0.0021,-2.5519,1.4105,-3.1080
2024-10-11T13:00:39.160Z,-0.0180,-0.9588,0.1631,0.1078,-0.1006,-0.0107,-0.0039,0.0382,-0.0012,-2.5519,1.4105,-3.1080
2024-10-11T13:00:39.170Z,-0.0170,-0.9596,0.1568,0.0994,-0.2518,0.0442,-0.0039,0.0382,-0.0012,-2.5521,1.4106,-3.1069
2024-10-11T13:00:39.180Z,-0.0144,-0.9624,0.1507,0.0994,-0.2518,0.0442,-0.0019,0.0363,-0.0016,-2.5521,1.4106,-3.1069
2024-10-11T13:00:39.191Z,-0.0105,-0.9684,0.1543,0.0994,-0.2518,0.0442,-0.0022,0.0358,-0.0021,-2.5521,1.4106,-3.1069
2024-10-11T13:00:39.200Z,-0.0095,-0.9731,0.1482,0.0142,-0.1276,0.0827,-0.0032,0.0370,-0.0025,-2.5521,1.4107,-3.1062
2024-10-11T13:00:39.209Z,-0.0061,-0.9768,0.1524,0.0142,-0.1276,0.0827,0.0025,0.0344,-0.0048,-2.5521,1.4107,-3.1062
2024-10-11T13:00:39.219Z,-0.0092,-0.9864,0.1516,0.0142,-0.1276,0.0827,0.0016,0.0321,-0.0065,-2.5521,1.4107,-3.1062
2024-10-11T13:00:39.230Z,-0.0110,-1.0005,0.1536,0.0387,0.1266,0.0913,0.0035,0.0307,-0.0055,-2.5517,1.4107,-3.1058
2024-10-11T13:00:39.242Z,-0.0089,-0.9987,0.1565,0.0387,0.1266,0.0913,0.0020,0.0261,-0.0074,-2.5517,1.4107,-3.1058
2024-10-11T13:00:39.249Z,-0.0038,-0.9960,0.1422,0.0387,0.1266,0.0913,0.0039,0.0287,-0.0087,-2.5517,1.4107,-3.1058
2024-10-11T13:00:39.260Z,-0.0020,-0.9909,0.1520,-0.0067,-0.0292,0.1111,0.0021,0.0265,-0.0099,-2.5506,1.4105,-3.1063
2024-10-11T13:00:39.269Z,-0.0056,-0.9792,0.1558,-0.0067,-0.0292,0.1111,0.0031,0.0280,-0.0086,-2.5506,1.4105,-3.1063
2024-10-11T13:00:39.279Z,-0.0046,-0.9805,0.1582,-0.0067,-0.0292,0.1111,0.0026,0.0263,-0.0105,-2.5506,1.4105,-3.1063
2024-10-11T13:00:39.289Z,-0.0102,-0.9864,0.1592,-0.0067,-0.0292,0.1111,0.0019,0.0208,-0.0105,-2.5506,1.4105,-3.1063
2024-10-11T13:00:39.299Z,-0.0101,-0.9896,0.1595,0.0550,0.0226,0.0199,-0.0004,0.0207,-0.0116,-2.5489,1.4104,-3.1075
2024-10-11T13:00:39.309Z,-0.0098,-0.9852,0.1665,0.0550,0.0226,0.0199,0.0032,0.0203,-0.0111,-2.5489,1.4104,-3.1075
2024-10-11T13:00:39.319Z,-0.0082,-0.9826,0.1641,0.0393,-0.0619,-0.0393,-0.0001,0.0223,-0.0116,-2.5471,1.4105,-3.1089
2024-10-11T13:00:39.329Z,-0.0108,-0.9801,0.1608,0.0393,-0.0619,-0.0393,0.0011,0.0234,-0.0109,-2.5471,1.4105,-3.1089
2024-10-11T13:00:39.340Z,-0.0079,-0.9819,0.1614,0.0393,-0.0619,-0.0393,0.0010,0.0244,-0.0109,-2.5471,1.4105,-3.1089
2024-10-11T13:00:39.349Z,-0.0065,-0.9877,0.1623,0.0203,0.0496,-0.0892,-0.0002,0.0231,-0.0106,-2.5450,1.4105,-3.1105
2024-10-11T13:00:39.359Z,-0.0074,-0.9939,0.1667,0.0203,0.0496,-0.0892,0.0012,0.0226,-0.0092,-2.5450,1.4105,-3.1105
2024-10-11T13:00:39.369Z,-0.0061,-0.9906,0.1690,0.0203,0.0496,-0.0892,0.0029,0.0234,-0.0093,-2.5450,1.4105,-3.1105
2024-10-11T13:00:39.379Z,-0.0051,-0.9839,0.1584,0.0024,-0.0418,-0.0613,0.0029,0.0234,-0.0093,-2.5434,1.4105,-3.1116
2024-10-11T13:00:39.390Z,-0.0067,-0.9830,0.1658,0.0024,-0.0418,-0.0613,0.0001,0.0275,-0.0112,-2.5434,1.4105,-3.1116
2024-10-11T13:00:39.399Z,-0.0098,-0.9848,0.1614,0.0024,-0.0418,-0.0613,-0.0001,0.0270,-0.0111,-2.5434,1.4105,-3.1116
2024-10-11T13:00:39.408Z,-0.0029,-0.9888,0.1554,0.0024,-0.0418,-0.0613,-0.0003,0.0319,-0.0100,-2.5434,1.4105,-3.1116
2024-10-11T13:00:39.419Z,-0.0033,-0.9925,0.1606,-0.0263,0.0345,0.0239,0.0013,0.0331,-0.0086,-2.5418,1.4104,-3.1126
2024-10-11T13:00:39.430Z,-0.0027,-0.9958,0.1697,-0.0263,0.0345,0.0239,0.0012,0.0307,-0.0062,-2.5418,1.4104,-3.1126
2024-10-11T13:00:39.442Z,-0.0037,-0.9997,0.1714,-0.0251,0.1470,-0.0993,-0.0014,0.0277,-0.0069,-2.5407,1.4103,-3.1131
2024-10-11T13:00:39.448Z,-0.0037,-1.0027,0.1711,-0.0251,0.1470,-0.0993,-0.0004,0.0275,-0.0080,-2.5407,1.4103,-3.1131
2024-10-11T13:00:39.459Z,-0.0112,-1.0007,0.1723,-0.0251,0.1470,-0.0993,0.0013,0.0269,-0.0063,-2.5407,1.4103,-3.1131
2024-10-11T13:00:39.469Z,-0.0052,-0.9991,0.1712,-0.0093,0.1151,-0.1077,-0.0026,0.0269,-0.0022,-2.5397,1.4103,-3.1134
2024-10-11T13:00:39.479Z,-0.0048,-0.9978,0.1743,-0.0093,0.1151,-0.1077,-0.0045,0.0301,-0.0019,-2.5397,1.4103,-3.1134
2024-10-11T13:00:39.490Z,-0.0026,-0.9928,0.1784,-0.0093,0.1151,-0.1077,-0.0086,0.0340,-0.0059,-2.5397,1.4103,-3.1134
2024-10-11T13:00:39.499Z,-0.0072,-0.9874,0.1740,0.0678,-0.0460,-0.1651,-0.0074,0.0347,-0.0019,-2.5391,1.4105,-3.1134
2024-10-11T13:00:39.509Z,-0.0113,-0.9789,0.1838,0.0678,-0.0460,-0.1651,-0.0121,0.0342,-0.0073,-2.5391,1.4105,-3.1134
2024-10-11T13:00:39.519Z,-0.0071,-0.9780,0.1862,0.0678,-0.0460,-0.1651,-0.0094,0.0339,-0.0067,-2.5391,1.4105,-3.1134
2024-10-11T13:00:39.529Z,-0.0075,-0.9841,0.1838,0.0206,-0.0180,-0.1880,-0.0119,0.0340,-0.0049,-2.5383,1.4107,-3.1134
2024-10-11T13:00:39.541Z,-0.0045,-0.9851,0.1818,0.0206,-0.0180,-0.1880,-0.0117,0.0320,-0.0041,-2.5383,1.4107,-3.1134
2024-10-11T13:00:39.549Z,-0.0066,-0.9841,0.1757,0.0206,-0.0180,-0.1880,-0.0125,0.0345,-0.0046,-2.5383,1.4107,-3.1134
2024-10-11T13:00:39.560Z,-0.0105,-0.9815,0.1748,0.0475,-0.0785,-0.1212,-0.0128,0.0329,-0.0047,-2.5377,1.4111,-3.1132
2024-10-11T13:00:39.569Z,-0.0074,-0.9755,0.1725,0.0475,-0.0785,-0.1212,-0.0108,0.0324,-0.0070,-2.5377,1.4111,-3.1132
2024-10-11T13:00:39.579Z,-0.0056,-0.9683,0.1715,0.0475,-0.0785,-0.1212,-0.0117,0.0342,-0.0100,-2.5377,1.4111,-3.1132
2024-10-11T13:00:39.590Z,-0.0068,-0.9709,0.1678,0.0138,-0.1029,-0.0673,-0.0098,0.0316,-0.0071,-2.5366,1.4113,-3.1135
2024-10-11T13:00:39.599Z,-0.0031,-0.9823,0.1671,0.0138,-0.1029,-0.0673,-0.0104,0.0312,-0.0094,-2.5366,1.4113,-3.1135
2024-10-11T13:00:39.609Z,0.0010,-0.9904,0.1731,0.0138,-0.1029,-0.0673,-0.0085,0.0309,-0.0067,-2.5366,1.4113,-3.1135
2024-10-11T13:00:39.619Z,0.0021,-0.9981,0.1609,-0.0599,0.1578,0.0747,-0.0059,0.0310,-0.0049,-2.5356,1.4115,-3.1138
2024-10-11T13:00:39.629Z,0.0002,-1.0068,0.1470,-0.0599,0.1578,0.0747,-0.0078,0.0315,-0.0062,-2.5356,1.4115,-3.1138
2024-10-11T13:00:39.639Z,-0.0025,-1.0061,0.1539,-0.0599,0.1578,0.0747,-0.0022,0.0298,-0.0064,-2.5356,1.4115,-3.1138
2024-10-11T13:00:39.650Z,-0.0063,-1.0089,0.1554,0.0297,0.2325,0.0257,-0.0018,0.0249,-0.0070,-2.5345,1.4116,-3.1143
2024-10-11T13:00:39.659Z,-0.0072,-1.0106,0.1503,0.0297,0.2325,0.0257,-0.0030,0.0232,-0.0095,-2.5345,1.4116,-3.1143
2024-10-11T13:00:39.669Z,-0.0057,-1.0005,0.1627,0.0297,0.2325,0.0257,-0.0038,0.0212,-0.0074,-2.5345,1.4116,-3.1143
2024-10-11T13:00:39.679Z,-0.0063,-0.9928,0.1645,0.0094,0.0198,-0.0866,-0.0030,0.0154,-0.0084,-2.5331,1.4116,-3.1153
2024-10-11T13:00:39.689Z,-0.0025,-0.9884,0.1656,0.0094,0.0198,-0.0866,-0.0048,0.0185,-0.0100,-2.5331,1.4116,-3.1153
2024-10-11T13:00:39.699Z,-0.0023,-0.9889,0.1676,0.0094,0.0198,-0.0866,-0.0070,0.0203,-0.0084,-2.5331,1.4116,-3.1153
2024-10-11T13:00:39.709Z,-0.0009,-0.9943,0.1653,-0.0343,0.1107,-0.0351,-0.0100,0.0223,-0.0065,-2.5316,1.4118,-3.1164
2024-10-11T13:00:39.718Z,-0.0014,-1.0009,0.1630,-0.0343,0.1107,-0.0351,-0.0078,0.0209,-0.0088,-2.5316,1.4118,-3.1164
2024-10-11T13:00:39.729Z,0.0011,-0.9971,0.1641,-0.0343,0.1107,-0.0351,-0.0073,0.0183,-0.0076,-2.5316,1.4118,-3.1164
2024-10-11T13:00:39.739Z,0.0049,-0.9903,0.1625,-0.0810,0.0276,0.0036,-0.0036,0.0139,-0.0076,-2.5306,1.4119,-3.1172
2024-10-11T13:00:39.749Z,0.0019,-0.9923,0.1531,-0.0810,0.0276,0.0036,-0.0016,0.0137,-0.0091,-2.5306,1.4119,-3.1172
2024-10-11T13:00:39.759Z,-0.0030,-0.9893,0.1526,-0.0810,0.0276,0.0036,0.0002,0.0106,-0.0064,-2.5306,1.4119,-3.1172
2024-10-11T13:00:39.769Z,-0.0017,-0.9818,0.1513,-0.0223,-0.0886,0.0937,0.0015,0.0129,-0.0062,-2.5295,1.4119,-3.1181
2024-10-11T13:00:39.779Z,-0.0004,-0.9763,0.1497,-0.0223,-0.0886,0.0937,0.0034,0.0117,-0.0062,-2.5295,1.4119,-3.1181
2024-10-11T13:00:39.789Z,-0.0000,-0.9696,0.1389,-0.0223,-0.0886,0.0937,0.0030,0.0081,-0.0093,-2.5295,1.4119,-3.1181
2024-10-11T13:00:39.800Z,0.0039,-0.9631,0.1451,-0.0659,-0.2487,0.1691,0.0062,0.0085,-0.0081,-2.5281,1.4118,-3.1195
2024-10-11T13:00:39.810Z,0.0042,-0.9651,0.1413,-0.0659,-0.2487,0.1691,0.0051,0.0045,-0.0080,-2.5281,1.4118,-3.1195
2024-10-11T13:00:39.819Z,0.0035,-0.9701,0.1398,-0.0659,-0.2487,0.1691,0.0128,-0.0023,-0.0078,-2.5281,1.4118,-3.1195
2024-10-11T13:00:39.829Z,-0.0018,-0.9711,0.1459,-0.0096,-0.1610,0.1084,0.0133,-0.0022,-0.0103,-2.5265,1.4115,-3.1212
2024-10-11T13:00:39.839Z,-0.0028,-0.9716,0.1459,-0.0096,-0.1610,0.1084,0.0128,-0.0064,-0.0121,-2.5265,1.4115,-3.1212
2024-10-11T13:00:39.849Z,-0.0093,-0.9713,0.1492,-0.0096,-0.1610,0.1084,0.0157,-0.0089,-0.0142,-2.5265,1.4115,-3.1212
2024-10-11T13:00:39.861Z,-0.0080,-0.9722,0.1508,0.0085,-0.1245,0.0448,0.0136,-0.0071,-0.0132,-2.5244,1.4111,-3.1238
2024-10-11T13:00:39.870Z,0.0011,-0.9817,0.1557,0.0085,-0.1245,0.0448,0.0162,-0.0110,-0.0122,-2.5244,1.4111,-3.1238
2024-10-11T13:00:39.879Z,0.0054,-0.9906,0.1534,0.0085,-0.1245,0.0448,0.0155,-0.0095,-0.0130,-2.5244,1.4111,-3.1238
2024-10-11T13:00:39.889Z,0.0102,-0.9884,0.1565,-0.1643,-0.0282,0.0034,0.0146,-0.0114,-0.0110,-2.5222,1.4107,-3.1265
2024-10-11T13:00:39.899Z,0.0168,-0.9780,0.1621,-0.1643,-0.0282,0.0034,0.0155,-0.0103,-0.0073,-2.5222,1.4107,-3.1265
2024-10-11T13:00:39.909Z,0.0150,-0.9775,0.1673,-0.1643,-0.0282,0.0034,0.0104,-0.0098,-0.0048,-2.5222,1.4107,-3.1265
2024-10-11T13:00:39.919Z,0.0103,-0.9758,0.1681,-0.1041,-0.1381,-0.1260,0.0085,-0.0086,-0.0053,-2.5212,1.4104,-3.1280
2024-10-11T13:00:39.929Z,0.0074,-0.9738,0.1738,-0.1041,-0.1381,-0.1260,0.0094,-0.0089,-0.0046,-2.5212,1.4104,-3.1280
2024-10-11T13:00:39.939Z,0.0068,-0.9798,0.1731,-0.1041,-0.1381,-0.1260,0.0058,-0.0092,-0.0089,-2.5212,1.4104,-3.1280
2024-10-11T13:00:39.949Z,0.0022,-0.9841,0.1682,-0.0258,-0.0515,-0.0606,0.0076,-0.0081,-0.0057,-2.5203,1.4101,-3.1295
2024-10-11T13:00:39.959Z,0.0020,-0.9792,0.1675,-0.0258,-0.0515,-0.0606,0.0038,-0.0128,-0.0083,-2.5203,1.4101,-3.1295
2024-10-11T13:00:39.969Z,0.0047,-0.9814,0.1664,-0.0258,-0.0515,-0.0606,0.0027,-0.0174,-0.0056,-2.5203,1.4101,-3.1295
2024-10-11T13:00:39.979Z,0.0023,-0.9826,0.1716,-0.0571,-0.0564,-0.1056,0.0017,-0.0213,-0.0060,-2.5187,1.4100,-3.1317
2024-10-11T13:00:39.989Z,0.0075,-0.9789,0.1759,-0.0571,-0.0564,-0.1056,-0.0000,-0.0218,-0.0053,-2.5187,1.4100,-3.1317
2024-10-11T13:00:39.999Z,0.0053,-0.9810,0.1781,-0.0571,-0.0564,-0.1056,-0.0036,-0.0241,-0.0077,-2.5187,1.4100,-3.1317
2024-10-11T13:00:40.009Z,0.0033,-0.9844,0.1768,-0.0441,-0.0031,-0.1491,-0.0036,-0.0241,-0.0077,-2.5173,1.4100,-3.1341
2024-10-11T13:00:40.019Z,0.0033,-0.9860,0.1768,-0.0441,-0.0031,-0.1491,-0.0041,-0.0282,-0.0070,-2.5173,1.4100,-3.1341
2024-10-11T13:00:40.029Z,0.0063,-0.9838,0.1824,-0.0441,-0.0031,-0.1491,-0.0043,-0.0306,-0.0068,-2.5173,1.4100,-3.1341
2024-10-11T13:00:40.039Z,0.0056,-0.9941,0.1740,-0.0490,0.0998,-0.1547,-0.0060,-0.0312,-0.0052,-2.5160,1.4101,-3.1365
2024-10-11T13:00:40.049Z,0.0055,-1.0011,0.1797,-0.0490,0.0998,-0.1547,-0.0071,-0.0328,-0.0049,-2.5160,1.4101,-3.1365
2024-10-11T13:00:40.059Z,0.0067,-1.0027,0.1777,-0.0490,0.0998,-0.1547,-0.0051,-0.0333,-0.0100,-2.5160,1.4101,-3.1365
2024-10-11T13:00:40.069Z,0.0024,-1.0099,0.1689,-0.0116,0.2295,-0.0907,-0.0067,-0.0330,-0.0088,-2.5147,1.4103,-3.1390
2024-10-11T13:00:40.079Z,0.0004,-1.0070,0.1703,-0.0116,0.2295,-0.0907,-0.0088,-0.0312,-0.0079,-2.5147,1.4103,-3.1390
2024-10-11T13:00:40.090Z,-0.0003,-1.0025,0.1739,-0.0116,0.2295,-0.0907,-0.0080,-0.0314,-0.0061,-2.5147,1.4103,-3.1390
2024-10-11T13:00:40.099Z,0.0045,-1.0026,0.1678,-0.0381,0.1343,-0.1050,-0.0121,-0.0334,-0.0061,-2.5137,1.4105,-3.1413
2024-10-11T13:00:40.109Z,0.0048,-1.0002,0.1710,-0.0381,0.1343,-0.1050,-0.0124,-0.0335,-0.0038,-2.5137,1.4105,-3.1413
2024-10-11T13:00:40.119Z,0.0003,-1.0000,0.1772,-0.0381,0.1343,-0.1050,-0.0106,-0.0318,-0.0067,-2.5137,1.4105,-3.1413
2024-10-11T13:00:40.129Z,-0.0070,-1.0115,0.1722,0.0746,0.2898,-0.1208,-0.0129,-0.0319,-0.0077,-2.5126,1.4108,3.1396
2024-10-11T13:00:40.139Z,-0.0031,-1.0186,0.1668,0.0746,0.2898,-0.1208,-0.0138,-0.0306,-0.0042,-2.5126,1.4108,3.1396
2024-10-11T13:00:40.149Z,-0.0043,-1.0099,0.1703,0.0746,0.2898,-0.1208,-0.0154,-0.0292,-0.0054,-2.5126,1.4108,3.1396
2024-10-11T13:00:40.159Z,-0.0040,-0.9995,0.1715,0.0324,0.1260,-0.0515,-0.0186,-0.0298,-0.0054,-2.5117,1.4112,3.1375
2024-10-11T13:00:40.169Z,-0.0030,-0.9973,0.1643,0.0324,0.1260,-0.0515,-0.0181,-0.0237,-0.0051,-2.5117,1.4112,3.1375
2024-10-11T13:00:40.179Z,-0.0055,-0.9939,0.1633,0.0324,0.1260,-0.0515,-0.0205,-0.0211,-0.0001,-2.5117,1.4112,3.1375
2024-10-11T13:00:40.188Z,0.0005,-0.9864,0.1663,0.0141,-0.0110,-0.0414,-0.0220,-0.0197,-0.0005,-2.5112,1.4117,3.1360
2024-10-11T13:00:40.199Z,-0.0024,-0.9853,0.1600,0.0141,-0.0110,-0.0414,-0.0220,-0.0156,0.0009,-2.5112,1.4117,3.1360
2024-10-11T13:00:40.209Z,0.0005,-0.9813,0.1647,0.0141,-0.0110,-0.0414,-0.0223,-0.0129,0.0035,-2.5112,1.4117,3.1360
2024-10-11T13:00:40.219Z,0.0019,-0.9798,0.1651,0.0056,-0.0592,-0.0439,-0.0240,-0.0114,0.0028,-2.5116,1.4123,3.1358
2024-10-11T13:00:40.229Z,-0.0030,-0.9839,0.1652,0.0056,-0.0592,-0.0439,-0.0239,-0.0054,0.0042,-2.5116,1.4123,3.1358
2024-10-11T13:00:40.239Z,-0.0053,-0.9880,0.1654,0.0056,-0.0592,-0.0439,-0.0260,-0.0016,0.0037,-2.5116,1.4123,3.1358
2024-10-11T13:00:40.249Z,-0.0011,-0.9904,0.1702,0.0020,0.0355,-0.0754,-0.0261,-0.0026,0.0046,-2.5127,1.4129,3.1363
2024-10-11T13:00:40.259Z,0.0032,-0.9895,0.1666,0.0020,0.0355,-0.0754,-0.0240,0.0038,0.0063,-2.5127,1.4129,3.1363
2024-10-11T13:00:40.269Z,0.0018,-0.9864,0.1691,0.0020,0.0355,-0.0754,-0.0285,0.0080,0.0071,-2.5127,1.4129,3.1363
2024-10-11T13:00:40.279Z,-0.0011,-0.9818,0.1786,0.0208,-0.0329,-0.1959,-0.0306,0.0084,0.0098,-2.5143,1.4137,3.1379
2024-10-11T13:00:40.289Z,-0.0029,-0.9904,0.1660,0.0208,-0.0329,-0.1959,-0.0279,0.0088,0.0101,-2.5143,1.4137,3.1379
2024-10-11T13:00:40.299Z,-0.0056,-0.9980,0.1696,0.0208,-0.0329,-0.1959,-0.0306,0.0157,0.0113,-2.5143,1.4137,3.1379
2024-10-11T13:00:40.311Z,-0.0008,-0.9964,0.1659,-0.0278,0.0471,-0.1311,-0.0322,0.0211,0.0132,-2.5165,1.4145,3.1402
2024-10-11T13:00:40.319Z,0.0045,-0.9905,0.1665,-0.0278,0.0471,-0.1311,-0.0328,0.0190,0.0130,-2.5165,1.4145,3.1402
2024-10-11T13:00:40.329Z,0.0002,-0.9879,0.1637,-0.0278,0.0471,-0.1311,-0.0315,0.0257,0.0148,-2.5165,1.4145,3.1402
2024-10-11T13:00:40.339Z,-0.0034,-0.9853,0.1644,0.0200,-0.0167,-0.1164,-0.0343,0.0248,0.0170,-2.5191,1.4154,-3.1400
2024-10-11T13:00:40.349Z,-0.0021,-0.9870,0.1673,0.0200,-0.0167,-0.1164,-0.0340,0.0275,0.0145,-2.5191,1.4154,-3.1400
2024-10-11T13:00:40.359Z,-0.0082,-0.9898,0.1741,0.0200,-0.0167,-0.1164,-0.0346,0.0262,0.0131,-2.5191,1.4154,-3.1400
2024-10-11T13:00:40.369Z,-0.0097,-0.9877,0.1680,0.0877,-0.0174,-0.1407,-0.0390,0.0306,0.0127,-2.5222,1.4164,-3.1363
2024-10-11T13:00:40.379Z,-0.0102,-0.9853,0.1604,0.0877,-0.0174,-0.1407,-0.0371,0.0308,0.0152,-2.5222,1.4164,-3.1363
2024-10-11T13:00:40.389Z,-0.0091,-0.9837,0.1617,0.0877,-0.0174,-0.1407,-0.0392,0.0320,0.0125,-2.5222,1.4164,-3.1363
2024-10-11T13:00:40.399Z,-0.0090,-0.9866,0.1579,0.0875,-0.0119,-0.0801,-0.0362,0.0339,0.0116,-2.5249,1.4174,-3.1329
2024-10-11T13:00:40.409Z,-0.0093,-0.9895,0.1611,0.0875,-0.0119,-0.0801,-0.0398,0.0379,0.0112,-2.5249,1.4174,-3.1329
2024-10-11T13:00:40.419Z,-0.0077,-0.9860,0.1569,0.0875,-0.0119,-0.0801,-0.0361,0.0346,0.0109,-2.5249,1.4174,-3.1329
2024-10-11T13:00:40.429Z,-0.0114,-0.9773,0.1727,0.1155,-0.1346,-0.1510,-0.0383,0.0335,0.0095,-2.5272,1.4184,-3.1299
2024-10-11T13:00:40.439Z,-0.0120,-0.9718,0.1658,0.1155,-0.1346,-0.1510,-0.0373,0.0351,0.0103,-2.5272,1.4184,-3.1299
2024-10-11T13:00:40.449Z,-0.0092,-0.9775,0.1588,0.1155,-0.1346,-0.1510,-0.0365,0.0341,0.0059,-2.5272,1.4184,-3.1299
2024-10-11T13:00:40.458Z,-0.0095,-0.9841,0.1595,0.0527,-0.0050,-0.0340,-0.0355,0.0336,0.0061,-2.5293,1.4194,-3.1271
2024-10-11T13:00:40.469Z,-0.0029,-0.9916,0.1524,0.0527,-0.0050,-0.0340,-0.0385,0.0362,0.0078,-2.5293,1.4194,-3.1271
2024-10-11T13:00:40.479Z,-0.0040,-0.9952,0.1515,0.0527,-0.0050,-0.0340,-0.0357,0.0352,0.0055,-2.5293,1.4194,-3.1271
2024-10-11T13:00:40.489Z,-0.0036,-0.9977,0.1490,0.0236,0.0786,0.0569,-0.0326,0.0308,0.0067,-2.5311,1.4204,-3.1246
2024-10-11T13:00:40.499Z,-0.0054,-0.9946,0.1483,0.0236,0.0786,0.0569,-0.0328,0.0313,0.0073,-2.5311,1.4204,-3.1246
2024-10-11T13:00:40.510Z,-0.0049,-0.9948,0.1461,0.0236,0.0786,0.0569,-0.0342,0.0353,0.0058,-2.5311,1.4204,-3.1246
2024-10-11T13:00:40.519Z,-0.0035,-0.9963,0.1557,0.0179,0.0846,-0.0582,-0.0344,0.0326,0.0058,-2.5330,1.4213,-3.1221
2024-10-11T13:00:40.530Z,-0.0074,-0.9969,0.1530,0.0179,0.0846,-0.0582,-0.0302,0.0330,0.0027,-2.5330,1.4213,-3.1221
2024-10-11T13:00:40.539Z,-0.0100,-0.9984,0.1518,0.0179,0.0846,-0.0582,-0.0340,0.0312,0.0053,-2.5330,1.4213,-3.1221
2024-10-11T13:00:40.549Z,-0.0101,-0.9957,0.1535,0.0763,0.0804,-0.0837,-0.0326,0.0315,0.0034,-2.5343,1.4222,-3.1201
2024-10-11T13:00:40.559Z,-0.0117,-0.9982,0.1525,0.0763,0.0804,-0.0837,-0.0347,0.0317,0.0033,-2.5343,1.4222,-3.1201
2024-10-11T13:00:40.569Z,-0.0055,-0.9956,0.1508,0.0763,0.0804,-0.0837,-0.0344,0.0292,0.0018,-2.5343,1.4222,-3.1201
2024-10-11T13:00:40.579Z,-0.0053,-0.9933,0.1533,0.0112,0.0146,-0.1112,-0.0368,0.0293,0.0012,-2.5350,1.4232,-3.1188
2024-10-11T13:00:40.589Z,-0.0034,-0.9904,0.1569,0.0112,0.0146,-0.1112,-0.0331,0.0270,0.0010,-2.5350,1.4232,-3.1188
2024-10-11T13:00:40.599Z,-0.0087,-0.9842,0.1557,0.0112,0.0146,-0.1112,-0.0357,0.0286,-0.0001,-2.5350,1.4232,-3.1188
2024-10-11T13:00:40.609Z,-0.0090,-0.9812,0.1520,0.0279,-0.1036,-0.0363,-0.0377,0.0299,0.0003,-2.5355,1.4242,-3.1176
2024-10-11T13:00:40.619Z,-0.0047,-0.9756,0.1448,0.0279,-0.1036,-0.0363,-0.0340,0.0309,0.0005,-2.5355,1.4242,-3.1176
2024-10-11T13:00:40.628Z,-0.0023,-0.9766,0.1446,0.0279,-0.1036,-0.0363,-0.0345,0.0284,-0.0022,-2.5355,1.4242,-3.1176
2024-10-11T13:00:40.639Z,0.0019,-0.9784,0.1384,-0.0484,-0.1144,0.0351,-0.0373,0.0281,0.0005,-2.5360,1.4252,-3.1165
2024-10-11T13:00:40.649Z,-0.0001,-0.9797,0.1440,-0.0484,-0.1144,0.0351,-0.0346,0.0282,0.0016,-2.5360,1.4252,-3.1165
2024-10-11T13:00:40.661Z,-0.0006,-0.9892,0.1299,-0.0484,-0.1144,0.0351,-0.0287,0.0293,-0.0004,-2.5360,1.4252,-3.1165
2024-10-11T13:00:40.668Z,-0.0006,-0.9892,0.1299,-0.0410,-0.0168,0.1312,-0.0313,0.0316,0.0023,-2.5363,1.4261,-3.1156
2024-10-11T13:00:40.678Z,-0.0001,-0.9846,0.1341,-0.0410,-0.0168,0.1312,-0.0284,0.0282,-0.0002,-2.5363,1.4261,-3.1156
2024-10-11T13:00:40.690Z,0.0014,-0.9801,0.1358,-0.0410,-0.0168,0.1312,-0.0247,0.0225,0.0006,-2.5363,1.4261,-3.1156
2024-10-11T13:00:40.700Z,-0.0022,-0.9853,0.1290,-0.0275,-0.0730,0.1298,-0.0207,0.0198,-0.0023,-2.5366,1.4268,-3.1148
2024-10-11T13:00:40.709Z,-0.0022,-0.9853,0.1290,-0.0275,-0.0730,0.1298,-0.0208,0.0212,-0.0020,-2.5366,1.4268,-3.1148
2024-10-11T13:00:40.718Z,-0.0065,-0.9899,0.1270,-0.0275,-0.0730,0.1298,-0.0181,0.0193,-0.0029,-2.5366,1.4268,-3.1148
2024-10-11T13:00:40.729Z,-0.0038,-0.9908,0.1329,-0.0483,0.0077,0.1288,-0.0130,0.0184,-0.0045,-2.5364,1.4273,-3.1147
2024-10-11T13:00:40.739Z,0.0046,-0.9888,0.1269,-0.0483,0.0077,0.1288,-0.0161,0.0188,-0.0009,-2.5364,1.4273,-3.1147
2024-10-11T13:00:40.749Z,0.0081,-0.9886,0.1322,-0.0483,0.0077,0.1288,-0.0140,0.0205,0.0035,-2.5364,1.4273,-3.1147
2024-10-11T13:00:40.760Z,0.0168,-0.9883,0.1331,-0.1917,-0.0055,0.1066,-0.0112,0.0191,0.0015,-2.5366,1.4278,-3.1141
2024-10-11T13:00:40.769Z,0.0168,-0.9883,0.1331,-0.1917,-0.0055,0.1066,-0.0109,0.0253,0.0034,-2.5366,1.4278,-3.1141
2024-10-11T13:00:40.780Z,0.0109,-0.9913,0.1215,-0.1917,-0.0055,0.1066,-0.0089,0.0236,0.0066,-2.5366,1.4278,-3.1141
2024-10-11T13:00:40.790Z,0.0079,-0.9855,0.1266,-0.1427,0.0043,0.2348,-0.0082,0.0196,0.0096,-2.5378,1.4281,-3.1126
2024-10-11T13:00:40.800Z,0.0013,-0.9780,0.1359,-0.1427,0.0043,0.2348,-0.0084,0.0187,0.0066,-2.5378,1.4281,-3.1126
2024-10-11T13:00:40.811Z,-0.0003,-0.9809,0.1389,-0.1427,0.0043,0.2348,-0.0096,0.0211,0.0079,-2.5378,1.4281,-3.1126
2024-10-11T13:00:40.820Z,-0.0050,-0.9898,0.1306,-0.0140,-0.0438,0.0823,-0.0105,0.0155,0.0082,-2.5393,1.4284,-3.1109
2024-10-11T13:00:40.831Z,-0.0071,-0.9829,0.1389,-0.0140,-0.0438,0.0823,-0.0093,0.0160,0.0027,-2.5393,1.4284,-3.1109
2024-10-11T13:00:40.840Z,-0.0040,-0.9752,0.1423,-0.0140,-0.0438,0.0823,-0.0112,0.0173,0.0033,-2.5393,1.4284,-3.1109
2024-10-11T13:00:40.850Z,0.0006,-0.9738,0.1391,-0.0333,-0.1566,-0.0030,-0.0126,0.0176,0.0055,-2.5399,1.4286,-3.1101
2024-10-11T13:00:40.859Z,0.0006,-0.9738,0.1391,-0.0333,-0.1566,-0.0030,-0.0127,0.0133,0.0028,-2.5399,1.4286,-3.1101
2024-10-11T13:00:40.870Z,-0.0018,-0.9822,0.1378,-0.0333,-0.1566,-0.0030,-0.0088,0.0112,0.0027,-2.5399,1.4286,-3.1101
2024-10-11T13:00:40.880Z,-0.0087,-0.9909,0.1279,0.0413,-0.0167,0.0685,-0.0098,0.0094,0.0035,-2.5406,1.4290,-3.1093
2024-10-11T13:00:40.890Z,-0.0044,-0.9914,0.1324,0.0413,-0.0167,0.0685,-0.0086,0.0095,0.0022,-2.5406,1.4290,-3.1093
2024-10-11T13:00:40.899Z,-0.0044,-0.9914,0.1324,0.0413,-0.0167,0.0685,-0.0025,0.0052,-0.0011,-2.5406,1.4290,-3.1093
2024-10-11T13:00:40.909Z,-0.0108,-0.9983,0.1305,0.0224,0.1193,0.1246,-0.0043,0.0054,0.0008,-2.5410,1.4292,-3.1090
2024-10-11T13:00:40.918Z,-0.0024,-1.0028,0.1229,0.0224,0.1193,0.1246,-0.0023,0.0006,-0.0004,-2.5410,1.4292,-3.1090
2024-10-11T13:00:40.930Z,-0.0037,-0.9963,0.1358,0.0224,0.1193,0.1246,-0.0010,0.0063,0.0001,-2.5410,1.4292,-3.1090
2024-10-11T13:00:40.940Z,-0.0040,-0.9967,0.1339,-0.0115,0.0475,0.0399,-0.0026,0.0073,0.0004,-2.5410,1.4293,-3.1089
2024-10-11T13:00:40.950Z,-0.0016,-0.9934,0.1298,-0.0115,0.0475,0.0399,-0.0018,0.0082,0.0007,-2.5410,1.4293,-3.1089
2024-10-11T13:00:40.959Z,-0.0016,-0.9934,0.1298,-0.0115,0.0475,0.0399,-0.0016,0.0042,-0.0030,-2.5410,1.4293,-3.1089
2024-10-11T13:00:40.969Z,-0.0131,-0.9876,0.1435,0.0713,-0.0412,-0.0105,-0.0056,0.0054,0.0001,-2.5409,1.4294,-3.1091
2024-10-11T13:00:40.980Z,-0.0098,-0.9978,0.1348,0.0713,-0.0412,-0.0105,-0.0083,0.0060,-0.0019,-2.5409,1.4294,-3.1091
2024-10-11T13:00:40.990Z,-0.0067,-0.9969,0.1390,0.0713,-0.0412,-0.0105,-0.0060,0.0059,-0.0039,-2.5409,1.4294,-3.1091
2024-10-11T13:00:40.999Z,-0.0130,-0.9965,0.1402,0.0517,0.0579,0.0213,-0.0063,0.0068,-0.0052,-2.5404,1.4297,-3.1097
2024-10-11T13:00:41.010Z,-0.0130,-0.9965,0.1402,0.0517,0.0579,0.0213,-0.0090,0.0029,-0.0066,-2.5404,1.4297,-3.1097
2024-10-11T13:00:41.020Z,-0.0102,-0.9827,0.1382,0.0517,0.0579,0.0213,-0.0051,0.0017,-0.0054,-2.5404,1.4297,-3.1097
2024-10-11T13:00:41.029Z,-0.0145,-0.9838,0.1346,0.0999,-0.0781,0.0625,-0.0094,0.0066,-0.0069,-2.5394,1.4300,-3.1108
2024-10-11T13:00:41.039Z,-0.0099,-0.9870,0.1384,0.0999,-0.0781,0.0625,-0.0143,0.0083,-0.0054,-2.5394,1.4300,-3.1108
2024-10-11T13:00:41.049Z,-0.0073,-0.9837,0.1471,0.0999,-0.0781,0.0625,-0.0156,0.0096,-0.0043,-2.5394,1.4300,-3.1108
2024-10-11T13:00:41.059Z,-0.0073,-0.9837,0.1471,-0.0034,-0.0831,-0.0537,-0.0142,0.0082,-0.0043,-2.5384,1.4304,-3.1118
2024-10-11T13:00:41.070Z,-0.0062,-0.9850,0.1284,-0.0034,-0.0831,-0.0537,-0.0144,0.0131,-0.0056,-2.5384,1.4304,-3.1118
2024-10-11T13:00:41.080Z,-0.0033,-0.9857,0.1281,-0.0034,-0.0831,-0.0537,-0.0134,0.0168,-0.0034,-2.5384,1.4304,-3.1118
2024-10-11T13:00:41.089Z,-0.0063,-0.9831,0.1321,-0.0111,-0.0602,0.0591,-0.0126,0.0159,-0.0025,-2.5380,1.4308,-3.1121
2024-10-11T13:00:41.100Z,-0.0057,-0.9859,0.1320,-0.0111,-0.0602,0.0591,-0.0098,0.0171,-0.0052,-2.5380,1.4308,-3.1121
2024-10-11T13:00:41.111Z,-0.0041,-0.9818,0.1309,-0.0111,-0.0602,0.0591,-0.0112,0.0200,-0.0056,-2.5380,1.4308,-3.1121
2024-10-11T13:00:41.119Z,-0.0046,-0.9848,0.1397,-0.0038,-0.0754,0.0141,-0.0114,0.0184,-0.0029,-2.5378,1.4311,-3.1120
2024-10-11T13:00:41.130Z,-0.0139,-0.9867,0.1380,-0.0038,-0.0754,0.0141,-0.0092,0.0192,-0.0034,-2.5378,1.4311,-3.1120
2024-10-11T13:00:41.139Z,-0.0107,-0.9864,0.1353,-0.0038,-0.0754,0.0141,-0.0080,0.0236,-0.0029,-2.5378,1.4311,-3.1120
2024-10-11T13:00:41.149Z,-0.0092,-0.9898,0.1286,0.0534,-0.0220,0.0607,-0.0113,0.0281,-0.0042,-2.5371,1.4314,-3.1122
2024-10-11T13:00:41.160Z,-0.0092,-0.9898,0.1286,0.0534,-0.0220,0.0607,-0.0077,0.0290,-0.0030,-2.5371,1.4314,-3.1122
2024-10-11T13:00:41.169Z,-0.0070,-0.9950,0.1298,0.0534,-0.0220,0.0607,-0.0039,0.0307,-0.0046,-2.5371,1.4314,-3.1122
2024-10-11T13:00:41.179Z,-0.0052,-0.9910,0.1274,0.0116,0.0291,0.1105,-0.0024,0.0287,-0.0032,-2.5363,1.4316,-3.1124
2024-10-11T13:00:41.190Z,-0.0142,-0.9899,0.1266,0.0116,0.0291,0.1105,-0.0046,0.0301,-0.0039,-2.5363,1.4316,-3.1124
2024-10-11T13:00:41.199Z,-0.0133,-0.9874,0.1308,0.0116,0.0291,0.1105,-0.0037,0.0293,-0.0056,-2.5363,1.4316,-3.1124
2024-10-11T13:00:41.211Z,-0.0132,-0.9823,0.1379,0.0822,-0.0475,0.0563,-0.0003,0.0317,-0.0074,-2.5354,1.4316,-3.1126
2024-10-11T13:00:41.219Z,-0.0126,-0.9822,0.1377,0.0822,-0.0475,0.0563,-0.0030,0.0313,-0.0044,-2.5354,1.4316,-3.1126
2024-10-11T13:00:41.230Z,-0.0119,-0.9818,0.1307,0.0822,-0.0475,0.0563,-0.0009,0.0277,-0.0075,-2.5354,1.4316,-3.1126
2024-10-11T13:00:41.239Z,-0.0138,-0.9859,0.1366,0.0851,-0.0618,0.0495,0.0005,0.0292,-0.0097,-2.5344,1.4317,-3.1129
2024-10-11T13:00:41.249Z,-0.0148,-0.9861,0.1366,0.0851,-0.0618,0.0495,-0.0036,0.0290,-0.0101,-2.5344,1.4317,-3.1129
2024-10-11T13:00:41.260Z,-0.0212,-0.9847,0.1413,0.0851,-0.0618,0.0495,-0.0006,0.0225,-0.0131,-2.5344,1.4317,-3.1129
2024-10-11T13:00:41.269Z,-0.0155,-0.9835,0.1445,0.1646,-0.0740,-0.0594,-0.0044,0.0234,-0.0133,-2.5323,1.4319,-3.1145
2024-10-11T13:00:41.280Z,-0.0101,-0.9888,0.1354,0.1646,-0.0740,-0.0594,-0.0023,0.0230,-0.0148,-2.5323,1.4319,-3.1145
2024-10-11T13:00:41.289Z,-0.0117,-0.9947,0.1263,0.1646,-0.0740,-0.0594,-0.0002,0.0246,-0.0161,-2.5323,1.4319,-3.1145
2024-10-11T13:00:41.299Z,-0.0099,-0.9974,0.1240,0.0662,0.0587,0.1390,0.0021,0.0235,-0.0196,-2.5294,1.4319,-3.1169
2024-10-11T13:00:41.310Z,-0.0110,-0.9967,0.1260,0.0662,0.0587,0.1390,0.0045,0.0210,-0.0189,-2.5294,1.4319,-3.1169
2024-10-11T13:00:41.319Z,-0.0100,-0.9968,0.1245,0.0662,0.0587,0.1390,0.0043,0.0199,-0.0203,-2.5294,1.4319,-3.1169
2024-10-11T13:00:41.329Z,-0.0049,-0.9916,0.1349,0.0429,0.0366,0.0881,0.0097,0.0132,-0.0197,-2.5257,1.4318,-3.1203
2024-10-11T13:00:41.339Z,-0.0042,-0.9910,0.1379,0.0429,0.0366,0.0881,0.0122,0.0113,-0.0196,-2.5257,1.4318,-3.1203
2024-10-11T13:00:41.349Z,-0.0072,-0.9957,0.1376,0.0429,0.0366,0.0881,0.0099,0.0116,-0.0228,-2.5257,1.4318,-3.1203
2024-10-11T13:00:41.360Z,-0.0052,-0.9947,0.1382,0.0470,0.0546,0.0419,0.0110,0.0115,-0.0235,-2.5219,1.4314,-3.1239
2024-10-11T13:00:41.369Z,-0.0023,-0.9887,0.1409,0.0470,0.0546,0.0419,0.0095,0.0115,-0.0224,-2.5219,1.4314,-3.1239
2024-10-11T13:00:41.379Z,-0.0032,-0.9884,0.1487,0.0470,0.0546,0.0419,0.0083,0.0140,-0.0218,-2.5219,1.4314,-3.1239
2024-10-11T13:00:41.389Z,-0.0064,-0.9929,0.1499,0.0387,0.0113,-0.0920,0.0100,0.0158,-0.0226,-2.5175,1.4312,-3.1281
2024-10-11T13:00:41.399Z,-0.0023,-0.9987,0.1487,0.0387,0.0113,-0.0920,0.0099,0.0148,-0.0257,-2.5175,1.4312,-3.1281
2024-10-11T13:00:41.411Z,-0.0062,-1.0000,0.1503,0.0387,0.0113,-0.0920,0.0062,0.0170,-0.0258,-2.5175,1.4312,-3.1281
2024-10-11T13:00:41.419Z,-0.0052,-0.9967,0.1553,0.0625,0.0962,-0.1363,0.0037,0.0153,-0.0234,-2.5127,1.4310,-3.1328
2024-10-11T13:00:41.429Z,-0.0011,-0.9870,0.1600,0.0625,0.0962,-0.1363,0.0038,0.0166,-0.0258,-2.5127,1.4310,-3.1328
2024-10-11T13:00:41.439Z,-0.0007,-0.9824,0.1553,0.0625,0.0962,-0.1363,0.0028,0.0179,-0.0250,-2.5127,1.4310,-3.1328
2024-10-11T13:00:41.449Z,0.0029,-0.9801,0.1537,-0.0169,-0.0762,-0.1430,-0.0035,0.0229,-0.0239,-2.5076,1.4310,-3.1375
2024-10-11T13:00:41.460Z,0.0036,-0.9762,0.1570,-0.0169,-0.0762,-0.1430,-0.0007,0.0195,-0.0201,-2.5076,1.4310,-3.1375
2024-10-11T13:00:41.469Z,0.0002,-0.9814,0.1501,-0.0169,-0.0762,-0.1430,-0.0043,0.0196,-0.0221,-2.5076,1.4310,-3.1375
2024-10-11T13:00:41.479Z,0.0030,-0.9870,0.1409,-0.0085,-0.0388,-0.0688,-0.0056,0.0224,-0.0205,-2.5032,1.4310,-3.1414
2024-10-11T13:00:41.489Z,0.0086,-0.9772,0.1419,-0.0085,-0.0388,-0.0688,-0.0051,0.0290,-0.0176,-2.5032,1.4310,-3.1414
2024-10-11T13:00:41.499Z,0.0146,-0.9813,0.1393,-0.0085,-0.0388,-0.0688,-0.0017,0.0293,-0.0159,-2.5032,1.4310,-3.1414
2024-10-11T13:00:41.510Z,0.0058,-0.9879,0.1421,-0.1169,-0.0513,-0.0143,-0.0020,0.0373,-0.0138,-2.5000,1.4309,3.1391
2024-10-11T13:00:41.519Z,0.0029,-0.9867,0.1378,-0.1169,-0.0513,-0.0143,-0.0017,0.0374,-0.0116,-2.5000,1.4309,3.1391
2024-10-11T13:00:41.529Z,0.0095,-0.9841,0.1378,-0.1169,-0.0513,-0.0143,0.0011,0.0369,-0.0105,-2.5000,1.4309,3.1391
2024-10-11T13:00:41.539Z,0.0031,-0.9797,0.1448,-0.0700,-0.1046,0.0006,0.0047,0.0383,-0.0114,-2.4976,1.4308,3.1375
2024-10-11T13:00:41.549Z,-0.0030,-0.9827,0.1441,-0.0700,-0.1046,0.0006,-0.0001,0.0341,-0.0093,-2.4976,1.4308,3.1375
2024-10-11T13:00:41.560Z,0.0004,-0.9890,0.1457,-0.0700,-0.1046,0.0006,-0.0011,0.0324,-0.0101,-2.4976,1.4308,3.1375
2024-10-11T13:00:41.569Z,-0.0019,-0.9942,0.1480,0.0195,0.0162,-0.0539,-0.0004,0.0328,-0.0120,-2.4951,1.4308,3.1359
2024-10-11T13:00:41.580Z,0.0107,-0.9902,0.1491,0.0195,0.0162,-0.0539,-0.0036,0.0383,-0.0105,-2.4951,1.4308,3.1359
2024-10-11T13:00:41.589Z,0.0190,-0.9898,0.1430,0.0195,0.0162,-0.0539,-0.0040,0.0374,-0.0084,-2.4951,1.4308,3.1359
2024-10-11T13:00:41.599Z,0.0216,-0.9922,0.1360,-0.1882,0.0052,0.0113,-0.0031,0.0406,-0.0050,-2.4933,1.4308,3.1348
2024-10-11T13:00:41.610Z,0.0248,-0.9873,0.1382,-0.1882,0.0052,0.0113,-0.0014,0.0361,-0.0034,-2.4933,1.4308,3.1348
2024-10-11T13:00:41.620Z,0.0251,-0.9855,0.1411,-0.1882,0.0052,0.0113,-0.0028,0.0377,-0.0004,-2.4933,1.4308,3.1348
2024-10-11T13:00:41.630Z,0.0143,-0.9879,0.1465,-0.2020,-0.0336,-0.0503,-0.0016,0.0353,0.0032,-2.4934,1.4308,3.1358
2024-10-11T13:00:41.639Z,0.0069,-0.9864,0.1525,-0.2020,-0.0336,-0.0503,-0.0026,0.0365,0.0024,-2.4934,1.4308,3.1358
2024-10-11T13:00:41.649Z,0.0090,-0.9852,0.1453,-0.2020,-0.0336,-0.0503,-0.0047,0.0361,0.0045,-2.4934,1.4308,3.1358
2024-10-11T13:00:41.662Z,0.0137,-0.9839,0.1438,-0.1178,-0.0543,-0.0561,-0.0080,0.0363,0.0067,-2.4944,1.4309,3.1376
2024-10-11T13:00:41.669Z,0.0091,-0.9925,0.1508,-0.1178,-0.0543,-0.0561,-0.0088,0.0356,0.0047,-2.4944,1.4309,3.1376
2024-10-11T13:00:41.679Z,-0.0021,-0.9932,0.1519,-0.1178,-0.0543,-0.0561,-0.0077,0.0382,0.0035,-2.4944,1.4309,3.1376
2024-10-11T13:00:41.689Z,0.0011,-0.9921,0.1426,0.0171,0.0054,-0.0878,-0.0109,0.0353,0.0033,-2.4943,1.4311,3.1383
2024-10-11T13:00:41.699Z,0.0032,-0.9950,0.1367,0.0171,0.0054,-0.0878,-0.0067,0.0273,0.0028,-2.4943,1.4311,3.1383
2024-10-11T13:00:41.710Z,-0.0020,-0.9918,0.1393,0.0171,0.0054,-0.0878,-0.0094,0.0265,0.0004,-2.4943,1.4311,3.1383
2024-10-11T13:00:41.719Z,0.0009,-0.9923,0.1372,0.0032,0.0110,0.0183,-0.0050,0.0234,0.0024,-2.4939,1.4313,3.1385
2024-10-11T13:00:41.730Z,-0.0044,-0.9947,0.1395,0.0032,0.0110,0.0183,-0.0081,0.0239,0.0013,-2.4939,1.4313,3.1385
2024-10-11T13:00:41.739Z,-0.0012,-0.9954,0.1473,0.0032,0.0110,0.0183,-0.0099,0.0205,0.0006,-2.4939,1.4313,3.1385
2024-10-11T13:00:41.749Z,0.0029,-0.9922,0.1480,-0.0082,0.0266,-0.0684,-0.0114,0.0181,-0.0003,-2.4935,1.4315,3.1385
2024-10-11T13:00:41.761Z,-0.0010,-0.9972,0.1464,-0.0082,0.0266,-0.0684,-0.0133,0.0175,-0.0020,-2.4935,1.4315,3.1385
2024-10-11T13:00:41.769Z,-0.0014,-0.9982,0.1444,-0.0082,0.0266,-0.0684,-0.0125,0.0165,-0.0021,-2.4935,1.4315,3.1385
2024-10-11T13:00:41.780Z,0.0058,-0.9974,0.1485,-0.0418,0.0808,-0.0524,-0.0174,0.0152,-0.0008,-2.4935,1.4318,3.1386
2024-10-11T13:00:41.789Z,-0.0036,-0.9930,0.1534,-0.0418,0.0808,-0.0524,-0.0148,0.0175,-0.0007,-2.4935,1.4318,3.1386
2024-10-11T13:00:41.799Z,-0.0024,-0.9923,0.1536,-0.0418,0.0808,-0.0524,-0.0189,0.0174,-0.0017,-2.4935,1.4318,3.1386
2024-10-11T13:00:41.809Z,-0.0007,-0.9959,0.1506,0.0177,0.0229,-0.1419,-0.0207,0.0185,-0.0016,-2.4933,1.4323,3.1387
2024-10-11T13:00:41.819Z,-0.0053,-1.0023,0.1457,0.0177,0.0229,-0.1419,-0.0225,0.0184,-0.0031,-2.4933,1.4323,3.1387
2024-10-11T13:00:41.829Z,-0.0089,-0.9983,0.1473,0.0177,0.0229,-0.1419,-0.0232,0.0189,-0.0038,-2.4933,1.4323,3.1387
2024-10-11T13:00:41.839Z,-0.0140,-0.9942,0.1512,0.1320,0.0494,-0.1368,-0.0189,0.0140,-0.0028,-2.4929,1.4329,3.1385
2024-10-11T13:00:41.850Z,-0.0098,-0.9888,0.1528,0.1320,0.0494,-0.1368,-0.0226,0.0182,-0.0068,-2.4929,1.4329,3.1385
2024-10-11T13:00:41.859Z,-0.0035,-0.9849,0.1474,0.1320,0.0494,-0.1368,-0.0264,0.0155,-0.0031,-2.4929,1.4329,3.1385
2024-10-11T13:00:41.869Z,0.0000,-0.9816,0.1532,0.0278,-0.0876,-0.1621,-0.0284,0.0189,-0.0059,-2.4918,1.4336,3.1377
2024-10-11T13:00:41.880Z,0.0020,-0.9838,0.1445,0.0278,-0.0876,-0.1621,-0.0284,0.0211,-0.0054,-2.4918,1.4336,3.1377
2024-10-11T13:00:41.889Z,0.0012,-0.9893,0.1330,0.0278,-0.0876,-0.1621,-0.0273,0.0266,-0.0032,-2.4918,1.4336,3.1377
2024-10-11T13:00:41.899Z,0.0050,-0.9897,0.1352,-0.0235,-0.0058,0.0346,-0.0272,0.0255,-0.0036,-2.4910,1.4343,3.1373
2024-10-11T13:00:41.909Z,-0.0010,-0.9893,0.1379,-0.0235,-0.0058,0.0346,-0.0239,0.0289,-0.0050,-2.4910,1.4343,3.1373
2024-10-11T13:00:41.919Z,0.0017,-0.9937,0.1405,-0.0235,-0.0058,0.0346,-0.0228,0.0303,-0.0034,-2.4910,1.4343,3.1373
2024-10-11T13:00:41.929Z,-0.0022,-0.9993,0.1362,-0.0141,0.0652,-0.0310,-0.0239,0.0346,-0.0024,-2.4908,1.4350,3.1378
2024-10-11T13:00:41.939Z,-0.0004,-1.0030,0.1330,-0.0141,0.0652,-0.0310,-0.0261,0.0353,-0.0034,-2.4908,1.4350,3.1378
2024-10-11T13:00:41.949Z,0.0030,-0.9971,0.1383,-0.0141,0.0652,-0.0310,-0.0238,0.0390,-0.0049,-2.4908,1.4350,3.1378
2024-10-11T13:00:41.959Z,-0.0015,-0.9902,0.1440,-0.0103,0.0275,-0.0540,-0.0263,0.0436,-0.0018,-2.4903,1.4356,3.1382
2024-10-11T13:00:41.969Z,-0.0020,-0.9855,0.1443,-0.0103,0.0275,-0.0540,-0.0285,0.0416,-0.0029,-2.4903,1.4356,3.1382
2024-10-11T13:00:41.978Z,-0.0046,-0.9896,0.1382,-0.0103,0.0275,-0.0540,-0.0296,0.0431,-0.0033,-2.4903,1.4356,3.1382
2024-10-11T13:00:41.989Z,-0.0014,-0.9928,0.1337,0.0397,0.0084,0.0094,-0.0305,0.0431,-0.0040,-2.4897,1.4365,3.1386
2024-10-11T13:00:41.999Z,0.0026,-0.9979,0.1277,0.0397,0.0084,0.0094,-0.0277,0.0453,-0.0013,-2.4897,1.4365,3.1386
2024-10-11T13:00:42.009Z,0.0044,-1.0019,0.1246,0.0397,0.0084,0.0094,-0.0293,0.0460,-0.0029,-2.4897,1.4365,3.1386
2024-10-11T13:00:42.019Z,0.0061,-0.9994,0.1224,-0.0404,0.1031,0.1064,-0.0305,0.0512,-0.0011,-2.4894,1.4373,3.1394
2024-10-11T13:00:42.031Z,0.0045,-0.9952,0.1271,-0.0404,0.1031,0.1064,-0.0290,0.0463,0.0009,-2.4894,1.4373,3.1394
2024-10-11T13:00:42.039Z,-0.0017,-0.9977,0.1224,-0.0404,0.1031,0.1064,-0.0299,0.0458,-0.0014,-2.4894,1.4373,3.1394
2024-10-11T13:00:42.049Z,-0.0039,-0.9959,0.1260,0.0254,0.0612,0.0877,-0.0269,0.0424,0.0013,-2.4895,1.4381,3.1406
2024-10-11T13:00:42.059Z,-0.0090,-0.9901,0.1279,0.0254,0.0612,0.0877,-0.0284,0.0433,-0.0033,-2.4895,1.4381,3.1406
2024-10-11T13:00:42.070Z,-0.0076,-0.9898,0.1284,0.0254,0.0612,0.0877,-0.0306,0.0418,-0.0031,-2.4895,1.4381,3.1406
2024-10-11T13:00:42.078Z,-0.0056,-0.9877,0.1339,0.0551,-0.0336,0.0059,-0.0337,0.0431,-0.0012,-2.4892,1.4391,3.1414
2024-10-11T13:00:42.089Z,-0.0023,-0.9872,0.1308,0.0551,-0.0336,0.0059,-0.0364,0.0442,-0.0026,-2.4892,1.4391,3.1414
2024-10-11T13:00:42.099Z,-0.0044,-0.9882,0.1230,0.0551,-0.0336,0.0059,-0.0373,0.0494,-0.0034,-2.4892,1.4391,3.1414
2024-10-11T13:00:42.109Z,-0.0076,-0.9908,0.1207,0.0628,-0.0133,0.0717,-0.0396,0.0466,-0.0063,-2.4881,1.4402,3.1414
2024-10-11T13:00:42.119Z,-0.0019,-0.9872,0.1270,0.0628,-0.0133,0.0717,-0.0360,0.0400,-0.0069,-2.4881,1.4402,3.1414
2024-10-11T13:00:42.129Z,-0.0032,-0.9858,0.1228,0.0628,-0.0133,0.0717,-0.0385,0.0376,-0.0102,-2.4881,1.4402,3.1414
2024-10-11T13:00:42.139Z,-0.0040,-0.9859,0.1219,0.0316,-0.0606,0.0528,-0.0361,0.0312,-0.0081,-2.4865,1.4414,3.1408
2024-10-11T13:00:42.149Z,-0.0055,-0.9872,0.1249,0.0316,-0.0606,0.0528,-0.0374,0.0335,-0.0098,-2.4865,1.4414,3.1408
2024-10-11T13:00:42.159Z,-0.0027,-0.9895,0.1221,0.0316,-0.0606,0.0528,-0.0384,0.0363,-0.0112,-2.4865,1.4414,3.1408
2024-10-11T13:00:42.169Z,-0.0031,-0.9898,0.1165,0.0259,-0.0215,0.0903,-0.0377,0.0376,-0.0083,-2.4849,1.4424,3.1400
2024-10-11T13:00:42.178Z,0.0012,-0.9917,0.1290,0.0259,-0.0215,0.0903,-0.0357,0.0363,-0.0103,-2.4849,1.4424,3.1400
2024-10-11T13:00:42.189Z,0.0038,-0.9947,0.1279,0.0259,-0.0215,0.0903,-0.0350,0.0344,-0.0069,-2.4849,1.4424,3.1400
2024-10-11T13:00:42.199Z,0.0002,-0.9960,0.1277,-0.0144,0.0396,-0.0331,-0.0336,0.0340,-0.0076,-2.4839,1.4435,3.1398
2024-10-11T13:00:42.209Z,-0.0004,-0.9954,0.1323,-0.0144,0.0396,-0.0331,-0.0331,0.0295,-0.0084,-2.4839,1.4435,3.1398
2024-10-11T13:00:42.219Z,0.0054,-0.9924,0.1350,-0.0144,0.0396,-0.0331,-0.0338,0.0268,-0.0112,-2.4839,1.4435,3.1398
2024-10-11T13:00:42.229Z,-0.0011,-0.9900,0.1425,-0.0222,-0.0072,-0.1040,-0.0340,0.0253,-0.0064,-2.4825,1.4445,3.1390
2024-10-11T13:00:42.239Z,0.0024,-0.9889,0.1442,-0.0222,-0.0072,-0.1040,-0.0336,0.0229,-0.0064,-2.4825,1.4445,3.1390
2024-10-11T13:00:42.249Z,0.0074,-0.9887,0.1511,-0.0222,-0.0072,-0.1040,-0.0375,0.0295,-0.0092,-2.4825,1.4445,3.1390
2024-10-11T13:00:42.259Z,0.0057,-0.9874,0.1502,-0.0720,-0.0442,-0.2189,-0.0399,0.0284,-0.0048,-2.4810,1.4456,3.1380
2024-10-11T13:00:42.269Z,0.0032,-0.9836,0.1466,-0.0720,-0.0442,-0.2189,-0.0414,0.0300,-0.0052,-2.4810,1.4456,3.1380
2024-10-11T13:00:42.280Z,0.0113,-0.9816,0.1469,-0.0720,-0.0442,-0.2189,-0.0402,0.0274,-0.0025,-2.4810,1.4456,3.1380
2024-10-11T13:00:42.290Z,0.0079,-0.9798,0.1439,-0.1102,-0.1122,-0.1979,-0.0385,0.0291,-0.0010,-2.4801,1.4468,3.1378
2024-10-11T13:00:42.299Z,0.0089,-0.9771,0.1442,-0.1102,-0.1122,-0.1979,-0.0402,0.0312,-0.0006,-2.4801,1.4468,3.1378
2024-10-11T13:00:42.309Z,0.0103,-0.9788,0.1429,-0.1102,-0.1122,-0.1979,-0.0415,0.0322,0.0009,-2.4801,1.4468,3.1378
2024-10-11T13:00:42.319Z,0.0132,-0.9807,0.1373,-0.1035,-0.1204,-0.1567,-0.0410,0.0359,0.0026,-2.4803,1.4478,3.1387
2024-10-11T13:00:42.329Z,0.0170,-0.9807,0.1415,-0.1035,-0.1204,-0.1567,-0.0373,0.0360,0.0052,-2.4803,1.4478,3.1387
2024-10-11T13:00:42.339Z,0.0135,-0.9803,0.1450,-0.1035,-0.1204,-0.1567,-0.0367,0.0392,0.0072,-2.4803,1.4478,3.1387
2024-10-11T13:00:42.349Z,0.0113,-0.9824,0.1337,-0.1128,-0.1093,-0.1849,-0.0351,0.0372,0.0081,-2.4819,1.4487,3.1410
2024-10-11T13:00:42.359Z,0.0053,-0.9827,0.1369,-0.1128,-0.1093,-0.1849,-0.0302,0.0333,0.0107,-2.4819,1.4487,3.1410
2024-10-11T13:00:42.369Z,0.0044,-0.9806,0.1342,-0.1128,-0.1093,-0.1849,-0.0318,0.0311,0.0091,-2.4819,1.4487,3.1410
2024-10-11T13:00:42.379Z,-0.0003,-0.9767,0.1304,-0.0222,-0.1515,-0.1411,-0.0264,0.0282,0.0110,-2.4841,1.4495,-3.1392
2024-10-11T13:00:42.389Z,-0.0002,-0.9813,0.1274,-0.0222,-0.1515,-0.1411,-0.0285,0.0257,0.0058,-2.4841,1.4495,-3.1392
2024-10-11T13:00:42.399Z,-0.0010,-0.9805,0.1177,-0.0222,-0.1515,-0.1411,-0.0214,0.0219,0.0081,-2.4841,1.4495,-3.1392
2024-10-11T13:00:42.409Z,0.0072,-0.9872,0.1178,-0.0305,-0.0947,0.0026,-0.0216,0.0207,0.0101,-2.4858,1.4501,-3.1371
2024-10-11T13:00:42.419Z,0.0037,-0.9875,0.1204,-0.0305,-0.0947,0.0026,-0.0179,0.0171,0.0089,-2.4858,1.4501,-3.1371
2024-10-11T13:00:42.429Z,0.0013,-0.9903,0.1205,-0.0305,-0.0947,0.0026,-0.0177,0.0117,0.0107,-2.4858,1.4501,-3.1371
2024-10-11T13:00:42.439Z,0.0083,-0.9938,0.1147,-0.0550,0.0009,0.0109,-0.0150,0.0106,0.0113,-2.4878,1.4504,-3.1348
2024-10-11T13:00:42.449Z,0.0119,-0.9976,0.1143,-0.0550,0.0009,0.0109,-0.0154,0.0112,0.0124,-2.4878,1.4504,-3.1348
2024-10-11T13:00:42.459Z,0.0060,-0.9954,0.1170,-0.0550,0.0009,0.0109,-0.0134,0.0112,0.0149,-2.4878,1.4504,-3.1348
2024-10-11T13:00:42.469Z,-0.0006,-0.9970,0.1114,-0.0393,0.0376,0.0560,-0.0123,0.0086,0.0168,-2.4914,1.4507,-3.1313
2024-10-11T13:00:42.480Z,-0.0023,-0.9947,0.1128,-0.0393,0.0376,0.0560,-0.0127,0.0044,0.0142,-2.4914,1.4507,-3.1313
2024-10-11T13:00:42.489Z,-0.0014,-0.9885,0.1227,-0.0393,0.0376,0.0560,-0.0129,0.0042,0.0137,-2.4914,1.4507,-3.1313
2024-10-11T13:00:42.499Z,-0.0041,-0.9868,0.1127,0.0124,-0.0709,0.0191,-0.0129,0.0010,0.0162,-2.4954,1.4510,-3.1275
2024-10-11T13:00:42.508Z,-0.0047,-0.9923,0.0991,0.0124,-0.0709,0.0191,-0.0115,-0.0012,0.0158,-2.4954,1.4510,-3.1275
2024-10-11T13:00:42.519Z,-0.0078,-0.9981,0.0969,0.0124,-0.0709,0.0191,-0.0110,-0.0020,0.0147,-2.4954,1.4510,-3.1275
2024-10-11T13:00:42.529Z,-0.0175,-0.9958,0.1024,0.1166,0.0434,0.2127,-0.0105,-0.0020,0.0136,-2.4990,1.4514,-3.1241
2024-10-11T13:00:42.539Z,-0.0206,-0.9972,0.1056,0.1166,0.0434,0.2127,-0.0096,-0.0018,0.0110,-2.4990,1.4514,-3.1241
2024-10-11T13:00:42.549Z,-0.0225,-0.9925,0.1061,0.1166,0.0434,0.2127,-0.0098,-0.0062,0.0090,-2.4990,1.4514,-3.1241
2024-10-11T13:00:42.559Z,-0.0258,-0.9890,0.1053,0.2210,-0.0317,0.1116,-0.0071,-0.0079,0.0064,-2.5015,1.4517,-3.1221
2024-10-11T13:00:42.569Z,-0.0217,-0.9898,0.1019,0.2210,-0.0317,0.1116,-0.0053,-0.0133,0.0055,-2.5015,1.4517,-3.1221
2024-10-11T13:00:42.579Z,-0.0193,-0.9920,0.1020,0.2210,-0.0317,0.1116,-0.0049,-0.0144,0.0014,-2.5015,1.4517,-3.1221
2024-10-11T13:00:42.589Z,-0.0207,-0.9926,0.1055,0.1926,-0.0129,0.1307,-0.0044,-0.0106,-0.0014,-2.5026,1.4519,-3.1215
2024-10-11T13:00:42.599Z,-0.0133,-0.9910,0.1110,0.1926,-0.0129,0.1307,-0.0031,-0.0133,0.0021,-2.5026,1.4519,-3.1215
2024-10-11T13:00:42.609Z,-0.0085,-0.9908,0.1129,0.1926,-0.0129,0.1307,-0.0057,-0.0102,-0.0024,-2.5026,1.4519,-3.1215
2024-10-11T13:00:42.619Z,-0.0086,-0.9907,0.1195,0.0399,-0.0263,0.0185,-0.0022,-0.0120,0.0013,-2.5037,1.4521,-3.1210
2024-10-11T13:00:42.629Z,-0.0154,-0.9898,0.1196,0.0399,-0.0263,0.0185,-0.0030,-0.0126,-0.0016,-2.5037,1.4521,-3.1210
2024-10-11T13:00:42.639Z,-0.0224,-0.9902,0.1190,0.0399,-0.0263,0.0185,-0.0011,-0.0178,-0.0027,-2.5037,1.4521,-3.1210
2024-10-11T13:00:42.649Z,-0.0188,-0.9861,0.1234,0.1834,-0.0388,-0.0171,-0.0029,-0.0140,-0.0060,-2.5046,1.4523,-3.1207
2024-10-11T13:00:42.658Z,-0.0142,-0.9860,0.1251,0.1834,-0.0388,-0.0171,-0.0031,-0.0143,-0.0038,-2.5046,1.4523,-3.1207
2024-10-11T13:00:42.669Z,-0.0147,-0.9881,0.1158,0.1834,-0.0388,-0.0171,-0.0020,-0.0143,-0.0036,-2.5046,1.4523,-3.1207
2024-10-11T13:00:42.679Z,-0.0115,-0.9863,0.1122,0.1181,-0.0564,0.0607,-0.0014,-0.0129,-0.0073,-2.5043,1.4524,-3.1217
2024-10-11T13:00:42.689Z,-0.0052,-0.9850,0.1138,0.1181,-0.0564,0.0607,0.0012,-0.0105,-0.0039,-2.5043,1.4524,-3.1217
2024-10-11T13:00:42.699Z,-0.0046,-0.9840,0.1175,0.1181,-0.0564,0.0607,0.0015,-0.0138,-0.0086,-2.5043,1.4524,-3.1217
2024-10-11T13:00:42.709Z,-0.0028,-0.9841,0.1162,0.0183,-0.0755,0.0290,0.0052,-0.0145,-0.0089,-2.5028,1.4523,-3.1238
2024-10-11T13:00:42.718Z,-0.0023,-0.9818,0.1213,0.0183,-0.0755,0.0290,0.0067,-0.0106,-0.0098,-2.5028,1.4523,-3.1238
2024-10-11T13:00:42.728Z,-0.0027,-0.9807,0.1279,0.0183,-0.0755,0.0290,0.0050,-0.0098,-0.0078,-2.5028,1.4523,-3.1238
2024-10-11T13:00:42.739Z,0.0037,-0.9815,0.1232,-0.0366,-0.1063,-0.0571,0.0073,-0.0044,-0.0082,-2.5015,1.4521,-3.1255
2024-10-11T13:00:42.749Z,0.0053,-0.9786,0.1278,-0.0366,-0.1063,-0.0571,0.0059,0.0031,-0.0076,-2.5015,1.4521,-3.1255
2024-10-11T13:00:42.759Z,0.0033,-0.9790,0.1287,-0.0366,-0.1063,-0.0571,0.0038,0.0077,-0.0059,-2.5015,1.4521,-3.1255
2024-10-11T13:00:42.769Z,0.0013,-0.9825,0.1312,-0.0348,-0.1306,-0.1072,0.0053,0.0110,-0.0088,-2.5003,1.4519,-3.1269
2024-10-11T13:00:42.779Z,0.0012,-0.9796,0.1356,-0.0348,-0.1306,-0.1072,0.0085,0.0063,-0.0101,-2.5003,1.4519,-3.1269
2024-10-11T13:00:42.789Z,-0.0032,-0.9786,0.1262,-0.0348,-0.1306,-0.1072,0.0083,0.0099,-0.0111,-2.5003,1.4519,-3.1269
2024-10-11T13:00:42.798Z,0.0043,-0.9762,0.1251,-0.0045,-0.1516,-0.0545,0.0071,0.0075,-0.0106,-2.4986,1.4517,-3.1286
2024-10-11T13:00:42.809Z,0.0133,-0.9736,0.1301,-0.0045,-0.1516,-0.0545,0.0116,0.0100,-0.0062,-2.4986,1.4517,-3.1286
2024-10-11T13:00:42.819Z,0.0179,-0.9778,0.1303,-0.0045,-0.1516,-0.0545,0.0113,0.0076,-0.0052,-2.4986,1.4517,-3.1286
2024-10-11T13:00:42.829Z,0.0118,-0.9800,0.1393,-0.1557,-0.1523,-0.1620,0.0089,0.0119,-0.0038,-2.4967,1.4514,-3.1304
2024-10-11T13:00:42.839Z,0.0120,-0.9840,0.1422,-0.1557,-0.1523,-0.1620,0.0102,0.0083,-0.0070,-2.4967,1.4514,-3.1304
2024-10-11T13:00:42.848Z,0.0082,-0.9864,0.1416,-0.1557,-0.1523,-0.1620,0.0083,0.0086,-0.0059,-2.4967,1.4514,-3.1304
2024-10-11T13:00:42.858Z,0.0105,-0.9867,0.1378,-0.0919,-0.0577,-0.2243,0.0105,0.0061,-0.0086,-2.4953,1.4510,-3.1318
2024-10-11T13:00:42.868Z,0.0153,-0.9863,0.1342,-0.0919,-0.0577,-0.2243,0.0145,0.0078,-0.0055,-2.4953,1.4510,-3.1318
2024-10-11T13:00:42.878Z,0.0154,-0.9849,0.1361,-0.0919,-0.0577,-0.2243,0.0116,0.0061,-0.0046,-2.4953,1.4510,-3.1318
2024-10-11T13:00:42.889Z,0.0061,-0.9870,0.1295,-0.1171,-0.0645,-0.1309,0.0137,0.0111,-0.0030,-2.4945,1.4506,-3.1326
2024-10-11T13:00:42.898Z,0.0058,-0.9874,0.1353,-0.1171,-0.0645,-0.1309,0.0126,0.0131,-0.0018,-2.4945,1.4506,-3.1326
2024-10-11T13:00:42.911Z,0.0152,-0.9810,0.1399,-0.1171,-0.0645,-0.1309,0.0154,0.0109,-0.0001,-2.4945,1.4506,-3.1326
2024-10-11T13:00:42.920Z,0.0079,-0.9836,0.1362,-0.1422,-0.1044,-0.1633,0.0136,0.0081,-0.0054,-2.4931,1.4500,-3.1339
2024-10-11T13:00:42.930Z,0.0019,-0.9874,0.1389,-0.1422,-0.1044,-0.1633,0.0136,0.0081,-0.0054,-2.4931,1.4500,-3.1339
2024-10-11T13:00:42.939Z,-0.0013,-0.9932,0.1337,-0.1422,-0.1044,-0.1633,0.0155,0.0055,-0.0037,-2.4931,1.4500,-3.1339
2024-10-11T13:00:42.949Z,-0.0059,-0.9961,0.1284,0.0418,0.0178,-0.0658,0.0185,0.0091,-0.0082,-2.4917,1.4494,-3.1354
2024-10-11T13:00:42.960Z,-0.0005,-0.9951,0.1267,0.0418,0.0178,-0.0658,0.0170,0.0153,-0.0041,-2.4917,1.4494,-3.1354
2024-10-11T13:00:42.970Z,-0.0008,-0.9972,0.1304,0.0418,0.0178,-0.0658,0.0185,0.0174,-0.0064,-2.4917,1.4494,-3.1354
2024-10-11T13:00:42.979Z,0.0043,-0.9957,0.1371,-0.0114,0.0318,-0.0832,0.0185,0.0174,-0.0064,-2.4897,1.4488,-3.1373
2024-10-11T13:00:42.990Z,0.0043,-0.9958,0.1391,-0.0114,0.0318,-0.0832,0.0157,0.0162,-0.0077,-2.4897,1.4488,-3.1373
2024-10-11T13:00:43.000Z,-0.0017,-1.0009,0.1423,-0.0114,0.0318,-0.0832,0.0196,0.0163,-0.0076,-2.4897,1.4488,-3.1373
2024-10-11T13:00:43.010Z,-0.0028,-1.0032,0.1416,0.0335,0.0937,-0.1742,0.0168,0.0148,-0.0076,-2.4878,1.4481,-3.1390
2024-10-11T13:00:43.020Z,-0.0015,-1.0046,0.1367,0.0335,0.0937,-0.1742,0.0168,0.0164,-0.0060,-2.4878,1.4481,-3.1390
2024-10-11T13:00:43.029Z,-0.0001,-1.0073,0.1472,0.0335,0.0937,-0.1742,0.0168,0.0164,-0.0060,-2.4878,1.4481,-3.1390
2024-10-11T13:00:43.039Z,-0.0033,-1.0130,0.1529,-0.0033,0.1734,-0.2669,0.0104,0.0221,-0.0046,-2.4866,1.4475,-3.1399
2024-10-11T13:00:43.050Z,-0.0070,-1.0170,0.1544,-0.0033,0.1734,-0.2669,0.0114,0.0253,-0.0044,-2.4866,1.4475,-3.1399
2024-10-11T13:00:43.059Z,-0.0005,-1.0181,0.1458,-0.0033,0.1734,-0.2669,0.0118,0.0274,-0.0036,-2.4866,1.4475,-3.1399
2024-10-11T13:00:43.070Z,0.0037,-1.0207,0.1414,-0.0340,0.2745,-0.2097,0.0073,0.0256,-0.0041,-2.4855,1.4471,-3.1406
2024-10-11T13:00:43.079Z,-0.0040,-1.0190,0.1485,-0.0340,0.2745,-0.2097,0.0073,0.0256,-0.0041,-2.4855,1.4471,-3.1406
2024-10-11T13:00:43.090Z,-0.0078,-1.0206,0.1491,-0.0340,0.2745,-0.2097,0.0064,0.0302,-0.0040,-2.4855,1.4471,-3.1406
2024-10-11T13:00:43.099Z,-0.0088,-1.0258,0.1479,0.0811,0.3072,-0.2754,0.0102,0.0327,-0.0018,-2.4849,1.4468,-3.1406
2024-10-11T13:00:43.110Z,-0.0056,-1.0241,0.1541,0.0811,0.3072,-0.2754,0.0040,0.0420,-0.0022,-2.4849,1.4468,-3.1406
2024-10-11T13:00:43.120Z,-0.0096,-1.0198,0.1528,0.0811,0.3072,-0.2754,-0.0009,0.0478,-0.0004,-2.4849,1.4468,-3.1406
2024-10-11T13:00:43.130Z,-0.0078,-1.0150,0.1498,0.0874,0.2462,-0.3021,-0.0009,0.0478,-0.0004,-2.4847,1.4466,-3.1399
2024-10-11T13:00:43.140Z,-0.0059,-1.0100,0.1509,0.0874,0.2462,-0.3021,-0.0053,0.0482,-0.0004,-2.4847,1.4466,-3.1399
2024-10-11T13:00:43.150Z,-0.0076,-1.0073,0.1545,0.0874,0.2462,-0.3021,-0.0053,0.0482,-0.0004,-2.4847,1.4466,-3.1399
2024-10-11T13:00:43.160Z,-0.0070,-1.0085,0.1482,0.0748,0.1495,-0.3106,-0.0101,0.0499,0.0023,-2.4850,1.4466,-3.1383
2024-10-11T13:00:43.170Z,-0.0113,-1.0091,0.1336,0.0748,0.1495,-0.3106,-0.0103,0.0532,0.0041,-2.4850,1.4466,-3.1383
2024-10-11T13:00:43.181Z,-0.0100,-1.0061,0.1355,0.0758,0.1116,-0.0905,-0.0103,0.0532,0.0041,-2.4860,1.4468,-3.1359
2024-10-11T13:00:43.189Z,-0.0108,-1.0021,0.1374,0.0758,0.1116,-0.0905,-0.0112,0.0636,0.0008,-2.4860,1.4468,-3.1359
2024-10-11T13:00:43.198Z,-0.0209,-1.0038,0.1369,0.0758,0.1116,-0.0905,-0.0112,0.0636,0.0008,-2.4860,1.4468,-3.1359
2024-10-11T13:00:43.210Z,-0.0226,-1.0023,0.1343,0.0758,0.1116,-0.0905,-0.0112,0.0608,0.0000,-2.4860,1.4468,-3.1359
2024-10-11T13:00:43.219Z,-0.0182,-0.9983,0.1314,0.1891,0.0707,-0.0389,-0.0114,0.0570,0.0008,-2.4869,1.4471,-3.1334
2024-10-11T13:00:43.229Z,-0.0107,-0.9953,0.1287,0.1891,0.0707,-0.0389,-0.0114,0.0570,0.0008,-2.4869,1.4471,-3.1334
2024-10-11T13:00:43.240Z,-0.0131,-0.9886,0.1311,0.1891,0.0707,-0.0389,-0.0199,0.0619,0.0045,-2.4869,1.4471,-3.1334
2024-10-11T13:00:43.250Z,-0.0211,-0.9841,0.1324,0.1566,-0.0533,-0.0768,-0.0189,0.0601,-0.0003,-2.4877,1.4475,-3.1310
2024-10-11T13:00:43.260Z,-0.0177,-0.9841,0.1264,0.1566,-0.0533,-0.0768,-0.0230,0.0642,0.0011,-2.4877,1.4475,-3.1310
2024-10-11T13:00:43.270Z,-0.0117,-0.9835,0.1278,0.0834,-0.0928,-0.0886,-0.0229,0.0599,0.0018,-2.4884,1.4480,-3.1288
2024-10-11T13:00:43.280Z,-0.0079,-0.9836,0.1310,0.0834,-0.0928,-0.0886,-0.0229,0.0599,0.0018,-2.4884,1.4480,-3.1288
2024-10-11T13:00:43.290Z,-0.0096,-0.9818,0.1186,0.0834,-0.0928,-0.0886,-0.0221,0.0546,0.0024,-2.4884,1.4480,-3.1288
2024-10-11T13:00:43.299Z,-0.0041,-0.9797,0.1208,0.0834,-0.0928,-0.0886,-0.0214,0.0539,0.0039,-2.4884,1.4480,-3.1288
2024-10-11T13:00:43.309Z,0.0012,-0.9741,0.1203,-0.0109,-0.1428,-0.0215,-0.0210,0.0501,0.0049,-2.4893,1.4488,-3.1264
2024-10-11T13:00:43.319Z,-0.0009,-0.9683,0.1221,-0.0109,-0.1428,-0.0215,-0.0258,0.0504,0.0068,-2.4893,1.4488,-3.1264
2024-10-11T13:00:43.333Z,-0.0035,-0.9664,0.1178,0.0228,-0.2652,0.0193,-0.0243,0.0517,0.0070,-2.4909,1.4495,-3.1236
2024-10-11T13:00:43.339Z,-0.0038,-0.9647,0.1158,0.0228,-0.2652,0.0193,-0.0250,0.0487,0.0066,-2.4909,1.4495,-3.1236
2024-10-11T13:00:43.350Z,-0.0094,-0.9675,0.1161,0.0228,-0.2652,0.0193,-0.0226,0.0393,0.0019,-2.4909,1.4495,-3.1236
2024-10-11T13:00:43.360Z,-0.0186,-0.9733,0.1007,0.1495,-0.1596,0.2093,-0.0226,0.0393,0.0019,-2.4918,1.4502,-3.1218
2024-10-11T13:00:43.369Z,-0.0157,-0.9770,0.0943,0.1495,-0.1596,0.2093,-0.0155,0.0291,0.0012,-2.4918,1.4502,-3.1218
2024-10-11T13:00:43.382Z,-0.0075,-0.9770,0.0969,0.1495,-0.1596,0.2093,-0.0142,0.0266,-0.0010,-2.4918,1.4502,-3.1218
2024-10-11T13:00:43.389Z,-0.0072,-0.9805,0.1029,0.1495,-0.1596,0.2093,-0.0166,0.0271,-0.0015,-2.4918,1.4502,-3.1218
2024-10-11T13:00:43.399Z,-0.0056,-0.9800,0.1163,0.0354,-0.1285,0.1061,-0.0197,0.0329,-0.0025,-2.4917,1.4507,-3.1211
2024-10-11T13:00:43.409Z,-0.0109,-0.9850,0.1203,0.0354,-0.1285,0.1061,-0.0183,0.0317,-0.0005,-2.4917,1.4507,-3.1211
2024-10-11T13:00:43.420Z,-0.0079,-0.9907,0.1209,0.0080,0.0055,-0.0065,-0.0186,0.0255,-0.0038,-2.4915,1.4511,-3.1208
2024-10-11T13:00:43.432Z,0.0004,-0.9938,0.1207,0.0080,0.0055,-0.0065,-0.0122,0.0193,-0.0032,-2.4915,1.4511,-3.1208
2024-10-11T13:00:43.439Z,-0.0025,-0.9930,0.1172,0.0080,0.0055,-0.0065,-0.0131,0.0158,-0.0014,-2.4915,1.4511,-3.1208
2024-10-11T13:00:43.450Z,-0.0056,-0.9972,0.1181,-0.0011,0.0908,0.0490,-0.0124,0.0182,-0.0015,-2.4919,1.4517,-3.1200
2024-10-11T13:00:43.459Z,0.0014,-1.0062,0.1152,-0.0011,0.0908,0.0490,-0.0146,0.0231,-0.0011,-2.4919,1.4517,-3.1200
2024-10-11T13:00:43.469Z,-0.0055,-1.0117,0.1155,-0.0011,0.0908,0.0490,-0.0163,0.0218,-0.0015,-2.4919,1.4517,-3.1200
2024-10-11T13:00:43.481Z,-0.0050,-1.0177,0.1159,0.0373,0.2257,0.0403,-0.0157,0.0222,0.0004,-2.4920,1.4521,-3.1196
2024-10-11T13:00:43.489Z,-0.0071,-1.0148,0.1201,0.0373,0.2257,0.0403,-0.0143,0.0188,-0.0030,-2.4920,1.4521,-3.1196
2024-10-11T13:00:43.499Z,-0.0093,-1.0108,0.1270,0.0373,0.2257,0.0403,-0.0154,0.0135,-0.0026,-2.4920,1.4521,-3.1196
2024-10-11T13:00:43.510Z,-0.0024,-1.0125,0.1239,0.0156,0.1990,-0.0437,-0.0165,0.0146,-0.0003,-2.4919,1.4526,-3.1194
2024-10-11T13:00:43.519Z,-0.0057,-1.0110,0.1215,0.0156,0.1990,-0.0437,-0.0140,0.0125,-0.0010,-2.4919,1.4526,-3.1194
2024-10-11T13:00:43.530Z,0.0006,-1.0099,0.1230,0.0156,0.1990,-0.0437,-0.0184,0.0179,-0.0003,-2.4919,1.4526,-3.1194
2024-10-11T13:00:43.539Z,0.0003,-1.0091,0.1250,0.0156,0.1990,-0.0437,-0.0216,0.0216,0.0046,-2.4919,1.4526,-3.1194
2024-10-11T13:00:43.550Z,-0.0004,-1.0108,0.1288,-0.0187,0.1695,-0.1176,-0.0216,0.0265,0.0023,-2.4925,1.4531,-3.1185
2024-10-11T13:00:43.559Z,0.0003,-1.0034,0.1301,-0.0187,0.1695,-0.1176,-0.0209,0.0228,0.0014,-2.4925,1.4531,-3.1185
2024-10-11T13:00:43.569Z,0.0020,-1.0018,0.1256,-0.0498,0.1032,-0.1021,-0.0209,0.0228,0.0014,-2.4936,1.4537,-3.1170
2024-10-11T13:00:43.581Z,0.0030,-1.0055,0.1236,-0.0498,0.1032,-0.1021,-0.0198,0.0192,0.0054,-2.4936,1.4537,-3.1170
2024-10-11T13:00:43.589Z,0.0035,-1.0070,0.1199,-0.0498,0.1032,-0.1021,-0.0181,0.0180,0.0055,-2.4936,1.4537,-3.1170
2024-10-11T13:00:43.601Z,0.0003,-1.0017,0.1239,-0.0191,0.0749,-0.0798,-0.0190,0.0241,0.0067,-2.4953,1.4543,-3.1147
2024-10-11T13:00:43.610Z,-0.0017,-0.9984,0.1241,-0.0191,0.0749,-0.0798,-0.0257,0.0338,0.0093,-2.4953,1.4543,-3.1147
2024-10-11T13:00:43.620Z,0.0034,-0.9951,0.1329,-0.0191,0.0749,-0.0798,-0.0267,0.0373,0.0073,-2.4953,1.4543,-3.1147
2024-10-11T13:00:43.633Z,0.0073,-0.9929,0.1332,-0.1139,-0.0092,-0.1137,-0.0304,0.0390,0.0079,-2.4974,1.4550,-3.1119
2024-10-11T13:00:43.639Z,0.0069,-0.9907,0.1246,-0.1139,-0.0092,-0.1137,-0.0280,0.0356,0.0097,-2.4974,1.4550,-3.1119
2024-10-11T13:00:43.649Z,0.0033,-0.9861,0.1231,-0.1139,-0.0092,-0.1137,-0.0280,0.0278,0.0081,-2.4974,1.4550,-3.1119
2024-10-11T13:00:43.660Z,0.0039,-0.9815,0.1262,-0.0720,-0.1176,-0.0908,-0.0280,0.0252,0.0098,-2.5001,1.4559,-3.1085
2024-10-11T13:00:43.669Z,0.0053,-0.9815,0.1255,-0.0720,-0.1176,-0.0908,-0.0316,0.0251,0.0092,-2.5001,1.4559,-3.1085
2024-10-11T13:00:43.680Z,0.0073,-0.9809,0.1209,-0.0720,-0.1176,-0.0908,-0.0331,0.0311,0.0093,-2.5001,1.4559,-3.1085
2024-10-11T13:00:43.691Z,0.0040,-0.9773,0.1246,-0.0815,-0.1435,-0.1079,-0.0360,0.0343,0.0136,-2.5032,1.4568,-3.1048
2024-10-11T13:00:43.699Z,0.0070,-0.9820,0.1239,-0.0815,-0.1435,-0.1079,-0.0384,0.0352,0.0103,-2.5032,1.4568,-3.1048
2024-10-11T13:00:43.709Z,0.0069,-0.9829,0.1179,-0.0815,-0.1435,-0.1079,-0.0371,0.0322,0.0086,-2.5032,1.4568,-3.1048
2024-10-11T13:00:43.719Z,0.0049,-0.9795,0.1124,-0.0815,-0.1435,-0.1079,-0.0350,0.0228,0.0100,-2.5032,1.4568,-3.1048
2024-10-11T13:00:43.730Z,0.0058,-0.9786,0.1059,-0.0944,-0.1485,0.0261,-0.0290,0.0136,0.0081,-2.5057,1.4578,-3.1017
2024-10-11T13:00:43.739Z,0.0037,-0.9772,0.0935,-0.0944,-0.1485,0.0261,-0.0296,0.0179,0.0076,-2.5057,1.4578,-3.1017
2024-10-11T13:00:43.749Z,-0.0025,-0.9765,0.0881,-0.0944,-0.1485,0.0261,-0.0314,0.0199,0.0071,-2.5057,1.4578,-3.1017
2024-10-11T13:00:43.759Z,0.0034,-0.9733,0.0900,-0.0535,-0.1922,0.2300,-0.0304,0.0238,0.0036,-2.5078,1.4586,-3.0991
2024-10-11T13:00:43.769Z,-0.0053,-0.9714,0.0924,-0.0535,-0.1922,0.2300,-0.0297,0.0246,0.0041,-2.5078,1.4586,-3.0991
2024-10-11T13:00:43.780Z,-0.0034,-0.9729,0.0932,0.0010,-0.1849,0.1394,-0.0297,0.0246,0.0041,-2.5089,1.4593,-3.0978
2024-10-11T13:00:43.789Z,-0.0069,-0.9773,0.0964,0.0010,-0.1849,0.1394,-0.0221,0.0154,0.0011,-2.5089,1.4593,-3.0978
2024-10-11T13:00:43.800Z,-0.0071,-0.9819,0.0903,0.0010,-0.1849,0.1394,-0.0208,0.0107,-0.0020,-2.5089,1.4593,-3.0978
2024-10-11T13:00:43.809Z,-0.0067,-0.9795,0.0891,0.0076,-0.1634,0.1658,-0.0191,0.0107,-0.0032,-2.5086,1.4600,-3.0978
2024-10-11T13:00:43.819Z,-0.0102,-0.9784,0.0974,0.0076,-0.1634,0.1658,-0.0186,0.0134,-0.0057,-2.5086,1.4600,-3.0978
2024-10-11T13:00:43.831Z,-0.0123,-0.9803,0.1040,0.0076,-0.1634,0.1658,-0.0228,0.0171,-0.0052,-2.5086,1.4600,-3.0978
2024-10-11T13:00:43.840Z,-0.0056,-0.9805,0.1039,-0.0008,-0.1272,0.0684,-0.0213,0.0194,-0.0051,-2.5074,1.4607,-3.0989
2024-10-11T13:00:43.849Z,-0.0045,-0.9813,0.0983,-0.0008,-0.1272,0.0684,-0.0146,0.0179,-0.0084,-2.5074,1.4607,-3.0989
2024-10-11T13:00:43.859Z,-0.0046,-0.9846,0.0906,-0.0008,-0.1272,0.0684,-0.0152,0.0103,-0.0089,-2.5074,1.4607,-3.0989
2024-10-11T13:00:43.870Z,-0.0073,-0.9877,0.0962,0.0263,-0.0470,0.1156,-0.0129,0.0067,-0.0109,-2.5053,1.4612,-3.1008
2024-10-11T13:00:43.880Z,-0.0089,-0.9904,0.0989,0.0263,-0.0470,0.1156,-0.0110,0.0063,-0.0126,-2.5053,1.4612,-3.1008
2024-10-11T13:00:43.889Z,-0.0124,-0.9933,0.1021,0.0263,-0.0470,0.1156,-0.0108,0.0101,-0.0137,-2.5053,1.4612,-3.1008
2024-10-11T13:00:43.901Z,-0.0175,-0.9954,0.1054,0.1432,0.0207,0.0613,-0.0119,0.0132,-0.0168,-2.5020,1.4616,-3.1040
2024-10-11T13:00:43.909Z,-0.0151,-0.9961,0.1015,0.1432,0.0207,0.0613,-0.0135,0.0172,-0.0182,-2.5020,1.4616,-3.1040
2024-10-11T13:00:43.919Z,-0.0093,-0.9912,0.0990,0.1432,0.0207,0.0613,-0.0119,0.0179,-0.0192,-2.5020,1.4616,-3.1040
2024-10-11T13:00:43.931Z,-0.0094,-0.9949,0.1021,0.0613,-0.0071,0.0824,-0.0099,0.0141,-0.0203,-2.4970,1.4620,-3.1088
2024-10-11T13:00:43.939Z,-0.0112,-0.9912,0.1018,0.0613,-0.0071,0.0824,-0.0053,0.0107,-0.0200,-2.4970,1.4620,-3.1088
2024-10-11T13:00:43.949Z,-0.0081,-0.9951,0.0928,0.0613,-0.0071,0.0824,-0.0015,0.0073,-0.0199,-2.4970,1.4620,-3.1088
2024-10-11T13:00:43.959Z,-0.0040,-0.9949,0.0901,0.0072,-0.0007,0.2024,-0.0044,0.0120,-0.0216,-2.4918,1.4622,-3.1139
2024-10-11T13:00:43.969Z,-0.0065,-0.9936,0.0892,0.0072,-0.0007,0.2024,-0.0044,0.0184,-0.0212,-2.4918,1.4622,-3.1139
2024-10-11T13:00:43.980Z,-0.0137,-0.9949,0.0962,0.0072,-0.0007,0.2024,-0.0022,0.0232,-0.0232,-2.4918,1.4622,-3.1139
2024-10-11T13:00:43.989Z,-0.0107,-0.9976,0.0926,0.0472,0.0448,0.1466,-0.0022,0.0232,-0.0232,-2.4861,1.4623,-3.1192
2024-10-11T13:00:43.999Z,-0.0064,-1.0011,0.0909,0.0472,0.0448,0.1466,0.0019,0.0221,-0.0240,-2.4861,1.4623,-3.1192
2024-10-11T13:00:44.009Z,-0.0069,-1.0001,0.0854,0.0472,0.0448,0.1466,0.0059,0.0184,-0.0257,-2.4861,1.4623,-3.1192
2024-10-11T13:00:44.020Z,-0.0119,-0.9936,0.0848,0.0809,-0.0162,0.1726,0.0087,0.0194,-0.0255,-2.4800,1.4622,-3.1250
2024-10-11T13:00:44.029Z,-0.0064,-0.9946,0.0916,0.0809,-0.0162,0.1726,0.0066,0.0221,-0.0269,-2.4800,1.4622,-3.1250
2024-10-11T13:00:44.039Z,-0.0006,-0.9926,0.0919,0.0809,-0.0162,0.1726,0.0095,0.0271,-0.0246,-2.4800,1.4622,-3.1250
2024-10-11T13:00:44.050Z,-0.0042,-0.9973,0.0939,0.0516,0.0603,0.1554,0.0095,0.0271,-0.0246,-2.4734,1.4621,-3.1310
2024-10-11T13:00:44.059Z,-0.0080,-1.0014,0.0868,0.0516,0.0603,0.1554,0.0085,0.0331,-0.0220,-2.4734,1.4621,-3.1310
2024-10-11T13:00:44.069Z,-0.0032,-1.0001,0.0904,0.0516,0.0603,0.1554,0.0098,0.0323,-0.0231,-2.4734,1.4621,-3.1310
2024-10-11T13:00:44.079Z,0.0006,-0.9973,0.0938,-0.0533,0.0042,0.1052,0.0119,0.0305,-0.0237,-2.4676,1.4619,-3.1361
2024-10-11T13:00:44.089Z,0.0087,-0.9938,0.0997,-0.0533,0.0042,0.1052,0.0176,0.0293,-0.0196,-2.4676,1.4619,-3.1361
2024-10-11T13:00:44.099Z,0.0087,-0.9966,0.0956,-0.0533,0.0042,0.1052,0.0154,0.0300,-0.0201,-2.4676,1.4619,-3.1361
2024-10-11T13:00:44.109Z,0.0080,-0.9992,0.0948,-0.0618,0.0329,0.1577,0.0153,0.0332,-0.0189,-2.4627,1.4616,-3.1402
2024-10-11T13:00:44.119Z,0.0038,-0.9945,0.0957,-0.0618,0.0329,0.1577,0.0174,0.0354,-0.0163,-2.4627,1.4616,-3.1402
2024-10-11T13:00:44.129Z,0.0045,-0.9948,0.0900,-0.0618,0.0329,0.1577,0.0202,0.0354,-0.0182,-2.4627,1.4616,-3.1402
2024-10-11T13:00:44.139Z,0.0069,-0.9881,0.0885,-0.0475,-0.0728,0.2375,0.0225,0.0286,-0.0166,-2.4586,1.4610,3.1396
2024-10-11T13:00:44.149Z,0.0028,-0.9846,0.0851,-0.0475,-0.0728,0.2375,0.0282,0.0269,-0.0154,-2.4586,1.4610,3.1396
2024-10-11T13:00:44.159Z,0.0072,-0.9864,0.0794,-0.0475,-0.0728,0.2375,0.0309,0.0235,-0.0139,-2.4586,1.4610,3.1396
2024-10-11T13:00:44.169Z,0.0046,-0.9855,0.0854,0.0000,-0.0957,0.2220,0.0335,0.0240,-0.0156,-2.4546,1.4603,3.1362
2024-10-11T13:00:44.178Z,-0.0032,-0.9850,0.0914,0.0000,-0.0957,0.2220,0.0306,0.0284,-0.0150,-2.4546,1.4603,3.1362
2024-10-11T13:00:44.189Z,0.0033,-0.9867,0.0949,0.0000,-0.0957,0.2220,0.0281,0.0324,-0.0119,-2.4546,1.4603,3.1362
2024-10-11T13:00:44.200Z,0.0141,-0.9869,0.0978,-0.1109,-0.0768,0.1058,0.0281,0.0324,-0.0119,-2.4510,1.4594,3.1332
2024-10-11T13:00:44.209Z,0.0071,-0.9831,0.1007,-0.1109,-0.0768,0.1058,0.0297,0.0308,-0.0115,-2.4510,1.4594,3.1332
2024-10-11T13:00:44.219Z,0.0076,-0.9830,0.1031,-0.1109,-0.0768,0.1058,0.0351,0.0267,-0.0085,-2.4510,1.4594,3.1332
2024-10-11T13:00:44.229Z,0.0077,-0.9844,0.1024,-0.1061,-0.1149,0.0385,0.0354,0.0256,-0.0081,-2.4486,1.4585,3.1313
2024-10-11T13:00:44.239Z,0.0150,-0.9816,0.1101,-0.1061,-0.1149,0.0385,0.0341,0.0247,-0.0069,-2.4486,1.4585,3.1313
2024-10-11T13:00:44.250Z,0.0122,-0.9750,0.1212,-0.1061,-0.1149,0.0385,0.0336,0.0263,-0.0029,-2.4486,1.4585,3.1313
2024-10-11T13:00:44.259Z,0.0108,-0.9797,0.1204,-0.0901,-0.1242,-0.1195,0.0300,0.0282,-0.0019,-2.4473,1.4577,3.1306
2024-10-11T13:00:44.270Z,0.0090,-0.9824,0.1275,-0.0901,-0.1242,-0.1195,0.0321,0.0256,0.0005,-2.4473,1.4577,3.1306
2024-10-11T13:00:44.279Z,0.0111,-0.9845,0.1298,-0.0901,-0.1242,-0.1195,0.0327,0.0225,-0.0014,-2.4473,1.4577,3.1306
2024-10-11T13:00:44.289Z,0.0105,-0.9863,0.1261,-0.0647,-0.0615,-0.1272,0.0310,0.0135,-0.0022,-2.4469,1.4567,3.1305
2024-10-11T13:00:44.298Z,0.0068,-0.9885,0.1290,-0.0647,-0.0615,-0.1272,0.0310,0.0129,0.0006,-2.4469,1.4567,3.1305
2024-10-11T13:00:44.309Z,0.0076,-0.9908,0.1326,-0.0647,-0.0615,-0.1272,0.0299,0.0098,0.0028,-2.4469,1.4567,3.1305
2024-10-11T13:00:44.319Z,0.0099,-0.9913,0.1369,-0.0937,-0.0032,-0.2372,0.0249,0.0112,0.0008,-2.4469,1.4559,3.1306
2024-10-11T13:00:44.329Z,0.0106,-0.9937,0.1388,-0.0937,-0.0032,-0.2372,0.0213,0.0109,0.0005,-2.4469,1.4559,3.1306
2024-10-11T13:00:44.339Z,0.0072,-0.9936,0.1416,-0.0937,-0.0032,-0.2372,0.0191,0.0077,0.0046,-2.4469,1.4559,3.1306
2024-10-11T13:00:44.349Z,0.0103,-0.9950,0.1377,-0.1280,0.0423,-0.1686,0.0195,0.0045,0.0034,-2.4475,1.4552,3.1313
2024-10-11T13:00:44.359Z,0.0141,-0.9985,0.1298,-0.1280,0.0423,-0.1686,0.0182,0.0015,0.0055,-2.4475,1.4552,3.1313
2024-10-11T13:00:44.368Z,0.0078,-0.9988,0.1296,-0.1280,0.0423,-0.1686,0.0176,0.0009,0.0056,-2.4475,1.4552,3.1313
2024-10-11T13:00:44.379Z,0.0036,-1.0030,0.1329,-0.0549,0.1063,-0.1556,0.0146,0.0011,0.0087,-2.4488,1.4546,3.1324
2024-10-11T13:00:44.389Z,0.0098,-1.0043,0.1321,-0.0549,0.1063,-0.1556,0.0123,0.0055,0.0076,-2.4488,1.4546,3.1324
2024-10-11T13:00:44.398Z,0.0046,-1.0043,0.1398,-0.0549,0.1063,-0.1556,0.0058,0.0110,0.0095,-2.4488,1.4546,3.1324
2024-10-11T13:00:44.409Z,0.0100,-1.0059,0.1353,-0.1082,0.1163,-0.1739,0.0031,0.0077,0.0111,-2.4506,1.4542,3.1340
2024-10-11T13:00:44.419Z,0.0125,-1.0027,0.1339,-0.1082,0.1163,-0.1739,0.0058,0.0057,0.0109,-2.4506,1.4542,3.1340
2024-10-11T13:00:44.429Z,0.0082,-1.0002,0.1374,-0.1082,0.1163,-0.1739,0.0025,0.0038,0.0130,-2.4506,1.4542,3.1340
2024-10-11T13:00:44.439Z,0.0083,-0.9975,0.1365,-0.0594,0.0284,-0.2252,-0.0025,0.0038,0.0151,-2.4533,1.4541,3.1366
2024-10-11T13:00:44.449Z,0.0072,-0.9959,0.1428,-0.0594,0.0284,-0.2252,-0.0043,0.0071,0.0145,-2.4533,1.4541,3.1366
2024-10-11T13:00:44.459Z,0.0086,-0.9945,0.1416,-0.0594,0.0284,-0.2252,-0.0076,0.0131,0.0115,-2.4533,1.4541,3.1366
2024-10-11T13:00:44.470Z,0.0055,-0.9915,0.1402,-0.0494,0.0031,-0.2327,-0.0080,0.0148,0.0156,-2.4565,1.4541,3.1399
2024-10-11T13:00:44.479Z,0.0061,-0.9959,0.1387,-0.0494,0.0031,-0.2327,-0.0114,0.0170,0.0143,-2.4565,1.4541,3.1399
2024-10-11T13:00:44.490Z,0.0100,-0.9942,0.1347,-0.0494,0.0031,-0.2327,-0.0117,0.0129,0.0130,-2.4565,1.4541,3.1399
2024-10-11T13:00:44.500Z,0.0112,-0.9905,0.1355,-0.0770,-0.0332,-0.1553,-0.0106,0.0143,0.0170,-2.4599,1.4543,-3.1397
2024-10-11T13:00:44.509Z,0.0033,-0.9902,0.1277,-0.0770,-0.0332,-0.1553,-0.0095,0.0161,0.0156,-2.4599,1.4543,-3.1397
2024-10-11T13:00:44.519Z,0.0053,-0.9901,0.1211,-0.0770,-0.0332,-0.1553,-0.0068,0.0189,0.0158,-2.4599,1.4543,-3.1397
2024-10-11T13:00:44.529Z,0.0029,-0.9931,0.1188,0.0084,-0.0017,0.0177,-0.0087,0.0196,0.0165,-2.4637,1.4544,-3.1357
2024-10-11T13:00:44.539Z,-0.0036,-0.9935,0.1121,0.0084,-0.0017,0.0177,-0.0073,0.0225,0.0142,-2.4637,1.4544,-3.1357
2024-10-11T13:00:44.549Z,0.0004,-0.9933,0.1167,0.0084,-0.0017,0.0177,-0.0062,0.0164,0.0126,-2.4637,1.4544,-3.1357
2024-10-11T13:00:44.559Z,0.0002,-0.9960,0.1174,-0.0268,0.0305,0.0068,-0.0010,0.0142,0.0129,-2.4668,1.4545,-3.1324
2024-10-11T13:00:44.569Z,0.0050,-0.9971,0.1127,-0.0268,0.0305,0.0068,0.0040,0.0090,0.0132,-2.4668,1.4545,-3.1324
2024-10-11T13:00:44.579Z,-0.0001,-1.0017,0.1036,-0.0268,0.0305,0.0068,0.0076,0.0100,0.0109,-2.4668,1.4545,-3.1324
2024-10-11T13:00:44.589Z,-0.0066,-1.0051,0.0985,0.0236,0.1137,0.1552,0.0120,0.0066,0.0129,-2.4699,1.4543,-3.1293
2024-10-11T13:00:44.599Z,0.0015,-1.0033,0.1041,0.0236,0.1137,0.1552,0.0115,0.0138,0.0123,-2.4699,1.4543,-3.1293
2024-10-11T13:00:44.608Z,0.0014,-1.0043,0.1066,0.0236,0.1137,0.1552,0.0085,0.0127,0.0142,-2.4699,1.4543,-3.1293
2024-10-11T13:00:44.619Z,-0.0021,-1.0029,0.1117,0.0114,0.0865,-0.0032,0.0119,0.0140,0.0118,-2.4729,1.4540,-3.1262
2024-10-11T13:00:44.629Z,-0.0030,-1.0022,0.1185,0.0114,0.0865,-0.0032,0.0123,0.0151,0.0084,-2.4729,1.4540,-3.1262
2024-10-11T13:00:44.639Z,-0.0095,-1.0050,0.1160,0.0114,0.0865,-0.0032,0.0099,0.0154,0.0060,-2.4729,1.4540,-3.1262
2024-10-11T13:00:44.649Z,-0.0043,-1.0057,0.1196,0.0552,0.0981,-0.0427,0.0103,0.0177,0.0068,-2.4752,1.4536,-3.1237
2024-10-11T13:00:44.659Z,-0.0104,-1.0008,0.1236,0.0552,0.0981,-0.0427,0.0083,0.0116,0.0071,-2.4752,1.4536,-3.1237
2024-10-11T13:00:44.669Z,-0.0115,-0.9989,0.1327,0.0552,0.0981,-0.0427,0.0108,0.0159,0.0041,-2.4752,1.4536,-3.1237
2024-10-11T13:00:44.679Z,-0.0146,-0.9981,0.1383,0.0803,0.0882,-0.2225,0.0109,0.0188,0.0061,-2.4766,1.4534,-3.1220
2024-10-11T13:00:44.689Z,-0.0072,-1.0050,0.1398,0.0803,0.0882,-0.2225,0.0082,0.0152,0.0044,-2.4766,1.4534,-3.1220
2024-10-11T13:00:44.700Z,-0.0101,-1.0085,0.1382,0.0803,0.0882,-0.2225,0.0020,0.0183,-0.0008,-2.4766,1.4534,-3.1220
2024-10-11T13:00:44.710Z,-0.0107,-1.0102,0.1387,0.0685,0.1714,-0.2273,0.0020,0.0211,-0.0009,-2.4774,1.4533,-3.1209
2024-10-11T13:00:44.719Z,-0.0067,-1.0082,0.1434,0.0685,0.1714,-0.2273,0.0025,0.0204,0.0014,-2.4774,1.4533,-3.1209
2024-10-11T13:00:44.729Z,-0.0045,-1.0061,0.1469,0.0685,0.1714,-0.2273,-0.0025,0.0222,0.0008,-2.4774,1.4533,-3.1209
2024-10-11T13:00:44.739Z,-0.0067,-1.0076,0.1452,0.0723,0.1533,-0.2799,-0.0033,0.0244,0.0025,-2.4778,1.4533,-3.1200
2024-10-11T13:00:44.749Z,-0.0111,-1.0083,0.1464,0.0723,0.1533,-0.2799,-0.0074,0.0284,-0.0021,-2.4778,1.4533,-3.1200
2024-10-11T13:00:44.759Z,-0.0113,-1.0071,0.1461,0.0723,0.1533,-0.2799,-0.0095,0.0288,-0.0038,-2.4778,1.4533,-3.1200
2024-10-11T13:00:44.769Z,-0.0097,-1.0048,0.1422,0.0709,0.1032,-0.2257,-0.0120,0.0291,-0.0018,-2.4774,1.4535,-3.1199
2024-10-11T13:00:44.779Z,-0.0082,-1.0029,0.1382,0.0709,0.1032,-0.2257,-0.0137,0.0251,-0.0032,-2.4774,1.4535,-3.1199
2024-10-11T13:00:44.789Z,-0.0068,-1.0015,0.1343,0.0709,0.1032,-0.2257,-0.0158,0.0239,-0.0029,-2.4774,1.4535,-3.1199
2024-10-11T13:00:44.799Z,-0.0035,-1.0027,0.1292,-0.0087,0.1060,-0.0832,-0.0135,0.0289,-0.0056,-2.4772,1.4538,-3.1193
2024-10-11T13:00:44.809Z,-0.0022,-1.0049,0.1265,-0.0087,0.1060,-0.0832,-0.0172,0.0303,-0.0045,-2.4772,1.4538,-3.1193
2024-10-11T13:00:44.818Z,-0.0069,-1.0039,0.1314,-0.0087,0.1060,-0.0832,-0.0187,0.0323,-0.0012,-2.4772,1.4538,-3.1193
2024-10-11T13:00:44.829Z,-0.0073,-1.0028,0.1416,0.0428,0.1005,-0.2644,-0.0203,0.0362,-0.0044,-2.4771,1.4542,-3.1187
2024-10-11T13:00:44.839Z,-0.0053,-1.0023,0.1449,0.0428,0.1005,-0.2644,-0.0281,0.0400,-0.0017,-2.4771,1.4542,-3.1187
2024-10-11T13:00:44.849Z,0.0029,-0.9979,0.1422,0.0428,0.1005,-0.2644,-0.0281,0.0397,-0.0024,-2.4771,1.4542,-3.1187
2024-10-11T13:00:44.859Z,-0.0078,-0.9963,0.1367,0.1003,0.0231,-0.2145,-0.0292,0.0373,-0.0047,-2.4771,1.4549,-3.1178
2024-10-11T13:00:44.869Z,-0.0091,-0.9941,0.1413,0.1003,0.0231,-0.2145,-0.0284,0.0396,-0.0026,-2.4771,1.4549,-3.1178
2024-10-11T13:00:44.879Z,0.0027,-0.9923,0.1368,0.1003,0.0231,-0.2145,-0.0309,0.0407,-0.0006,-2.4771,1.4549,-3.1178
2024-10-11T13:00:44.888Z,0.0086,-0.9933,0.1360,-0.1208,0.0087,-0.1698,-0.0337,0.0459,0.0006,-2.4776,1.4558,-3.1163
2024-10-11T13:00:44.900Z,0.0063,-0.9923,0.1276,-0.1208,0.0087,-0.1698,-0.0359,0.0473,0.0022,-2.4776,1.4558,-3.1163
2024-10-11T13:00:44.909Z,0.0000,-0.9901,0.1207,-0.1208,0.0087,-0.1698,-0.0330,0.0491,0.0032,-2.4776,1.4558,-3.1163
2024-10-11T13:00:44.919Z,0.0035,-0.9862,0.1184,-0.0770,-0.0814,-0.0507,-0.0337,0.0461,0.0018,-2.4789,1.4567,-3.1138
2024-10-11T13:00:44.929Z,-0.0011,-0.9828,0.1191,-0.0770,-0.0814,-0.0507,-0.0338,0.0378,0.0017,-2.4789,1.4567,-3.1138
2024-10-11T13:00:44.939Z,-0.0114,-0.9826,0.1256,-0.0770,-0.0814,-0.0507,-0.0330,0.0353,0.0018,-2.4789,1.4567,-3.1138
2024-10-11T13:00:44.949Z,-0.0105,-0.9818,0.1298,0.0328,-0.1004,-0.1561,-0.0343,0.0387,0.0036,-2.4800,1.4576,-3.1117
2024-10-11T13:00:44.959Z,-0.0030,-0.9863,0.1236,0.0328,-0.1004,-0.1561,-0.0374,0.0432,0.0018,-2.4800,1.4576,-3.1117
2024-10-11T13:00:44.969Z,-0.0022,-0.9882,0.1140,0.0328,-0.1004,-0.1561,-0.0372,0.0477,0.0007,-2.4800,1.4576,-3.1117
2024-10-11T13:00:44.979Z,-0.0028,-0.9869,0.1100,0.0121,-0.0641,0.0426,-0.0350,0.0469,-0.0008,-2.4803,1.4585,-3.1105
2024-10-11T13:00:44.989Z,-0.0073,-0.9872,0.1043,0.0121,-0.0641,0.0426,-0.0317,0.0418,0.0021,-2.4803,1.4585,-3.1105
2024-10-11T13:00:44.999Z,-0.0045,-0.9882,0.0984,0.0121,-0.0641,0.0426,-0.0285,0.0344,0.0003,-2.4803,1.4585,-3.1105
2024-10-11T13:00:45.009Z,0.0022,-0.9918,0.1003,-0.0380,-0.0254,0.0568,-0.0276,0.0308,-0.0001,-2.4807,1.4594,-3.1092
2024-10-11T13:00:45.019Z,-0.0036,-0.9925,0.1058,-0.0380,-0.0254,0.0568,-0.0269,0.0292,0.0029,-2.4807,1.4594,-3.1092
2024-10-11T13:00:45.029Z,-0.0046,-0.9949,0.1058,-0.0380,-0.0254,0.0568,-0.0317,0.0341,0.0040,-2.4807,1.4594,-3.1092
2024-10-11T13:00:45.039Z,-0.0018,-0.9942,0.1088,0.0061,0.0112,0.0043,-0.0305,0.0393,0.0017,-2.4817,1.4602,-3.1074
2024-10-11T13:00:45.049Z,-0.0068,-0.9980,0.1112,0.0061,0.0112,0.0043,-0.0293,0.0356,-0.0012,-2.4817,1.4602,-3.1074
2024-10-11T13:00:45.059Z,-0.0146,-1.0031,0.1066,0.0061,0.0112,0.0043,-0.0269,0.0296,-0.0019,-2.4817,1.4602,-3.1074
2024-10-11T13:00:45.069Z,-0.0147,-1.0041,0.1084,0.0700,0.1031,0.0443,-0.0244,0.0227,-0.0030,-2.4819,1.4610,-3.1066
2024-10-11T13:00:45.080Z,-0.0091,-1.0071,0.1068,0.0700,0.1031,0.0443,-0.0207,0.0190,-0.0044,-2.4819,1.4610,-3.1066
2024-10-11T13:00:45.090Z,-0.0181,-1.0071,0.1080,0.0700,0.1031,0.0443,-0.0235,0.0203,-0.0070,-2.4819,1.4610,-3.1066
2024-10-11T13:00:45.099Z,-0.0181,-1.0071,0.1080,0.1502,0.1357,-0.0177,-0.0259,0.0229,-0.0072,-2.4806,1.4617,-3.1073
2024-10-11T13:00:45.110Z,-0.0163,-1.0129,0.1111,0.1502,0.1357,-0.0177,-0.0220,0.0258,-0.0084,-2.4806,1.4617,-3.1073
2024-10-11T13:00:45.118Z,-0.0163,-1.0129,0.1111,0.1502,0.1357,-0.0177,-0.0209,0.0260,-0.0106,-2.4806,1.4617,-3.1073
2024-10-11T13:00:45.130Z,-0.0131,-1.0109,0.1126,0.0540,0.1861,-0.0017,-0.0221,0.0135,-0.0111,-2.4785,1.4623,-3.1091
2024-10-11T13:00:45.139Z,-0.0131,-1.0109,0.1126,0.0540,0.1861,-0.0017,-0.0185,0.0082,-0.0126,-2.4785,1.4623,-3.1091
2024-10-11T13:00:45.150Z,-0.0182,-1.0113,0.1113,0.0540,0.1861,-0.0017,-0.0192,0.0132,-0.0144,-2.4785,1.4623,-3.1091
2024-10-11T13:00:45.160Z,-0.0115,-1.0157,0.1155,0.1314,0.2001,-0.0863,-0.0208,0.0147,-0.0120,-2.4757,1.4630,-3.1117
2024-10-11T13:00:45.170Z,-0.0079,-1.0168,0.1118,0.1314,0.2001,-0.0863,-0.0249,0.0189,-0.0138,-2.4757,1.4630,-3.1117
2024-10-11T13:00:45.180Z,-0.0126,-1.0123,0.1076,0.1314,0.2001,-0.0863,-0.0251,0.0232,-0.0145,-2.4757,1.4630,-3.1117
2024-10-11T13:00:45.189Z,-0.0126,-1.0123,0.1076,0.0746,0.1527,-0.0058,-0.0202,0.0220,-0.0159,-2.4727,1.4636,-3.1144
2024-10-11T13:00:45.201Z,-0.0174,-1.0075,0.1035,0.0746,0.1527,-0.0058,-0.0223,0.0185,-0.0157,-2.4727,1.4636,-3.1144
2024-10-11T13:00:45.210Z,-0.0182,-1.0110,0.1088,0.0746,0.1527,-0.0058,-0.0178,0.0137,-0.0176,-2.4727,1.4636,-3.1144
2024-10-11T13:00:45.218Z,-0.0182,-1.0110,0.1088,0.1445,0.1501,-0.0187,-0.0204,0.0144,-0.0183,-2.4694,1.4642,-3.1174
2024-10-11T13:00:45.230Z,-0.0124,-1.0041,0.1120,0.1445,0.1501,-0.0187,-0.0193,0.0181,-0.0163,-2.4694,1.4642,-3.1174
2024-10-11T13:00:45.240Z,-0.0116,-0.9996,0.1123,0.1445,0.1501,-0.0187,-0.0250,0.0228,-0.0173,-2.4694,1.4642,-3.1174
2024-10-11T13:00:45.249Z,-0.0116,-0.9996,0.1123,0.0982,0.0534,-0.0359,-0.0243,0.0275,-0.0144,-2.4662,1.4648,-3.1201
2024-10-11T13:00:45.260Z,-0.0121,-0.9929,0.1058,0.0982,0.0534,-0.0359,-0.0246,0.0260,-0.0160,-2.4662,1.4648,-3.1201
2024-10-11T13:00:45.268Z,-0.0121,-0.9929,0.1058,0.0982,0.0534,-0.0359,-0.0237,0.0247,-0.0177,-2.4662,1.4648,-3.1201
2024-10-11T13:00:45.280Z,-0.0099,-0.9884,0.0935,0.0648,-0.0429,0.1178,-0.0192,0.0215,-0.0173,-2.4622,1.4655,-3.1237
2024-10-11T13:00:45.290Z,-0.0112,-0.9863,0.0915,0.0648,-0.0429,0.1178,-0.0191,0.0210,-0.0161,-2.4622,1.4655,-3.1237
2024-10-11T13:00:45.300Z,-0.0094,-0.9840,0.0880,0.0648,-0.0429,0.1178,-0.0175,0.0240,-0.0184,-2.4622,1.4655,-3.1237
2024-10-11T13:00:45.309Z,-0.0071,-0.9812,0.0871,0.0708,-0.1188,0.1629,-0.0198,0.0278,-0.0197,-2.4579,1.4661,-3.1274
2024-10-11T13:00:45.320Z,-0.0021,-0.9827,0.0853,0.0708,-0.1188,0.1629,-0.0123,0.0260,-0.0190,-2.4579,1.4661,-3.1274
2024-10-11T13:00:45.329Z,-0.0028,-0.9817,0.0881,0.0708,-0.1188,0.1629,-0.0142,0.0275,-0.0167,-2.4579,1.4661,-3.1274
2024-10-11T13:00:45.340Z,-0.0039,-0.9797,0.0844,0.0238,-0.1365,0.1629,-0.0099,0.0269,-0.0185,-2.4539,1.4664,-3.1308
2024-10-11T13:00:45.351Z,-0.0039,-0.9797,0.0844,0.0238,-0.1365,0.1629,-0.0076,0.0278,-0.0146,-2.4539,1.4664,-3.1308
2024-10-11T13:00:45.359Z,-0.0032,-0.9776,0.0848,0.0238,-0.1365,0.1629,-0.0064,0.0320,-0.0159,-2.4539,1.4664,-3.1308
2024-10-11T13:00:45.370Z,0.0021,-0.9827,0.0816,-0.0257,-0.1398,0.1954,-0.0058,0.0349,-0.0128,-2.4504,1.4667,-3.1336
2024-10-11T13:00:45.380Z,-0.0025,-0.9865,0.0846,-0.0257,-0.1398,0.1954,-0.0068,0.0360,-0.0125,-2.4504,1.4667,-3.1336
2024-10-11T13:00:45.389Z,-0.0003,-0.9897,0.0773,-0.0257,-0.1398,0.1954,-0.0002,0.0341,-0.0108,-2.4504,1.4667,-3.1336
2024-10-11T13:00:45.399Z,-0.0003,-0.9897,0.0773,-0.0356,-0.0543,0.2836,0.0025,0.0323,-0.0093,-2.4479,1.4668,-3.1354
2024-10-11T13:00:45.409Z,0.0025,-0.9926,0.0804,-0.0356,-0.0543,0.2836,0.0047,0.0290,-0.0084,-2.4479,1.4668,-3.1354
2024-10-11T13:00:45.420Z,0.0012,-0.9976,0.0791,-0.0356,-0.0543,0.2836,0.0051,0.0284,-0.0097,-2.4479,1.4668,-3.1354
2024-10-11T13:00:45.430Z,-0.0028,-1.0020,0.0845,0.0120,0.0512,0.2224,0.0049,0.0310,-0.0061,-2.4458,1.4667,-3.1367
2024-10-11T13:00:45.440Z,0.0054,-1.0081,0.0877,0.0120,0.0512,0.2224,0.0059,0.0305,-0.0058,-2.4458,1.4667,-3.1367
2024-10-11T13:00:45.449Z,0.0054,-1.0081,0.0877,0.0120,0.0512,0.2224,0.0036,0.0344,-0.0055,-2.4458,1.4667,-3.1367
2024-10-11T13:00:45.459Z,-0.0024,-1.0155,0.0977,0.0502,0.1932,0.0608,0.0033,0.0345,-0.0068,-2.4443,1.4666,-3.1375
2024-10-11T13:00:45.470Z,0.0024,-1.0160,0.0982,0.0502,0.1932,0.0608,0.0030,0.0308,-0.0053,-2.4443,1.4666,-3.1375
2024-10-11T13:00:45.479Z,0.0025,-1.0208,0.1049,0.0502,0.1932,0.0608,0.0019,0.0343,-0.0032,-2.4443,1.4666,-3.1375
2024-10-11T13:00:45.489Z,-0.0033,-1.0238,0.1067,-0.0021,0.2777,-0.0224,0.0036,0.0313,-0.0022,-2.4437,1.4667,-3.1374
2024-10-11T13:00:45.500Z,-0.0033,-1.0238,0.1067,-0.0021,0.2777,-0.0224,0.0017,0.0321,-0.0020,-2.4437,1.4667,-3.1374
2024-10-11T13:00:45.509Z,-0.0002,-1.0201,0.1083,-0.0021,0.2777,-0.0224,-0.0057,0.0335,-0.0010,-2.4437,1.4667,-3.1374
2024-10-11T13:00:45.520Z,0.0030,-1.0203,0.1018,-0.0121,0.2597,-0.0034,-0.0043,0.0313,0.0013,-2.4432,1.4668,-3.1372
2024-10-11T13:00:45.529Z,-0.0032,-1.0195,0.1126,-0.0121,0.2597,-0.0034,-0.0087,0.0310,-0.0024,-2.4432,1.4668,-3.1372
2024-10-11T13:00:45.539Z,-0.0059,-1.0211,0.1069,-0.0121,0.2597,-0.0034,-0.0102,0.0307,0.0022,-2.4432,1.4668,-3.1372
2024-10-11T13:00:45.551Z,0.0020,-1.0188,0.1045,0.0087,0.2606,-0.0257,-0.0105,0.0294,0.0018,-2.4436,1.4671,-3.1361
2024-10-11T13:00:45.560Z,0.0034,-1.0175,0.1056,0.0087,0.2606,-0.0257,-0.0126,0.0302,0.0016,-2.4436,1.4671,-3.1361
2024-10-11T13:00:45.569Z,0.0034,-1.0175,0.1056,0.0087,0.2606,-0.0257,-0.0164,0.0307,0.0060,-2.4436,1.4671,-3.1361
2024-10-11T13:00:45.579Z,-0.0051,-1.0169,0.1055,0.0282,0.2134,0.0148,-0.0194,0.0299,0.0057,-2.4450,1.4676,-3.1341
2024-10-11T13:00:45.589Z,-0.0062,-1.0139,0.1007,0.0282,0.2134,0.0148,-0.0214,0.0299,0.0061,-2.4450,1.4676,-3.1341
2024-10-11T13:00:45.602Z,-0.0110,-1.0091,0.1103,0.0282,0.2134,0.0148,-0.0247,0.0262,0.0096,-2.4450,1.4676,-3.1341
2024-10-11T13:00:45.609Z,-0.0145,-1.0072,0.1057,0.1310,0.1234,-0.0741,-0.0278,0.0287,0.0096,-2.4475,1.4682,-3.1312
2024-10-11T13:00:45.620Z,-0.0088,-1.0048,0.0959,0.1310,0.1234,-0.0741,-0.0310,0.0291,0.0059,-2.4475,1.4682,-3.1312
2024-10-11T13:00:45.629Z,-0.0110,-1.0021,0.0954,0.1310,0.1234,-0.0741,-0.0354,0.0356,0.0073,-2.4475,1.4682,-3.1312
2024-10-11T13:00:45.639Z,-0.0070,-1.0089,0.0873,0.0775,0.1015,0.0890,-0.0352,0.0393,0.0051,-2.4500,1.4691,-3.1280
2024-10-11T13:00:45.650Z,-0.0102,-1.0061,0.0846,0.0775,0.1015,0.0890,-0.0405,0.0472,0.0017,-2.4500,1.4691,-3.1280
2024-10-11T13:00:45.659Z,-0.0132,-1.0056,0.0851,0.0775,0.1015,0.0890,-0.0434,0.0552,-0.0011,-2.4500,1.4691,-3.1280
2024-10-11T13:00:45.669Z,-0.0161,-1.0097,0.0804,0.1424,0.1317,0.1900,-0.0441,0.0644,-0.0040,-2.4508,1.4704,-3.1259
2024-10-11T13:00:45.679Z,-0.0136,-1.0164,0.0801,0.1424,0.1317,0.1900,-0.0429,0.0724,-0.0076,-2.4508,1.4704,-3.1259
2024-10-11T13:00:45.689Z,-0.0123,-1.0249,0.0721,0.1424,0.1317,0.1900,-0.0473,0.0831,-0.0135,-2.4508,1.4704,-3.1259
2024-10-11T13:00:45.701Z,-0.0091,-1.0255,0.0656,0.0990,0.3090,0.3278,-0.0455,0.0895,-0.0181,-2.4476,1.4718,-3.1270
2024-10-11T13:00:45.709Z,-0.0029,-1.0226,0.0710,0.0990,0.3090,0.3278,-0.0454,0.0969,-0.0247,-2.4476,1.4718,-3.1270
2024-10-11T13:00:45.719Z,0.0011,-1.0144,0.0712,0.0990,0.3090,0.3278,-0.0435,0.1004,-0.0312,-2.4476,1.4718,-3.1270
2024-10-11T13:00:45.729Z,0.0067,-1.0083,0.0746,-0.0520,0.1523,0.2034,-0.0401,0.1062,-0.0368,-2.4388,1.4731,-3.1329
2024-10-11T13:00:45.739Z,0.0175,-1.0006,0.0703,-0.0520,0.1523,0.2034,-0.0347,0.1109,-0.0439,-2.4388,1.4731,-3.1329
2024-10-11T13:00:45.750Z,0.0249,-0.9881,0.0791,-0.0520,0.1523,0.2034,-0.0334,0.1130,-0.0494,-2.4388,1.4731,-3.1329
2024-10-11T13:00:45.759Z,0.0271,-0.9703,0.0948,-0.2660,-0.1676,0.0781,-0.0293,0.1184,-0.0524,-2.4245,1.4741,3.1392
2024-10-11T13:00:45.769Z,0.0359,-0.9500,0.1016,-0.2660,-0.1676,0.0781,-0.0245,0.1124,-0.0587,-2.4245,1.4741,3.1392
2024-10-11T13:00:45.779Z,0.0367,-0.9281,0.1131,-0.2660,-0.1676,0.0781,-0.0211,0.1099,-0.0648,-2.4245,1.4741,3.1392
2024-10-11T13:00:45.789Z,0.0541,-0.9084,0.1272,-0.3933,-0.7681,-0.2379,-0.0155,0.1007,-0.0622,-2.4053,1.4747,3.1230
2024-10-11T13:00:45.801Z,0.0684,-0.8928,0.1363,-0.3933,-0.7681,-0.2379,-0.0111,0.0939,-0.0635,-2.4053,1.4747,3.1230
2024-10-11T13:00:45.809Z,0.0621,-0.8796,0.1376,-0.3933,-0.7681,-0.2379,-0.0095,0.0920,-0.0626,-2.4053,1.4747,3.1230
2024-10-11T13:00:45.820Z,0.0616,-0.8720,0.1400,-0.5644,-1.1824,-0.4201,-0.0016,0.0873,-0.0625,-2.3853,1.4749,3.1056
2024-10-11T13:00:45.829Z,0.0591,-0.8760,0.1414,-0.5644,-1.1824,-0.4201,0.0001,0.0917,-0.0653,-2.3853,1.4749,3.1056
2024-10-11T13:00:45.839Z,0.0604,-0.8874,0.1376,-0.5644,-1.1824,-0.4201,0.0031,0.0932,-0.0692,-2.3853,1.4749,3.1056
2024-10-11T13:00:45.850Z,0.0688,-0.8997,0.1315,-0.5781,-1.0014,-0.3632,0.0091,0.0941,-0.0685,-2.3638,1.4748,3.0869
2024-10-11T13:00:45.859Z,0.0704,-0.9216,0.1198,-0.5781,-1.0014,-0.3632,0.0149,0.0963,-0.0667,-2.3638,1.4748,3.0869
2024-10-11T13:00:45.869Z,0.0774,-0.9462,0.1156,-0.5781,-1.0014,-0.3632,0.0188,0.0948,-0.0644,-2.3638,1.4748,3.0869
2024-10-11T13:00:45.879Z,0.0647,-0.9667,0.1127,-0.6727,-0.3747,-0.1778,0.0209,0.0920,-0.0631,-2.3435,1.4742,3.0692
2024-10-11T13:00:45.889Z,0.0591,-0.9797,0.1042,-0.6727,-0.3747,-0.1778,0.0213,0.0965,-0.0595,-2.3435,1.4742,3.0692
2024-10-11T13:00:45.899Z,0.0633,-0.9907,0.0996,-0.6727,-0.3747,-0.1778,0.0182,0.1017,-0.0547,-2.3435,1.4742,3.0692
2024-10-11T13:00:45.909Z,0.0517,-0.9995,0.1003,-0.4838,0.0079,-0.0441,0.0178,0.0995,-0.0519,-2.3262,1.4735,3.0546
2024-10-11T13:00:45.919Z,0.0479,-1.0057,0.0975,-0.4838,0.0079,-0.0441,0.0120,0.0999,-0.0443,-2.3262,1.4735,3.0546
2024-10-11T13:00:45.928Z,0.0444,-1.0180,0.0917,-0.4838,0.0079,-0.0441,0.0150,0.1032,-0.0385,-2.3262,1.4735,3.0546
2024-10-11T13:00:45.939Z,0.0344,-1.0202,0.0913,-0.3113,0.2264,0.0591,0.0154,0.1065,-0.0313,-2.3146,1.4730,3.0460
2024-10-11T13:00:45.950Z,0.0230,-1.0230,0.1011,-0.3113,0.2264,0.0591,0.0136,0.1125,-0.0244,-2.3146,1.4730,3.0460
2024-10-11T13:00:45.959Z,0.0190,-1.0201,0.1062,-0.3113,0.2264,0.0591,0.0099,0.1103,-0.0157,-2.3146,1.4730,3.0460
2024-10-11T13:00:45.969Z,0.0172,-1.0166,0.1102,-0.0822,0.2295,-0.0856,0.0102,0.1023,-0.0054,-2.3094,1.4725,3.0438
2024-10-11T13:00:45.979Z,0.0188,-1.0093,0.1180,-0.0822,0.2295,-0.0856,0.0075,0.0958,0.0051,-2.3094,1.4725,3.0438
2024-10-11T13:00:45.989Z,0.0123,-1.0120,0.1224,-0.0822,0.2295,-0.0856,0.0014,0.0949,0.0135,-2.3094,1.4725,3.0438
2024-10-11T13:00:46.000Z,0.0011,-1.0151,0.1192,0.0464,0.1866,-0.2341,-0.0100,0.0962,0.0217,-2.3124,1.4726,3.0495
2024-10-11T13:00:46.009Z,-0.0057,-1.0207,0.1043,0.0464,0.1866,-0.2341,-0.0196,0.1019,0.0311,-2.3124,1.4726,3.0495
2024-10-11T13:00:46.019Z,-0.0197,-1.0294,0.0900,0.0464,0.1866,-0.2341,-0.0313,0.1048,0.0352,-2.3124,1.4726,3.0495
2024-10-11T13:00:46.029Z,-0.0253,-1.0363,0.0796,0.3087,0.3789,0.1249,-0.0373,0.1125,0.0368,-2.3214,1.4735,3.0613
2024-10-11T13:00:46.040Z,-0.0247,-1.0435,0.0660,0.3087,0.3789,0.1249,-0.0417,0.1111,0.0404,-2.3214,1.4735,3.0613
2024-10-11T13:00:46.051Z,-0.0249,-1.0480,0.0575,0.3087,0.3789,0.1249,-0.0419,0.1110,0.0455,-2.3214,1.4735,3.0613
2024-10-11T13:00:46.059Z,-0.0265,-1.0502,0.0575,0.3064,0.5459,0.3980,-0.0418,0.1090,0.0482,-2.3343,1.4748,3.0772
2024-10-11T13:00:46.069Z,-0.0321,-1.0470,0.0633,0.3064,0.5459,0.3980,-0.0396,0.1053,0.0534,-2.3343,1.4748,3.0772
2024-10-11T13:00:46.079Z,-0.0262,-1.0416,0.0661,0.3064,0.5459,0.3980,-0.0372,0.1053,0.0540,-2.3343,1.4748,3.0772
2024-10-11T13:00:46.089Z,-0.0193,-1.0331,0.0736,0.2492,0.4104,0.2404,-0.0398,0.0968,0.0576,-2.3503,1.4761,3.0959
2024-10-11T13:00:46.100Z,-0.0250,-1.0216,0.0857,0.2492,0.4104,0.2404,-0.0404,0.1122,0.0594,-2.3503,1.4761,3.0959
2024-10-11T13:00:46.109Z,-0.0225,-1.0117,0.0881,0.2492,0.4104,0.2404,-0.0430,0.0934,0.0571,-2.3503,1.4761,3.0959
2024-10-11T13:00:46.119Z,-0.0288,-1.0057,0.0824,0.3117,0.1122,0.0715,-0.0431,0.0878,0.0581,-2.3677,1.4774,3.1158
2024-10-11T13:00:46.129Z,-0.0188,-1.0005,0.0832,0.3117,0.1122,0.0715,-0.0456,0.0776,0.0608,-2.3677,1.4774,3.1158
2024-10-11T13:00:46.139Z,-0.0194,-0.9939,0.0809,0.3117,0.1122,0.0715,-0.0506,0.0732,0.0649,-2.3677,1.4774,3.1158
2024-10-11T13:00:46.150Z,-0.0128,-0.9918,0.0864,0.1786,-0.0362,0.0976,-0.0508,0.0660,0.0669,-2.3873,1.4789,3.1376
2024-10-11T13:00:46.159Z,-0.0260,-0.9877,0.0849,0.1786,-0.0362,0.0976,-0.0536,0.0642,0.0695,-2.3873,1.4789,3.1376
2024-10-11T13:00:46.168Z,-0.0266,-0.9875,0.0834,0.1786,-0.0362,0.0976,-0.0509,0.0524,0.0715,-2.3873,1.4789,3.1376
2024-10-11T13:00:46.179Z,-0.0305,-0.9843,0.0897,0.2486,-0.0922,0.0573,-0.0507,0.0408,0.0715,-2.4108,1.4804,-3.1208
2024-10-11T13:00:46.189Z,-0.0360,-0.9786,0.0978,0.2486,-0.0922,0.0573,-0.0503,0.0370,0.0729,-2.4108,1.4804,-3.1208
2024-10-11T13:00:46.200Z,-0.0380,-0.9713,0.1022,0.2486,-0.0922,0.0573,-0.0495,0.0295,0.0697,-2.4108,1.4804,-3.1208
2024-10-11T13:00:46.209Z,-0.0344,-0.9706,0.1034,0.3261,-0.2454,-0.1424,-0.0437,0.0262,0.0723,-2.4359,1.4818,-3.0952
2024-10-11T13:00:46.219Z,-0.0362,-0.9711,0.1065,0.3261,-0.2454,-0.1424,-0.0422,0.0199,0.0736,-2.4359,1.4818,-3.0952
2024-10-11T13:00:46.229Z,-0.0445,-0.9723,0.1069,0.3261,-0.2454,-0.1424,-0.0392,0.0171,0.0736,-2.4359,1.4818,-3.0952
2024-10-11T13:00:46.239Z,-0.0485,-0.9705,0.1048,0.4145,-0.2284,-0.1642,-0.0317,0.0081,0.0711,-2.4611,1.4827,-3.0698
2024-10-11T13:00:46.251Z,-0.0475,-0.9657,0.1140,0.4145,-0.2284,-0.1642,-0.0286,0.0079,0.0693,-2.4611,1.4827,-3.0698
2024-10-11T13:00:46.259Z,-0.0519,-0.9642,0.1241,0.4145,-0.2284,-0.1642,-0.0301,0.0067,0.0672,-2.4611,1.4827,-3.0698
2024-10-11T13:00:46.269Z,-0.0508,-0.9644,0.1268,0.4553,-0.3151,-0.3699,-0.0305,0.0059,0.0642,-2.4854,1.4835,-3.0457
2024-10-11T13:00:46.279Z,-0.0415,-0.9764,0.1263,0.4553,-0.3151,-0.3699,-0.0345,-0.0037,0.0612,-2.4854,1.4835,-3.0457
2024-10-11T13:00:46.289Z,-0.0385,-0.9812,0.1163,0.4553,-0.3151,-0.3699,-0.0324,-0.0185,0.0622,-2.4854,1.4835,-3.0457
2024-10-11T13:00:46.300Z,-0.0312,-1.0005,0.1116,0.2083,-0.0555,-0.2873,-0.0336,-0.0282,0.0589,-2.5083,1.4842,-3.0236
2024-10-11T13:00:46.309Z,-0.0415,-1.0064,0.1094,0.2083,-0.0555,-0.2873,-0.0317,-0.0389,0.0594,-2.5083,1.4842,-3.0236
2024-10-11T13:00:46.319Z,-0.0332,-1.0137,0.1046,0.2083,-0.0555,-0.2873,-0.0328,-0.0496,0.0589,-2.5083,1.4842,-3.0236
2024-10-11T13:00:46.329Z,-0.0446,-1.0089,0.1024,0.2715,0.1556,-0.1663,-0.0288,-0.0450,0.0534,-2.5303,1.4849,-3.0030
2024-10-11T13:00:46.338Z,-0.0500,-1.0045,0.1042,0.2715,0.1556,-0.1663,-0.0302,-0.0430,0.0490,-2.5303,1.4849,-3.0030
2024-10-11T13:00:46.350Z,-0.0515,-0.9868,0.1075,0.2715,0.1556,-0.1663,-0.0276,-0.0434,0.0445,-2.5303,1.4849,-3.0030
2024-10-11T13:00:46.359Z,-0.0477,-0.9717,0.1086,0.3650,-0.1768,-0.2194,-0.0288,-0.0450,0.0400,-2.5481,1.4856,-2.9869
2024-10-11T13:00:46.369Z,-0.0445,-0.9586,0.1138,0.3650,-0.1768,-0.2194,-0.0293,-0.0490,0.0370,-2.5481,1.4856,-2.9869
2024-10-11T13:00:46.379Z,-0.0414,-0.9528,0.1190,0.3650,-0.1768,-0.2194,-0.0306,-0.0518,0.0327,-2.5481,1.4856,-2.9869
2024-10-11T13:00:46.389Z,-0.0451,-0.9526,0.1160,0.2776,-0.4271,-0.3486,-0.0296,-0.0561,0.0292,-2.5618,1.4863,-2.9751
2024-10-11T13:00:46.399Z,-0.0411,-0.9502,0.1120,0.2776,-0.4271,-0.3486,-0.0297,-0.0592,0.0267,-2.5618,1.4863,-2.9751
2024-10-11T13:00:46.409Z,-0.0378,-0.9504,0.1062,0.2776,-0.4271,-0.3486,-0.0271,-0.0583,0.0257,-2.5618,1.4863,-2.9751
2024-10-11T13:00:46.420Z,-0.0393,-0.9534,0.1050,0.2232,-0.4486,-0.2386,-0.0281,-0.0537,0.0197,-2.5732,1.4869,-2.9656
2024-10-11T13:00:46.429Z,-0.0475,-0.9559,0.0943,0.2232,-0.4486,-0.2386,-0.0270,-0.0527,0.0205,-2.5732,1.4869,-2.9656
2024-10-11T13:00:46.439Z,-0.0533,-0.9592,0.0896,0.2232,-0.4486,-0.2386,-0.0266,-0.0449,0.0140,-2.5732,1.4869,-2.9656
2024-10-11T13:00:46.449Z,-0.0480,-0.9652,0.0827,0.3542,-0.3463,-0.0609,-0.0259,-0.0390,0.0097,-2.5810,1.4876,-2.9596
2024-10-11T13:00:46.459Z,-0.0470,-0.9705,0.0822,0.3542,-0.3463,-0.0609,-0.0253,-0.0371,0.0073,-2.5810,1.4876,-2.9596
