time,gFx,gFy,gFz,ax,ay,az,wx,wy,wz,yaw,pitch,roll
2024-10-11T14:05:11.247Z,0.0529,-0.9356,0.0287,0.2747,-0.5162,0.2967,0.0260,0.0410,0.0073,-3.1122,1.4945,2.6393
2024-10-11T14:05:11.257Z,0.0087,-0.9445,0.0366,0.2747,-0.5162,0.2967,0.0290,0.0382,0.0055,-3.1122,1.4945,2.6393
2024-10-11T14:05:11.266Z,0.1159,-0.9723,0.1219,0.2747,-0.5162,0.2967,0.0238,0.0309,0.0140,-3.1122,1.4945,2.6393
2024-10-11T14:05:11.276Z,0.0349,-0.9994,0.0824,0.0142,0.0227,-0.1465,0.0227,0.0307,0.0122,-3.1193,1.4941,2.6472
2024-10-11T14:05:11.286Z,0.0378,-1.0010,0.0846,0.0142,0.0227,-0.1465,0.0205,0.0323,0.0158,-3.1193,1.4941,2.6472
2024-10-11T14:05:11.297Z,0.0694,-0.9908,0.1003,0.0142,0.0227,-0.1465,0.0119,0.0349,0.0230,-3.1193,1.4941,2.6472
2024-10-11T14:05:11.307Z,0.0870,-0.9972,0.1352,-0.5034,0.0011,-0.6613,0.0038,0.0426,0.0283,-3.1279,1.4941,2.6565
2024-10-11T14:05:11.316Z,0.0952,-1.0099,0.1272,-0.5034,0.0011,-0.6613,0.0011,0.0463,0.0348,-3.1279,1.4941,2.6565
2024-10-11T14:05:11.327Z,0.0713,-1.0260,0.1335,-0.5034,0.0011,-0.6613,-0.0096,0.0372,0.0384,-3.1279,1.4941,2.6565
2024-10-11T14:05:11.336Z,0.0352,-1.0215,0.1702,-0.0067,0.2396,-1.0079,-0.0204,0.0433,0.0381,-3.1392,1.4949,2.6687
2024-10-11T14:05:11.347Z,0.0237,-1.0265,0.1472,-0.0067,0.2396,-1.0079,-0.0260,0.0402,0.0416,-3.1392,1.4949,2.6687
2024-10-11T14:05:11.357Z,0.0675,-1.0222,0.1299,-0.0067,0.2396,-1.0079,-0.0339,0.0361,0.0436,-3.1392,1.4949,2.6687
2024-10-11T14:05:11.367Z,0.0522,-1.0147,0.1351,-0.1855,0.1714,-0.6711,-0.0398,0.0356,0.0444,3.1349,1.4962,2.6786
2024-10-11T14:05:11.377Z,0.0340,-1.0261,0.1502,-0.1855,0.1714,-0.6711,-0.0504,0.0364,0.0461,3.1349,1.4962,2.6786
2024-10-11T14:05:11.386Z,0.0683,-1.0291,0.1782,-0.1855,0.1714,-0.6711,-0.0586,0.0275,0.0453,3.1349,1.4962,2.6786
2024-10-11T14:05:11.397Z,0.0090,-1.0388,0.1243,0.2252,0.4065,-0.5799,-0.0623,0.0266,0.0408,3.1287,1.4982,2.6855
2024-10-11T14:05:11.407Z,-0.0007,-1.0554,0.1120,0.2252,0.4065,-0.5799,-0.0662,0.0194,0.0386,3.1287,1.4982,2.6855
2024-10-11T14:05:11.417Z,0.0317,-1.0424,0.1204,0.2252,0.4065,-0.5799,-0.0683,0.0234,0.0412,3.1287,1.4982,2.6855
2024-10-11T14:05:11.427Z,0.0611,-1.0328,0.0868,-0.2978,0.3461,-0.2315,-0.0688,0.0103,0.0399,3.1254,1.5005,2.6891
2024-10-11T14:05:11.436Z,0.0238,-1.0261,0.0742,-0.2978,0.3461,-0.2315,-0.0667,0.0153,0.0410,3.1254,1.5005,2.6891
2024-10-11T14:05:11.447Z,0.0236,-1.0271,0.0413,-0.2978,0.3461,-0.2315,-0.0623,0.0193,0.0391,3.1254,1.5005,2.6891
2024-10-11T14:05:11.457Z,0.0276,-1.0081,0.0309,0.0181,0.1025,0.2982,-0.0595,0.0246,0.0373,3.1220,1.5027,2.6931
2024-10-11T14:05:11.466Z,-0.0003,-1.0048,0.0191,0.0181,0.1025,0.2982,-0.0557,0.0291,0.0334,3.1220,1.5027,2.6931
2024-10-11T14:05:11.477Z,0.0006,-1.0194,0.0233,0.0181,0.1025,0.2982,-0.0469,0.0286,0.0302,3.1220,1.5027,2.6931
2024-10-11T14:05:11.487Z,0.0063,-1.0147,0.0269,0.2181,0.1655,0.3238,-0.0395,0.0371,0.0287,3.1182,1.5044,2.6974
2024-10-11T14:05:11.497Z,0.0578,-1.0177,-0.0176,0.2181,0.1655,0.3238,-0.0236,0.0308,0.0293,3.1182,1.5044,2.6974
2024-10-11T14:05:11.507Z,0.0317,-1.0173,-0.0444,0.2181,0.1655,0.3238,-0.0140,0.0363,0.0253,3.1182,1.5044,2.6974
2024-10-11T14:05:11.516Z,-0.0171,-1.0019,-0.0425,0.4388,0.0401,1.0003,0.0014,0.0336,0.0215,3.1100,1.5052,2.7064
2024-10-11T14:05:11.527Z,0.0059,-1.0052,-0.0477,0.4388,0.0401,1.0003,0.0146,0.0351,0.0165,3.1100,1.5052,2.7064
2024-10-11T14:05:11.536Z,0.0199,-1.0078,-0.0504,0.4388,0.0401,1.0003,0.0301,0.0398,0.0151,3.1100,1.5052,2.7064
2024-10-11T14:05:11.547Z,0.0456,-0.9948,-0.0719,-0.1810,-0.0297,1.2964,0.0433,0.0388,0.0132,3.0985,1.5046,2.7188
2024-10-11T14:05:11.557Z,-0.0096,-0.9834,-0.0587,-0.1810,-0.0297,1.2964,0.0524,0.0479,0.0045,3.0985,1.5046,2.7188
2024-10-11T14:05:11.566Z,-0.0252,-0.9830,-0.0220,-0.1810,-0.0297,1.2964,0.0620,0.0479,0.0017,3.0985,1.5046,2.7188
2024-10-11T14:05:11.577Z,0.0248,-0.9859,0.0236,0.0208,-0.1157,0.3780,0.0636,0.0537,0.0018,3.0864,1.5031,2.7319
2024-10-11T14:05:11.586Z,0.0488,-0.9904,0.0629,0.0208,-0.1157,0.3780,0.0664,0.0600,0.0018,3.0864,1.5031,2.7319
2024-10-11T14:05:11.597Z,0.0066,-1.0118,0.0654,0.0208,-0.1157,0.3780,0.0695,0.0593,-0.0017,3.0864,1.5031,2.7319
2024-10-11T14:05:11.607Z,0.0151,-1.0144,0.0646,0.1166,0.1650,-0.0037,0.0729,0.0552,-0.0101,3.0756,1.5011,2.7441
2024-10-11T14:05:11.616Z,-0.0104,-1.0103,0.0931,0.1166,0.1650,-0.0037,0.0685,0.0528,-0.0148,3.0756,1.5011,2.7441
2024-10-11T14:05:11.627Z,-0.0041,-1.0126,0.1159,0.1166,0.1650,-0.0037,0.0671,0.0560,-0.0214,3.0756,1.5011,2.7441
2024-10-11T14:05:11.636Z,-0.0041,-1.0126,0.1159,0.4303,0.0502,-0.5273,0.0621,0.0573,-0.0236,3.0713,1.4989,2.7497
2024-10-11T14:05:11.647Z,0.0175,-0.9948,0.1082,0.4303,0.0502,-0.5273,0.0647,0.0536,-0.0250,3.0713,1.4989,2.7497
2024-10-11T14:05:11.657Z,0.0224,-0.9970,0.1099,0.4303,0.0502,-0.5273,0.0596,0.0574,-0.0258,3.0713,1.4989,2.7497
2024-10-11T14:05:11.666Z,0.0239,-0.9940,0.1536,0.0407,-0.0319,-0.8388,0.0533,0.0480,-0.0294,3.0718,1.4970,2.7506
2024-10-11T14:05:11.677Z,-0.0115,-0.9879,0.1339,0.0407,-0.0319,-0.8388,0.0452,0.0424,-0.0362,3.0718,1.4970,2.7506
2024-10-11T14:05:11.687Z,-0.0236,-0.9774,0.1351,0.0407,-0.0319,-0.8388,0.0375,0.0415,-0.0402,3.0718,1.4970,2.7506
2024-10-11T14:05:11.697Z,0.0076,-0.9676,0.1293,0.2114,-0.2904,-0.5876,0.0360,0.0382,-0.0454,3.0797,1.4954,2.7438
2024-10-11T14:05:11.707Z,-0.0159,-0.9728,0.1208,0.2114,-0.2904,-0.5876,0.0258,0.0389,-0.0479,3.0797,1.4954,2.7438
2024-10-11T14:05:11.716Z,0.0249,-0.9701,0.1134,0.2114,-0.2904,-0.5876,0.0263,0.0384,-0.0479,3.0797,1.4954,2.7438
2024-10-11T14:05:11.727Z,0.0227,-0.9686,0.0854,0.0764,-0.2794,-0.1479,0.0268,0.0489,-0.0449,3.0919,1.4941,2.7324
2024-10-11T14:05:11.737Z,0.0329,-0.9639,0.0838,0.0764,-0.2794,-0.1479,0.0172,0.0530,-0.0422,3.0919,1.4941,2.7324
2024-10-11T14:05:11.747Z,0.0410,-0.9595,0.0947,0.0764,-0.2794,-0.1479,0.0152,0.0596,-0.0383,3.0919,1.4941,2.7324
2024-10-11T14:05:11.757Z,0.0441,-0.9682,0.1126,-0.1230,-0.2826,-0.4097,0.0028,0.0695,-0.0302,3.1031,1.4932,2.7227
2024-10-11T14:05:11.766Z,0.0829,-0.9700,0.1561,-0.1230,-0.2826,-0.4097,-0.0028,0.0678,-0.0263,3.1031,1.4932,2.7227
2024-10-11T14:05:11.776Z,0.0115,-0.9874,0.0952,-0.1230,-0.2826,-0.4097,-0.0064,0.0707,-0.0335,3.1031,1.4932,2.7227
2024-10-11T14:05:11.787Z,-0.0214,-0.9986,0.0910,0.5271,0.0159,-0.1990,-0.0113,0.0715,-0.0300,3.1142,1.4930,2.7133
2024-10-11T14:05:11.797Z,0.0460,-0.9941,0.1324,0.5271,0.0159,-0.1990,-0.0196,0.0740,-0.0244,3.1142,1.4930,2.7133
2024-10-11T14:05:11.807Z,0.0439,-0.9929,0.1413,0.5271,0.0159,-0.1990,-0.0340,0.0783,-0.0260,3.1142,1.4930,2.7133
2024-10-11T14:05:11.816Z,0.0197,-0.9849,0.1397,0.1288,-0.1190,-0.6842,-0.0383,0.0883,-0.0228,3.1273,1.4934,2.7023
2024-10-11T14:05:11.827Z,0.0346,-0.9935,0.0969,0.1288,-0.1190,-0.6842,-0.0437,0.1004,-0.0215,3.1273,1.4934,2.7023
2024-10-11T14:05:11.837Z,0.0505,-0.9957,0.0658,0.1288,-0.1190,-0.6842,-0.0395,0.0963,-0.0193,3.1273,1.4934,2.7023
2024-10-11T14:05:11.847Z,0.0346,-0.9866,0.0472,-0.0134,-0.1022,0.2129,-0.0420,0.0997,-0.0202,3.1407,1.4942,2.6915
2024-10-11T14:05:11.857Z,0.0009,-0.9793,0.0662,-0.0134,-0.1022,0.2129,-0.0468,0.1033,-0.0238,3.1407,1.4942,2.6915
2024-10-11T14:05:11.866Z,0.0219,-0.9621,0.0800,-0.0134,-0.1022,0.2129,-0.0452,0.1041,-0.0227,3.1407,1.4942,2.6915
2024-10-11T14:05:11.877Z,0.0263,-0.9746,0.0614,0.0728,-0.2213,0.0618,-0.0438,0.1066,-0.0219,-3.1278,1.4952,2.6797
2024-10-11T14:05:11.887Z,0.0432,-0.9892,0.0635,0.0728,-0.2213,0.0618,-0.0448,0.1027,-0.0231,-3.1278,1.4952,2.6797
2024-10-11T14:05:11.897Z,0.0299,-0.9907,0.0524,0.0728,-0.2213,0.0618,-0.0393,0.1006,-0.0228,-3.1278,1.4952,2.6797
2024-10-11T14:05:11.907Z,0.0223,-0.9971,0.0535,0.1160,-0.0014,0.1279,-0.0410,0.0893,-0.0223,-3.1129,1.4960,2.6675
2024-10-11T14:05:11.916Z,0.0500,-0.9975,0.0740,0.1160,-0.0014,0.1279,-0.0386,0.0925,-0.0182,-3.1129,1.4960,2.6675
2024-10-11T14:05:11.926Z,0.0371,-0.9966,0.0386,0.1160,-0.0014,0.1279,-0.0369,0.0928,-0.0185,-3.1129,1.4960,2.6675
2024-10-11T14:05:11.937Z,0.0536,-0.9895,0.0373,-0.1879,-0.0757,0.2767,-0.0334,0.0905,-0.0126,-3.1001,1.4967,2.6571
2024-10-11T14:05:11.947Z,0.0713,-0.9761,0.0403,-0.1879,-0.0757,0.2767,-0.0344,0.0904,-0.0074,-3.1001,1.4967,2.6571
2024-10-11T14:05:11.957Z,0.0567,-0.9863,0.0125,-0.1879,-0.0757,0.2767,-0.0281,0.0862,-0.0110,-3.1001,1.4967,2.6571
2024-10-11T14:05:11.966Z,0.0219,-0.9874,0.0210,0.1256,-0.0974,0.4300,-0.0249,0.0860,-0.0137,-3.0911,1.4973,2.6504
2024-10-11T14:05:11.977Z,0.0242,-0.9886,0.0223,0.1256,-0.0974,0.4300,-0.0249,0.0897,-0.0142,-3.0911,1.4973,2.6504
2024-10-11T14:05:11.988Z,0.0566,-0.9692,0.0444,0.1256,-0.0974,0.4300,-0.0244,0.0807,-0.0134,-3.0911,1.4973,2.6504
2024-10-11T14:05:11.997Z,0.0473,-0.9715,0.0555,-0.1218,-0.2532,0.0853,-0.0206,0.0848,-0.0120,-3.0827,1.4977,2.6441
2024-10-11T14:05:12.007Z,0.0276,-0.9980,0.0451,-0.1218,-0.2532,0.0853,-0.0159,0.0730,-0.0174,-3.0827,1.4977,2.6441
2024-10-11T14:05:12.017Z,0.0110,-1.0019,0.0503,-0.1218,-0.2532,0.0853,-0.0143,0.0719,-0.0258,-3.0827,1.4977,2.6441
2024-10-11T14:05:12.027Z,0.0139,-0.9980,0.0785,0.2111,0.0068,-0.1441,-0.0187,0.0788,-0.0253,-3.0719,1.4978,2.6354
2024-10-11T14:05:12.037Z,0.0415,-1.0017,0.1112,0.2111,0.0068,-0.1441,-0.0156,0.0692,-0.0258,-3.0719,1.4978,2.6354
2024-10-11T14:05:12.046Z,0.0237,-1.0069,0.0839,0.2111,0.0068,-0.1441,-0.0127,0.0815,-0.0224,-3.0719,1.4978,2.6354
2024-10-11T14:05:12.056Z,0.0468,-1.0155,0.0522,-0.1064,0.1778,0.1114,-0.0040,0.0674,-0.0289,-3.0615,1.4978,2.6270
2024-10-11T14:05:12.066Z,0.0654,-0.9983,0.0078,-0.1064,0.1778,0.1114,0.0040,0.0668,-0.0313,-3.0615,1.4978,2.6270
2024-10-11T14:05:12.077Z,0.0505,-0.9819,-0.0075,-0.1064,0.1778,0.1114,0.0115,0.0669,-0.0296,-3.0615,1.4978,2.6270
2024-10-11T14:05:12.087Z,0.0594,-0.9736,0.0027,-0.2233,-0.2321,0.6006,0.0172,0.0618,-0.0266,-3.0539,1.4970,2.6211
2024-10-11T14:05:12.097Z,0.0314,-0.9736,0.0226,-0.2233,-0.2321,0.6006,0.0189,0.0626,-0.0294,-3.0539,1.4970,2.6211
2024-10-11T14:05:12.106Z,0.0499,-0.9758,0.0454,-0.2233,-0.2321,0.6006,0.0218,0.0601,-0.0226,-3.0539,1.4970,2.6211
2024-10-11T14:05:12.116Z,0.0933,-0.9834,0.0613,-0.5500,-0.1358,0.0330,0.0225,0.0616,-0.0186,-3.0507,1.4961,2.6193
2024-10-11T14:05:12.127Z,0.0587,-1.0131,0.0542,-0.5500,-0.1358,0.0330,0.0250,0.0602,-0.0163,-3.0507,1.4961,2.6193
2024-10-11T14:05:12.137Z,0.0484,-1.0308,0.0640,-0.5500,-0.1358,0.0330,0.0290,0.0567,-0.0134,-3.0507,1.4961,2.6193
2024-10-11T14:05:12.147Z,0.0755,-1.0237,0.0937,-0.3727,0.2602,-0.2764,0.0255,0.0593,-0.0118,-3.0516,1.4952,2.6217
2024-10-11T14:05:12.156Z,0.0661,-1.0201,0.0901,-0.3727,0.2602,-0.2764,0.0244,0.0603,-0.0073,-3.0516,1.4952,2.6217
2024-10-11T14:05:12.166Z,0.0484,-1.0257,0.0703,-0.3727,0.2602,-0.2764,0.0243,0.0515,-0.0084,-3.0516,1.4952,2.6217
2024-10-11T14:05:12.177Z,0.0559,-1.0247,0.0842,-0.1793,0.2712,-0.1747,0.0277,0.0490,-0.0069,-3.0544,1.4944,2.6257
2024-10-11T14:05:12.188Z,0.0566,-1.0187,0.0639,-0.1793,0.2712,-0.1747,0.0244,0.0452,-0.0047,-3.0544,1.4944,2.6257
2024-10-11T14:05:12.197Z,0.0814,-1.0094,0.0637,-0.1793,0.2712,-0.1747,0.0280,0.0455,0.0000,-3.0544,1.4944,2.6257
2024-10-11T14:05:12.206Z,0.0739,-1.0003,0.0729,-0.3564,0.0318,-0.0558,0.0250,0.0316,0.0029,-3.0596,1.4937,2.6318
2024-10-11T14:05:12.216Z,0.0635,-1.0124,0.1009,-0.3564,0.0318,-0.0558,0.0220,0.0318,0.0086,-3.0596,1.4937,2.6318
2024-10-11T14:05:12.227Z,0.0799,-1.0227,0.1154,-0.3564,0.0318,-0.0558,0.0173,0.0242,0.0143,-3.0596,1.4937,2.6318
2024-10-11T14:05:12.237Z,0.0548,-1.0368,0.1229,-0.1723,0.3902,-0.5403,0.0150,0.0186,0.0143,-3.0671,1.4933,2.6398
2024-10-11T14:05:12.247Z,0.0444,-1.0432,0.1116,-0.1723,0.3902,-0.5403,0.0124,0.0136,0.0152,-3.0671,1.4933,2.6398
2024-10-11T14:05:12.257Z,0.0577,-1.0502,0.0951,-0.1723,0.3902,-0.5403,0.0130,0.0068,0.0211,-3.0671,1.4933,2.6398
2024-10-11T14:05:12.266Z,0.0915,-1.0489,0.0887,-0.5387,0.5094,-0.2002,0.0129,0.0048,0.0280,-3.0766,1.4932,2.6493
2024-10-11T14:05:12.276Z,0.0741,-1.0322,0.0766,-0.5387,0.5094,-0.2002,0.0095,0.0020,0.0315,-3.0766,1.4932,2.6493
2024-10-11T14:05:12.287Z,0.0586,-1.0336,0.0858,-0.5387,0.5094,-0.2002,0.0079,0.0086,0.0360,-3.0766,1.4932,2.6493
2024-10-11T14:05:12.296Z,0.0711,-1.0333,0.0932,-0.3485,0.3558,-0.2413,0.0051,0.0052,0.0404,-3.0906,1.4934,2.6630
2024-10-11T14:05:12.306Z,0.0545,-1.0416,0.0691,-0.3485,0.3558,-0.2413,0.0069,0.0026,0.0420,-3.0906,1.4934,2.6630
2024-10-11T14:05:12.316Z,0.0305,-1.0378,0.0574,-0.3485,0.3558,-0.2413,0.0098,-0.0072,0.0430,-3.0906,1.4934,2.6630
2024-10-11T14:05:12.327Z,0.0365,-1.0180,0.0737,-0.0213,0.2053,-0.0464,0.0150,-0.0130,0.0425,-3.1074,1.4937,2.6794
2024-10-11T14:05:12.337Z,0.0208,-1.0109,0.0334,-0.0213,0.2053,-0.0464,0.0126,-0.0208,0.0409,-3.1074,1.4937,2.6794
2024-10-11T14:05:12.347Z,0.0193,-1.0106,0.0614,-0.0213,0.2053,-0.0464,0.0087,-0.0174,0.0411,-3.1074,1.4937,2.6794
2024-10-11T14:05:12.356Z,0.0581,-0.9989,0.0849,-0.2449,0.0184,-0.1526,0.0137,-0.0241,0.0508,-3.1249,1.4938,2.6958
2024-10-11T14:05:12.366Z,0.0809,-1.0029,0.0569,-0.2449,0.0184,-0.1526,0.0168,-0.0310,0.0549,-3.1249,1.4938,2.6958
2024-10-11T14:05:12.377Z,0.0460,-1.0005,0.0582,-0.2449,0.0184,-0.1526,0.0145,-0.0386,0.0560,-3.1249,1.4938,2.6958
2024-10-11T14:05:12.387Z,0.0350,-1.0102,0.0934,-0.0336,0.1287,-0.2310,0.0141,-0.0476,0.0508,3.1367,1.4941,2.7162
2024-10-11T14:05:12.397Z,-0.0193,-1.0083,0.0706,-0.0336,0.1287,-0.2310,0.0169,-0.0526,0.0466,3.1367,1.4941,2.7162
2024-10-11T14:05:12.407Z,0.0116,-1.0082,0.0526,-0.0336,0.1287,-0.2310,0.0191,-0.0628,0.0507,3.1367,1.4941,2.7162
2024-10-11T14:05:12.417Z,0.0675,-1.0013,0.0654,-0.3648,0.0415,0.0483,0.0242,-0.0741,0.0498,3.1160,1.4942,2.7350
2024-10-11T14:05:12.427Z,0.0185,-1.0084,0.0443,-0.3648,0.0415,0.0483,0.0259,-0.0695,0.0452,3.1160,1.4942,2.7350
2024-10-11T14:05:12.437Z,-0.0162,-1.0065,0.0329,-0.3648,0.0415,0.0483,0.0291,-0.0862,0.0432,3.1160,1.4942,2.7350
2024-10-11T14:05:12.447Z,-0.0022,-0.9782,0.0285,0.3074,-0.1847,0.4176,0.0365,-0.0963,0.0360,3.0959,1.4939,2.7523
2024-10-11T14:05:12.457Z,-0.0054,-0.9704,0.0255,0.3074,-0.1847,0.4176,0.0296,-0.0951,0.0369,3.0959,1.4939,2.7523
2024-10-11T14:05:12.466Z,0.0112,-0.9671,0.0860,0.3074,-0.1847,0.4176,0.0213,-0.1016,0.0368,3.0959,1.4939,2.7523
2024-10-11T14:05:12.477Z,0.0035,-0.9771,0.1296,0.2440,-0.1957,-0.5672,0.0157,-0.1041,0.0315,3.0801,1.4935,2.7650
2024-10-11T14:05:12.487Z,-0.0112,-0.9910,0.0991,0.2440,-0.1957,-0.5672,0.0180,-0.1072,0.0295,3.0801,1.4935,2.7650
2024-10-11T14:05:12.497Z,-0.0013,-0.9965,0.0867,0.2440,-0.1957,-0.5672,0.0150,-0.1046,0.0235,3.0801,1.4935,2.7650
2024-10-11T14:05:12.507Z,-0.0203,-0.9968,0.1059,0.4720,-0.0019,-0.3312,0.0092,-0.1124,0.0199,3.0684,1.4934,2.7733
2024-10-11T14:05:12.516Z,-0.0090,-0.9950,0.0926,0.4720,-0.0019,-0.3312,0.0081,-0.1133,0.0162,3.0684,1.4934,2.7733
2024-10-11T14:05:12.527Z,-0.0244,-0.9886,0.0935,0.4720,-0.0019,-0.3312,0.0067,-0.1106,0.0128,3.0684,1.4934,2.7733
2024-10-11T14:05:12.537Z,0.0035,-0.9926,0.1016,0.2370,-0.0435,-0.2879,0.0057,-0.1202,0.0107,3.0625,1.4934,2.7757
2024-10-11T14:05:12.547Z,-0.0076,-0.9893,0.0629,0.2370,-0.0435,-0.2879,0.0093,-0.1145,0.0050,3.0625,1.4934,2.7757
2024-10-11T14:05:12.557Z,0.0006,-0.9803,0.0589,0.2370,-0.0435,-0.2879,0.0083,-0.1081,0.0076,3.0625,1.4934,2.7757
2024-10-11T14:05:12.566Z,0.0357,-0.9574,0.0723,-0.0782,-0.3884,0.0015,0.0097,-0.1125,0.0010,3.0593,1.4932,2.7755
2024-10-11T14:05:12.577Z,-0.0198,-0.9552,0.0844,-0.0782,-0.3884,0.0015,0.0092,-0.1133,-0.0023,3.0593,1.4932,2.7755
2024-10-11T14:05:12.587Z,-0.0075,-0.9490,0.0730,-0.0782,-0.3884,0.0015,0.0137,-0.1223,-0.0059,3.0593,1.4932,2.7755
2024-10-11T14:05:12.597Z,0.0159,-0.9464,0.0417,0.1197,-0.4957,0.3042,0.0187,-0.1258,-0.0079,3.0587,1.4928,2.7724
2024-10-11T14:05:12.607Z,0.0132,-0.9519,0.0464,0.1197,-0.4957,0.3042,0.0231,-0.1276,-0.0102,3.0587,1.4928,2.7724
2024-10-11T14:05:12.616Z,0.0009,-0.9462,0.0535,0.1197,-0.4957,0.3042,0.0267,-0.1390,-0.0154,3.0587,1.4928,2.7724
2024-10-11T14:05:12.627Z,-0.0247,-0.9459,0.0568,0.5254,-0.5001,0.1622,0.0269,-0.1433,-0.0244,3.0603,1.4919,2.7665
2024-10-11T14:05:12.639Z,-0.0111,-0.9562,0.0701,0.5254,-0.5001,0.1622,0.0210,-0.1441,-0.0268,3.0603,1.4919,2.7665
2024-10-11T14:05:12.647Z,0.0394,-0.9712,0.1212,0.5254,-0.5001,0.1622,0.0147,-0.1450,-0.0245,3.0603,1.4919,2.7665
2024-10-11T14:05:12.657Z,0.0224,-0.9881,0.1141,0.0739,-0.0857,-0.3949,0.0134,-0.1510,-0.0283,3.0661,1.4911,2.7559
2024-10-11T14:05:12.666Z,-0.0086,-1.0021,0.0898,0.0739,-0.0857,-0.3949,0.0141,-0.1550,-0.0325,3.0661,1.4911,2.7559
2024-10-11T14:05:12.677Z,0.0034,-0.9908,0.1207,0.0739,-0.0857,-0.3949,0.0073,-0.1629,-0.0343,3.0661,1.4911,2.7559
2024-10-11T14:05:12.687Z,0.0077,-0.9902,0.1344,0.2319,-0.0642,-0.5932,0.0036,-0.1642,-0.0414,3.0765,1.4904,2.7406
2024-10-11T14:05:12.697Z,-0.0186,-0.9895,0.1106,0.2319,-0.0642,-0.5932,0.0017,-0.1666,-0.0441,3.0765,1.4904,2.7406
2024-10-11T14:05:12.707Z,0.0191,-0.9773,0.1026,0.2319,-0.0642,-0.5932,0.0008,-0.1566,-0.0404,3.0765,1.4904,2.7406
2024-10-11T14:05:12.716Z,0.0503,-0.9645,0.0794,-0.1697,-0.3159,-0.0547,-0.0004,-0.1467,-0.0367,3.0903,1.4898,2.7218
2024-10-11T14:05:12.727Z,0.0325,-0.9657,0.0740,-0.1697,-0.3159,-0.0547,0.0025,-0.1510,-0.0371,3.0903,1.4898,2.7218
2024-10-11T14:05:12.737Z,0.0107,-0.9574,0.0741,-0.1697,-0.3159,-0.0547,0.0012,-0.1409,-0.0378,3.0903,1.4898,2.7218
2024-10-11T14:05:12.747Z,0.0399,-0.9455,0.0848,-0.0549,-0.5018,-0.1095,-0.0018,-0.1400,-0.0284,3.1023,1.4894,2.7055
2024-10-11T14:05:12.757Z,0.0556,-0.9519,0.1179,-0.0549,-0.5018,-0.1095,-0.0100,-0.1297,-0.0267,3.1023,1.4894,2.7055
2024-10-11T14:05:12.766Z,0.0071,-0.9706,0.1172,-0.0549,-0.5018,-0.1095,-0.0099,-0.1357,-0.0274,3.1023,1.4894,2.7055
2024-10-11T14:05:12.777Z,0.0081,-0.9720,0.1015,0.2688,-0.2421,-0.2772,-0.0091,-0.1400,-0.0252,3.1126,1.4893,2.6910
2024-10-11T14:05:12.787Z,0.0536,-0.9693,0.1088,0.2688,-0.2421,-0.2772,-0.0166,-0.1356,-0.0221,3.1126,1.4893,2.6910
2024-10-11T14:05:12.797Z,0.0468,-0.9680,0.1283,0.2688,-0.2421,-0.2772,-0.0183,-0.1459,-0.0210,3.1126,1.4893,2.6910
2024-10-11T14:05:12.806Z,0.0049,-0.9720,0.1343,0.3085,-0.2420,-0.6053,-0.0249,-0.1465,-0.0167,3.1222,1.4895,2.6771
2024-10-11T14:05:12.816Z,0.0373,-0.9715,0.1180,0.3085,-0.2420,-0.6053,-0.0309,-0.1459,-0.0101,3.1222,1.4895,2.6771
2024-10-11T14:05:12.827Z,0.0618,-0.9653,0.1201,0.3085,-0.2420,-0.6053,-0.0410,-0.1393,-0.0068,3.1222,1.4895,2.6771
2024-10-11T14:05:12.838Z,0.0376,-0.9680,0.0986,-0.0073,-0.2819,-0.2670,-0.0425,-0.1395,-0.0002,3.1304,1.4904,2.6645
2024-10-11T14:05:12.847Z,0.0407,-0.9683,0.0953,-0.0073,-0.2819,-0.2670,-0.0487,-0.1438,0.0026,3.1304,1.4904,2.6645
2024-10-11T14:05:12.857Z,0.0241,-0.9689,0.0911,-0.0073,-0.2819,-0.2670,-0.0588,-0.1342,0.0043,3.1304,1.4904,2.6645
2024-10-11T14:05:12.866Z,0.0147,-0.9631,0.1019,0.2186,-0.3313,-0.3170,-0.0693,-0.1268,0.0084,3.1380,1.4920,2.6527
2024-10-11T14:05:12.877Z,0.0125,-0.9561,0.1009,0.2186,-0.3313,-0.3170,-0.0730,-0.1254,0.0149,3.1380,1.4920,2.6527
2024-10-11T14:05:12.887Z,0.0338,-0.9610,0.0665,0.2186,-0.3313,-0.3170,-0.0790,-0.1084,0.0157,3.1380,1.4920,2.6527
2024-10-11T14:05:12.897Z,0.0085,-0.9516,0.0356,0.2767,-0.4457,0.3095,-0.0805,-0.0917,0.0207,-3.1367,1.4942,2.6406
2024-10-11T14:05:12.907Z,0.0303,-0.9365,0.0486,0.2767,-0.4457,0.3095,-0.0871,-0.0775,0.0247,-3.1367,1.4942,2.6406
2024-10-11T14:05:12.916Z,0.0362,-0.9341,0.0425,0.2767,-0.4457,0.3095,-0.0885,-0.0646,0.0287,-3.1367,1.4942,2.6406
2024-10-11T14:05:12.927Z,0.0024,-0.9370,0.0309,0.3298,-0.5916,0.3298,-0.0903,-0.0564,0.0290,-3.1304,1.4969,2.6320
2024-10-11T14:05:12.937Z,-0.0253,-0.9262,0.0264,0.3298,-0.5916,0.3298,-0.0849,-0.0484,0.0251,-3.1304,1.4969,2.6320
2024-10-11T14:05:12.947Z,-0.0108,-0.9287,-0.0010,0.3298,-0.5916,0.3298,-0.0802,-0.0502,0.0229,-3.1304,1.4969,2.6320
2024-10-11T14:05:12.957Z,-0.0184,-0.9282,-0.0249,0.5273,-0.6792,0.8537,-0.0709,-0.0444,0.0222,-3.1244,1.4993,2.6239
2024-10-11T14:05:12.966Z,-0.0037,-0.9264,-0.0297,0.5273,-0.6792,0.8537,-0.0635,-0.0440,0.0233,-3.1244,1.4993,2.6239
2024-10-11T14:05:12.977Z,0.0206,-0.9143,0.0023,0.5273,-0.6792,0.8537,-0.0588,-0.0399,0.0240,-3.1244,1.4993,2.6239
2024-10-11T14:05:12.988Z,0.0347,-0.9149,0.0219,-0.0005,-0.8115,0.3761,-0.0595,-0.0389,0.0256,-3.1212,1.5012,2.6191
2024-10-11T14:05:12.997Z,0.0177,-0.9146,0.0258,-0.0005,-0.8115,0.3761,-0.0527,-0.0465,0.0241,-3.1212,1.5012,2.6191
2024-10-11T14:05:13.007Z,-0.0240,-0.9251,0.0046,-0.0005,-0.8115,0.3761,-0.0458,-0.0495,0.0171,-3.1212,1.5012,2.6191
2024-10-11T14:05:13.016Z,-0.0268,-0.9366,0.0107,0.5983,-0.5995,0.4725,-0.0385,-0.0491,0.0141,-3.1191,1.5027,2.6154
2024-10-11T14:05:13.027Z,0.0154,-0.9332,0.0419,0.5983,-0.5995,0.4725,-0.0323,-0.0491,0.0170,-3.1191,1.5027,2.6154
2024-10-11T14:05:13.038Z,0.0529,-0.9340,0.0576,0.5983,-0.5995,0.4725,-0.0260,-0.0528,0.0180,-3.1191,1.5027,2.6154
2024-10-11T14:05:13.047Z,0.0175,-0.9451,0.0271,0.1598,-0.5162,0.3033,-0.0159,-0.0497,0.0143,-3.1198,1.5037,2.6142
2024-10-11T14:05:13.057Z,-0.0189,-0.9406,0.0217,0.1598,-0.5162,0.3033,-0.0058,-0.0598,0.0089,-3.1198,1.5037,2.6142
2024-10-11T14:05:13.067Z,-0.0016,-0.9352,0.0150,0.1598,-0.5162,0.3033,0.0056,-0.0683,0.0058,-3.1198,1.5037,2.6142
2024-10-11T14:05:13.077Z,0.0171,-0.9414,0.0170,0.1621,-0.5531,0.4013,0.0097,-0.0647,0.0056,-3.1237,1.5038,2.6159
2024-10-11T14:05:13.089Z,0.0258,-0.9365,0.0493,0.1621,-0.5531,0.4013,0.0153,-0.0714,0.0088,-3.1237,1.5038,2.6159
2024-10-11T14:05:13.097Z,0.0523,-0.9442,0.0594,0.1621,-0.5531,0.4013,0.0148,-0.0789,0.0118,-3.1237,1.5038,2.6159
2024-10-11T14:05:13.107Z,0.0392,-0.9558,0.0836,-0.0567,-0.4112,-0.2486,0.0131,-0.0817,0.0136,-3.1312,1.5036,2.6209
2024-10-11T14:05:13.116Z,0.0287,-0.9702,0.0886,-0.0567,-0.4112,-0.2486,0.0135,-0.0801,0.0146,-3.1312,1.5036,2.6209
2024-10-11T14:05:13.127Z,0.0404,-0.9801,0.0879,-0.0567,-0.4112,-0.2486,0.0120,-0.0755,0.0199,-3.1312,1.5036,2.6209
2024-10-11T14:05:13.138Z,0.0532,-0.9984,0.0792,-0.1979,0.0065,-0.2016,0.0133,-0.0760,0.0235,3.1414,1.5035,2.6288
2024-10-11T14:05:13.147Z,0.0560,-1.0161,0.0626,-0.1979,0.0065,-0.2016,0.0186,-0.0831,0.0283,3.1414,1.5035,2.6288
2024-10-11T14:05:13.157Z,0.0484,-1.0197,0.0738,-0.1979,0.0065,-0.2016,0.0227,-0.0883,0.0280,3.1414,1.5035,2.6288
2024-10-11T14:05:13.166Z,0.0221,-1.0373,0.0603,0.0998,0.3879,-0.0115,0.0244,-0.0917,0.0298,3.1257,1.5034,2.6417
2024-10-11T14:05:13.177Z,0.0374,-1.0422,0.0591,0.0998,0.3879,-0.0115,0.0249,-0.0956,0.0357,3.1257,1.5034,2.6417
2024-10-11T14:05:13.187Z,0.0660,-1.0341,0.0573,0.0998,0.3879,-0.0115,0.0220,-0.0957,0.0372,3.1257,1.5034,2.6417
2024-10-11T14:05:13.197Z,0.0603,-1.0317,0.0638,-0.2851,0.3337,-0.0395,0.0243,-0.0844,0.0431,3.1047,1.5033,2.6596
2024-10-11T14:05:13.207Z,0.0629,-1.0375,0.0860,-0.2851,0.3337,-0.0395,0.0280,-0.0874,0.0534,3.1047,1.5033,2.6596
2024-10-11T14:05:13.216Z,0.0731,-1.0515,0.0665,-0.2851,0.3337,-0.0395,0.0313,-0.0874,0.0544,3.1047,1.5033,2.6596
2024-10-11T14:05:13.227Z,0.0279,-1.0757,0.0548,0.0182,0.7654,0.0567,0.0367,-0.0789,0.0509,3.0769,1.5032,2.6846
2024-10-11T14:05:13.236Z,-0.0104,-1.0836,0.0433,0.0182,0.7654,0.0567,0.0437,-0.0774,0.0529,3.0769,1.5032,2.6846
2024-10-11T14:05:13.246Z,0.0263,-1.0899,0.0267,0.0182,0.7654,0.0567,0.0449,-0.0605,0.0540,3.0769,1.5032,2.6846
2024-10-11T14:05:13.257Z,0.0518,-1.0959,0.0658,-0.2307,0.9635,-0.0385,0.0497,-0.0524,0.0613,3.0459,1.5027,2.7131
2024-10-11T14:05:13.266Z,0.0570,-1.1112,0.0880,-0.2307,0.9635,-0.0385,0.0535,-0.0452,0.0579,3.0459,1.5027,2.7131
2024-10-11T14:05:13.277Z,0.0218,-1.1151,0.0768,-0.2307,0.9635,-0.0385,0.0572,-0.0303,0.0567,3.0459,1.5027,2.7131
2024-10-11T14:05:13.287Z,0.0144,-1.1247,0.0834,0.1193,1.2467,-0.1941,0.0587,-0.0275,0.0561,3.0120,1.5018,2.7454
2024-10-11T14:05:13.297Z,0.0116,-1.1340,0.0937,0.1193,1.2467,-0.1941,0.0625,-0.0165,0.0503,3.0120,1.5018,2.7454
2024-10-11T14:05:13.306Z,0.0125,-1.1360,0.1273,0.1193,1.2467,-0.1941,0.0613,-0.0063,0.0471,3.0120,1.5018,2.7454
2024-10-11T14:05:13.316Z,0.0364,-1.1335,0.1234,-0.1102,1.3342,-0.5683,0.0608,-0.0019,0.0445,2.9817,1.5006,2.7749
2024-10-11T14:05:13.327Z,0.0244,-1.1293,0.1083,-0.1102,1.3342,-0.5683,0.0690,-0.0074,0.0381,2.9817,1.5006,2.7749
2024-10-11T14:05:13.337Z,0.0017,-1.1273,0.0873,-0.1102,1.3342,-0.5683,0.0744,0.0000,0.0309,2.9817,1.5006,2.7749
2024-10-11T14:05:13.347Z,0.0470,-1.1246,0.0961,-0.2246,1.2481,-0.2797,0.0707,0.0035,0.0329,2.9573,1.4990,2.7990
2024-10-11T14:05:13.356Z,0.0714,-1.1101,0.1012,-0.2246,1.2481,-0.2797,0.0722,0.0067,0.0298,2.9573,1.4990,2.7990
2024-10-11T14:05:13.366Z,0.0225,-1.1149,0.0813,-0.2246,1.2481,-0.2797,0.0728,0.0094,0.0241,2.9573,1.4990,2.7990
2024-10-11T14:05:13.377Z,0.0334,-1.1249,0.0953,-0.0983,1.2519,-0.2499,0.0699,0.0043,0.0161,2.9374,1.4971,2.8187
2024-10-11T14:05:13.387Z,0.0272,-1.1296,0.0996,-0.0983,1.2519,-0.2499,0.0755,-0.0027,0.0135,2.9374,1.4971,2.8187
2024-10-11T14:05:13.397Z,0.0221,-1.1319,0.0815,-0.0983,1.2519,-0.2499,0.0725,-0.0100,0.0073,2.9374,1.4971,2.8187
2024-10-11T14:05:13.406Z,0.0105,-1.1262,0.0993,0.1228,1.2657,-0.2687,0.0665,-0.0041,0.0017,2.9244,1.4952,2.8314
2024-10-11T14:05:13.416Z,0.0069,-1.1331,0.1001,0.1228,1.2657,-0.2687,0.0644,-0.0005,-0.0026,2.9244,1.4952,2.8314
2024-10-11T14:05:13.427Z,0.0189,-1.1309,0.1093,0.1228,1.2657,-0.2687,0.0579,0.0045,-0.0052,2.9244,1.4952,2.8314
2024-10-11T14:05:13.437Z,0.0151,-1.1278,0.1057,0.0789,1.2827,-0.3136,0.0524,0.0022,-0.0114,2.9181,1.4934,2.8374
2024-10-11T14:05:13.447Z,0.0114,-1.1272,0.1258,0.0789,1.2827,-0.3136,0.0463,-0.0030,-0.0164,2.9181,1.4934,2.8374
2024-10-11T14:05:13.456Z,-0.0130,-1.1375,0.1133,0.0789,1.2827,-0.3136,0.0445,-0.0032,-0.0204,2.9181,1.4934,2.8374
2024-10-11T14:05:13.466Z,0.0185,-1.1421,0.1013,0.0513,1.4248,-0.2571,0.0335,-0.0041,-0.0212,2.9195,1.4920,2.8356
2024-10-11T14:05:13.477Z,0.0428,-1.1149,0.1352,0.0513,1.4248,-0.2571,0.0221,-0.0079,-0.0220,2.9195,1.4920,2.8356
2024-10-11T14:05:13.487Z,0.0131,-1.0989,0.1546,0.0513,1.4248,-0.2571,0.0123,-0.0035,-0.0313,2.9195,1.4920,2.8356
2024-10-11T14:05:13.497Z,-0.0260,-1.0959,0.1141,0.4962,0.9717,-0.3780,0.0129,-0.0041,-0.0343,2.9276,1.4912,2.8271
2024-10-11T14:05:13.507Z,0.0131,-1.0854,0.0777,0.4962,0.9717,-0.3780,0.0107,-0.0112,-0.0338,2.9276,1.4912,2.8271
2024-10-11T14:05:13.517Z,0.0256,-1.0725,0.0823,0.4962,0.9717,-0.3780,0.0038,-0.0019,-0.0372,2.9276,1.4912,2.8271
2024-10-11T14:05:13.527Z,0.0139,-1.0730,0.1152,0.1151,0.7472,-0.3876,-0.0048,0.0075,-0.0354,2.9391,1.4908,2.8153
2024-10-11T14:05:13.537Z,0.0126,-1.0756,0.0913,0.1151,0.7472,-0.3876,-0.0047,0.0087,-0.0356,2.9391,1.4908,2.8153
2024-10-11T14:05:13.547Z,0.0208,-1.0855,0.0683,0.1151,0.7472,-0.3876,-0.0122,0.0151,-0.0381,2.9391,1.4908,2.8153
2024-10-11T14:05:13.556Z,0.0032,-1.0751,0.1023,0.2305,0.7686,-0.2632,-0.0201,0.0237,-0.0402,2.9528,1.4906,2.8016
2024-10-11T14:05:13.566Z,0.0165,-1.0731,0.1103,0.2305,0.7686,-0.2632,-0.0216,0.0213,-0.0415,2.9528,1.4906,2.8016
2024-10-11T14:05:13.577Z,-0.0058,-1.0771,0.0859,0.2305,0.7686,-0.2632,-0.0216,0.0230,-0.0472,2.9528,1.4906,2.8016
2024-10-11T14:05:13.587Z,-0.0245,-1.0847,0.0749,0.5139,0.8622,-0.0004,-0.0268,0.0321,-0.0479,2.9699,1.4908,2.7849
2024-10-11T14:05:13.597Z,0.0306,-1.0575,0.0839,0.5139,0.8622,-0.0004,-0.0325,0.0386,-0.0441,2.9699,1.4908,2.7849
2024-10-11T14:05:13.606Z,0.0610,-1.0297,0.0922,0.5139,0.8622,-0.0004,-0.0306,0.0497,-0.0432,2.9699,1.4908,2.7849
2024-10-11T14:05:13.616Z,-0.0118,-1.0242,0.0412,0.4019,0.2687,0.3230,-0.0269,0.0508,-0.0513,2.9889,1.4911,2.7668
2024-10-11T14:05:13.627Z,-0.0548,-1.0312,0.0173,0.4019,0.2687,0.3230,-0.0187,0.0535,-0.0588,2.9889,1.4911,2.7668
2024-10-11T14:05:13.637Z,-0.0202,-1.0324,0.0436,0.4019,0.2687,0.3230,-0.0211,0.0653,-0.0546,2.9889,1.4911,2.7668
2024-10-11T14:05:13.647Z,0.0486,-1.0331,0.0641,-0.1766,0.3562,0.0935,-0.0196,0.0623,-0.0511,3.0095,1.4910,2.7474
2024-10-11T14:05:13.656Z,0.0564,-1.0401,0.0672,-0.1766,0.3562,0.0935,-0.0196,0.0623,-0.0511,3.0095,1.4910,2.7474
2024-10-11T14:05:13.666Z,0.0137,-1.0590,0.0849,-0.1766,0.3562,0.0935,-0.0250,0.0657,-0.0547,3.0095,1.4910,2.7474
2024-10-11T14:05:13.677Z,-0.0081,-1.0722,0.1241,0.3936,0.7391,-0.5014,-0.0358,0.0539,-0.0522,3.0303,1.4910,2.7281
2024-10-11T14:05:13.688Z,0.0566,-1.0636,0.1381,0.3936,0.7391,-0.5014,-0.0369,0.0565,-0.0467,3.0303,1.4910,2.7281
2024-10-11T14:05:13.698Z,0.0967,-1.0551,0.1320,0.3936,0.7391,-0.5014,-0.0433,0.0531,-0.0451,3.0303,1.4910,2.7281
2024-10-11T14:05:13.707Z,0.0798,-1.0578,0.1527,-0.4560,0.5977,-0.7917,-0.0433,0.0531,-0.0451,3.0518,1.4913,2.7080
2024-10-11T14:05:13.717Z,0.0495,-1.0346,0.1584,-0.4560,0.5977,-0.7917,-0.0463,0.0468,-0.0435,3.0518,1.4913,2.7080
2024-10-11T14:05:13.727Z,0.0203,-1.0078,0.1162,-0.4560,0.5977,-0.7917,-0.0463,0.0468,-0.0435,3.0518,1.4913,2.7080
2024-10-11T14:05:13.737Z,0.0606,-0.9796,0.1157,-0.2555,-0.1692,-0.4402,-0.0435,0.0472,-0.0378,3.0730,1.4920,2.6880
2024-10-11T14:05:13.747Z,0.1017,-0.9606,0.1010,-0.2555,-0.1692,-0.4402,-0.0358,0.0528,-0.0247,3.0730,1.4920,2.6880
2024-10-11T14:05:13.758Z,0.0942,-0.9514,0.0767,-0.2555,-0.1692,-0.4402,-0.0334,0.0623,-0.0208,3.0730,1.4920,2.6880
2024-10-11T14:05:13.766Z,0.0597,-0.9473,0.0539,-0.2406,-0.4866,0.1549,-0.0334,0.0623,-0.0208,3.0882,1.4926,2.6743
2024-10-11T14:05:13.778Z,0.0538,-0.9323,0.0580,-0.2406,-0.4866,0.1549,-0.0216,0.0643,-0.0164,3.0882,1.4926,2.6743
2024-10-11T14:05:13.787Z,0.0575,-0.9277,0.0370,-0.2406,-0.4866,0.1549,-0.0129,0.0657,-0.0152,3.0882,1.4926,2.6743
2024-10-11T14:05:13.797Z,0.0368,-0.9350,0.0046,-0.0133,-0.6083,0.6329,-0.0085,0.0590,-0.0129,3.0973,1.4931,2.6669
2024-10-11T14:05:13.808Z,0.0315,-0.9365,0.0194,-0.0133,-0.6083,0.6329,-0.0054,0.0658,-0.0079,3.0973,1.4931,2.6669
2024-10-11T14:05:13.817Z,0.0382,-0.9269,0.0443,-0.0133,-0.6083,0.6329,-0.0017,0.0673,-0.0053,3.0973,1.4931,2.6669
2024-10-11T14:05:13.827Z,0.0557,-0.9270,0.0401,-0.1968,-0.6869,0.2825,0.0002,0.0778,-0.0032,3.1015,1.4931,2.6645
2024-10-11T14:05:13.837Z,0.0363,-0.9293,0.0274,-0.1968,-0.6869,0.2825,0.0010,0.0803,0.0009,3.1015,1.4931,2.6645
2024-10-11T14:05:13.847Z,0.0278,-0.9348,0.0437,-0.1968,-0.6869,0.2825,0.0070,0.0843,0.0042,3.1015,1.4931,2.6645
2024-10-11T14:05:13.858Z,0.0676,-0.9395,0.0680,-0.0659,-0.5802,0.0871,0.0070,0.0843,0.0042,3.1006,1.4930,2.6675
2024-10-11T14:05:13.867Z,0.0676,-0.9395,0.0680,-0.0659,-0.5802,0.0871,0.0175,0.0782,0.0186,3.1006,1.4930,2.6675
2024-10-11T14:05:13.877Z,0.0513,-0.9514,0.0443,-0.0659,-0.5802,0.0871,0.0128,0.0830,0.0209,3.1006,1.4930,2.6675
2024-10-11T14:05:13.887Z,0.0448,-0.9597,0.0654,-0.0980,-0.3654,0.0413,0.0128,0.0789,0.0219,3.0919,1.4929,2.6782
2024-10-11T14:05:13.897Z,0.0221,-0.9582,0.0875,-0.0980,-0.3654,0.0413,0.0063,0.0854,0.0253,3.0919,1.4929,2.6782
2024-10-11T14:05:13.907Z,0.0305,-0.9689,0.1001,-0.0980,-0.3654,0.0413,0.0090,0.0803,0.0301,3.0919,1.4929,2.6782
2024-10-11T14:05:13.917Z,0.0473,-0.9782,0.0763,-0.1318,-0.1843,-0.0611,0.0086,0.0843,0.0318,3.0808,1.4929,2.6914
2024-10-11T14:05:13.927Z,0.0235,-0.9836,0.0795,-0.1318,-0.1843,-0.0611,0.0079,0.0875,0.0343,3.0808,1.4929,2.6914
2024-10-11T14:05:13.937Z,0.0075,-0.9831,0.0894,-0.1318,-0.1843,-0.0611,-0.0011,0.0868,0.0392,3.0808,1.4929,2.6914
2024-10-11T14:05:13.947Z,0.0267,-0.9833,0.0804,0.0585,-0.1347,-0.0992,-0.0035,0.0988,0.0392,3.0676,1.4932,2.7069
2024-10-11T14:05:13.957Z,0.0374,-0.9790,0.0702,0.0585,-0.1347,-0.0992,-0.0100,0.1085,0.0463,3.0676,1.4932,2.7069
2024-10-11T14:05:13.967Z,0.0147,-0.9911,0.0776,0.0585,-0.1347,-0.0992,-0.0092,0.1118,0.0535,3.0676,1.4932,2.7069
2024-10-11T14:05:13.977Z,0.0526,-0.9965,0.0664,-0.2115,-0.0058,0.0374,-0.0118,0.1214,0.0530,3.0525,1.4939,2.7248
2024-10-11T14:05:13.987Z,0.0428,-0.9987,0.0523,-0.2115,-0.0058,0.0374,-0.0145,0.1177,0.0528,3.0525,1.4939,2.7248
2024-10-11T14:05:13.997Z,0.0252,-0.9962,0.0597,-0.2115,-0.0058,0.0374,-0.0238,0.1252,0.0543,3.0525,1.4939,2.7248
2024-10-11T14:05:14.008Z,0.0117,-0.9923,0.0662,0.1715,-0.0470,0.0356,-0.0332,0.1282,0.0548,3.0354,1.4950,2.7454
2024-10-11T14:05:14.017Z,0.0230,-0.9817,0.0950,0.1715,-0.0470,0.0356,-0.0333,0.1310,0.0578,3.0354,1.4950,2.7454
2024-10-11T14:05:14.027Z,0.0270,-0.9741,0.0944,0.1715,-0.0470,0.0356,-0.0333,0.1214,0.0564,3.0354,1.4950,2.7454
2024-10-11T14:05:14.037Z,0.0207,-0.9798,0.0677,0.0644,-0.1707,0.0127,-0.0342,0.1234,0.0536,3.0192,1.4965,2.7652
2024-10-11T14:05:14.047Z,0.0095,-0.9731,0.0630,0.0644,-0.1707,0.0127,-0.0294,0.1017,0.0507,3.0192,1.4965,2.7652
2024-10-11T14:05:14.058Z,-0.0125,-0.9615,0.0393,0.2451,-0.4888,0.2160,-0.0294,0.1017,0.0507,3.0038,1.4980,2.7839
2024-10-11T14:05:14.067Z,0.0298,-0.9384,0.0492,0.2451,-0.4888,0.2160,-0.0327,0.1064,0.0514,3.0038,1.4980,2.7839
2024-10-11T14:05:14.077Z,0.0298,-0.9384,0.0492,0.2451,-0.4888,0.2160,-0.0271,0.1078,0.0493,3.0038,1.4980,2.7839
2024-10-11T14:05:14.088Z,0.0055,-0.9415,0.0389,0.2838,-0.4263,0.5068,-0.0262,0.1118,0.0451,2.9891,1.4994,2.8020
2024-10-11T14:05:14.097Z,-0.0052,-0.9540,0.0156,0.2838,-0.4263,0.5068,-0.0208,0.1141,0.0393,2.9891,1.4994,2.8020
2024-10-11T14:05:14.108Z,-0.0087,-0.9603,0.0137,0.2838,-0.4263,0.5068,-0.0176,0.1174,0.0340,2.9891,1.4994,2.8020
2024-10-11T14:05:14.118Z,-0.0009,-0.9527,0.0049,0.2385,-0.5218,0.7222,-0.0197,0.1242,0.0298,2.9777,1.5003,2.8168
2024-10-11T14:05:14.126Z,-0.0018,-0.9443,-0.0069,0.2385,-0.5218,0.7222,-0.0198,0.1249,0.0274,2.9777,1.5003,2.8168
2024-10-11T14:05:14.137Z,0.0200,-0.9301,0.0178,0.2385,-0.5218,0.7222,-0.0132,0.1257,0.0266,2.9777,1.5003,2.8168
2024-10-11T14:05:14.147Z,0.0200,-0.9301,0.0178,-0.0041,-0.6670,0.6960,-0.0132,0.1257,0.0266,2.9688,1.5009,2.8293
2024-10-11T14:05:14.158Z,0.0219,-0.9296,-0.0045,-0.0041,-0.6670,0.6960,-0.0085,0.1199,0.0229,2.9688,1.5009,2.8293
2024-10-11T14:05:14.166Z,0.0312,-0.9230,-0.0134,-0.0041,-0.6670,0.6960,0.0047,0.1078,0.0233,2.9688,1.5009,2.8293
2024-10-11T14:05:14.177Z,0.0436,-0.9077,-0.0016,-0.0041,-0.6670,0.6960,0.0084,0.0950,0.0218,2.9688,1.5009,2.8293
2024-10-11T14:05:14.187Z,0.0214,-0.8947,0.0266,-0.0838,-0.9581,0.6137,0.0147,0.0906,0.0208,2.9586,1.5011,2.8426
2024-10-11T14:05:14.198Z,0.0279,-0.9035,0.0204,-0.0838,-0.9581,0.6137,0.0218,0.0899,0.0242,2.9586,1.5011,2.8426
2024-10-11T14:05:14.208Z,0.0279,-0.9035,0.0204,-0.3632,-0.8118,0.5577,0.0218,0.0899,0.0242,2.9462,1.5008,2.8577
2024-10-11T14:05:14.217Z,0.0603,-0.9161,0.0022,-0.3632,-0.8118,0.5577,0.0320,0.0862,0.0307,2.9462,1.5008,2.8577
2024-10-11T14:05:14.227Z,0.0603,-0.9161,0.0022,-0.3632,-0.8118,0.5577,0.0448,0.0767,0.0284,2.9462,1.5008,2.8577
2024-10-11T14:05:14.238Z,0.0208,-0.9086,0.0018,0.1890,-0.9837,0.7417,0.0521,0.0702,0.0251,2.9293,1.4998,2.8767
2024-10-11T14:05:14.247Z,0.0036,-0.8941,0.0183,0.1890,-0.9837,0.7417,0.0585,0.0660,0.0250,2.9293,1.4998,2.8767
2024-10-11T14:05:14.256Z,0.0036,-0.8941,0.0183,0.1890,-0.9837,0.7417,0.0585,0.0660,0.0250,2.9293,1.4998,2.8767
2024-10-11T14:05:14.268Z,0.0282,-0.9006,0.0420,-0.0005,-0.7930,0.1909,0.0616,0.0645,0.0274,2.9136,1.4983,2.8945
2024-10-11T14:05:14.277Z,0.0178,-0.9165,0.0508,-0.0005,-0.7930,0.1909,0.0623,0.0641,0.0228,2.9136,1.4983,2.8945
2024-10-11T14:05:14.287Z,-0.0050,-0.9378,0.0835,-0.0005,-0.7930,0.1909,0.0626,0.0656,0.0230,2.9136,1.4983,2.8945
2024-10-11T14:05:14.298Z,-0.0050,-0.9378,0.0835,-0.0573,-0.4787,-0.3902,0.0540,0.0711,0.0250,2.8986,1.4968,2.9116
2024-10-11T14:05:14.308Z,0.0227,-0.9485,0.1117,-0.0573,-0.4787,-0.3902,0.0452,0.0827,0.0265,2.8986,1.4968,2.9116
2024-10-11T14:05:14.317Z,0.0083,-0.9736,0.1606,-0.0573,-0.4787,-0.3902,0.0421,0.0841,0.0263,2.8986,1.4968,2.9116
2024-10-11T14:05:14.326Z,0.0083,-0.9736,0.1606,-0.0573,-0.4787,-0.3902,0.0379,0.0701,0.0202,2.8986,1.4968,2.9116
2024-10-11T14:05:14.337Z,-0.0215,-0.9783,0.1442,0.4028,-0.1095,-0.7401,0.0350,0.0651,0.0168,2.8855,1.4957,2.9270
2024-10-11T14:05:14.347Z,-0.0061,-0.9666,0.1463,0.4028,-0.1095,-0.7401,0.0300,0.0540,0.0147,2.8855,1.4957,2.9270
2024-10-11T14:05:14.358Z,-0.0061,-0.9666,0.1463,0.1603,-0.3315,-0.6623,0.0300,0.0540,0.0147,2.8776,1.4950,2.9368
2024-10-11T14:05:14.367Z,-0.0009,-0.9633,0.1417,0.1603,-0.3315,-0.6623,0.0184,0.0550,0.0062,2.8776,1.4950,2.9368
2024-10-11T14:05:14.377Z,-0.0014,-0.9753,0.1520,0.1603,-0.3315,-0.6623,0.0127,0.0464,0.0049,2.8776,1.4950,2.9368
2024-10-11T14:05:14.387Z,-0.0014,-0.9753,0.1520,0.3085,-0.1001,-0.8780,0.0012,0.0449,-0.0045,2.8749,1.4946,2.9408
2024-10-11T14:05:14.397Z,-0.0258,-0.9897,0.1690,0.3085,-0.1001,-0.8780,-0.0051,0.0387,-0.0108,2.8749,1.4946,2.9408
2024-10-11T14:05:14.407Z,-0.0258,-0.9897,0.1690,0.3085,-0.1001,-0.8780,-0.0116,0.0286,-0.0154,2.8749,1.4946,2.9408
2024-10-11T14:05:14.417Z,-0.0167,-0.9902,0.1485,0.4243,0.0046,-0.7768,-0.0193,0.0205,-0.0218,2.8804,1.4948,2.9360
2024-10-11T14:05:14.427Z,-0.0286,-0.9849,0.1481,0.4243,0.0046,-0.7768,-0.0235,0.0149,-0.0264,2.8804,1.4948,2.9360
2024-10-11T14:05:14.437Z,-0.0081,-0.9798,0.1213,0.4243,0.0046,-0.7768,-0.0221,0.0045,-0.0325,2.8804,1.4948,2.9360
2024-10-11T14:05:14.447Z,-0.0081,-0.9798,0.1213,0.2195,-0.2514,-0.2392,-0.0293,0.0058,-0.0353,2.8944,1.4953,2.9223
2024-10-11T14:05:14.457Z,-0.0191,-0.9630,0.0994,0.2195,-0.2514,-0.2392,-0.0296,0.0072,-0.0415,2.8944,1.4953,2.9223
2024-10-11T14:05:14.467Z,-0.0066,-0.9520,0.0935,0.2195,-0.2514,-0.2392,-0.0293,0.0097,-0.0475,2.8944,1.4953,2.9223
2024-10-11T14:05:14.477Z,-0.0066,-0.9520,0.0935,0.2469,-0.4284,0.1820,-0.0242,0.0081,-0.0544,2.9142,1.4958,2.9024
2024-10-11T14:05:14.487Z,-0.0212,-0.9578,0.0512,0.2469,-0.4284,0.1820,-0.0228,-0.0002,-0.0550,2.9142,1.4958,2.9024
2024-10-11T14:05:14.497Z,-0.0034,-0.9604,0.0803,0.2469,-0.4284,0.1820,-0.0265,0.0032,-0.0628,2.9142,1.4958,2.9024
2024-10-11T14:05:14.508Z,-0.0034,-0.9604,0.0803,0.0746,-0.3735,-0.1474,-0.0254,-0.0058,-0.0667,2.9376,1.4958,2.8789
2024-10-11T14:05:14.516Z,0.0081,-0.9575,0.0874,0.0746,-0.3735,-0.1474,-0.0278,-0.0103,-0.0665,2.9376,1.4958,2.8789
2024-10-11T14:05:14.527Z,0.0067,-0.9485,0.0818,0.0746,-0.3735,-0.1474,-0.0273,-0.0162,-0.0710,2.9376,1.4958,2.8789
2024-10-11T14:05:14.537Z,0.0149,-0.9566,0.0921,0.0650,-0.3987,-0.2028,-0.0331,-0.0156,-0.0725,2.9668,1.4961,2.8494
2024-10-11T14:05:14.547Z,0.0223,-0.9491,0.0927,0.0650,-0.3987,-0.2028,-0.0351,-0.0147,-0.0736,2.9668,1.4961,2.8494
2024-10-11T14:05:14.558Z,0.0114,-0.9440,0.0634,0.0650,-0.3987,-0.2028,-0.0305,-0.0212,-0.0754,2.9668,1.4961,2.8494
2024-10-11T14:05:14.567Z,0.0114,-0.9440,0.0634,-0.1261,-0.5931,0.2608,-0.0280,-0.0207,-0.0718,2.9994,1.4963,2.8161
2024-10-11T14:05:14.577Z,0.0603,-0.9284,0.0466,-0.1261,-0.5931,0.2608,-0.0256,-0.0214,-0.0673,2.9994,1.4963,2.8161
2024-10-11T14:05:14.587Z,0.0639,-0.9168,0.0277,-0.1261,-0.5931,0.2608,-0.0199,-0.0295,-0.0651,2.9994,1.4963,2.8161
2024-10-11T14:05:14.597Z,0.0639,-0.9168,0.0277,-0.2343,-0.9106,0.5158,-0.0150,-0.0254,-0.0626,3.0278,1.4963,2.7871
2024-10-11T14:05:14.608Z,0.0365,-0.9069,0.0087,-0.2343,-0.9106,0.5158,-0.0058,-0.0221,-0.0605,3.0278,1.4963,2.7871
2024-10-11T14:05:14.617Z,0.0596,-0.9122,-0.0031,-0.2343,-0.9106,0.5158,-0.0012,-0.0211,-0.0572,3.0278,1.4963,2.7871
2024-10-11T14:05:14.627Z,0.0596,-0.9122,-0.0031,-0.3923,-0.8212,0.7914,0.0089,-0.0301,-0.0531,3.0496,1.4957,2.7643
2024-10-11T14:05:14.637Z,0.0594,-0.9133,0.0175,-0.3923,-0.8212,0.7914,0.0091,-0.0321,-0.0492,3.0496,1.4957,2.7643
2024-10-11T14:05:14.647Z,0.0489,-0.9086,0.0444,-0.3923,-0.8212,0.7914,0.0103,-0.0412,-0.0476,3.0496,1.4957,2.7643
2024-10-11T14:05:14.658Z,0.0489,-0.9086,0.0444,-0.1757,-0.7923,0.4113,0.0197,-0.0467,-0.0438,3.0653,1.4948,2.7474
2024-10-11T14:05:14.666Z,0.0623,-0.9312,0.0276,-0.1757,-0.7923,0.4113,0.0195,-0.0532,-0.0370,3.0653,1.4948,2.7474
2024-10-11T14:05:14.676Z,0.0590,-0.9310,0.0566,-0.1757,-0.7923,0.4113,0.0239,-0.0548,-0.0353,3.0653,1.4948,2.7474
2024-10-11T14:05:14.687Z,0.0590,-0.9310,0.0566,-0.2578,-0.6084,0.0862,0.0227,-0.0512,-0.0286,3.0742,1.4938,2.7368
2024-10-11T14:05:14.697Z,0.0663,-0.9434,0.0550,-0.2578,-0.6084,0.0862,0.0282,-0.0443,-0.0217,3.0742,1.4938,2.7368
2024-10-11T14:05:14.707Z,0.0666,-0.9561,0.0477,-0.2578,-0.6084,0.0862,0.0294,-0.0473,-0.0142,3.0742,1.4938,2.7368
2024-10-11T14:05:14.717Z,0.0666,-0.9561,0.0477,-0.1564,-0.4001,-0.0171,0.0262,-0.0449,-0.0134,3.0760,1.4928,2.7333
2024-10-11T14:05:14.726Z,0.0363,-0.9565,0.0887,-0.1564,-0.4001,-0.0171,0.0258,-0.0409,-0.0089,3.0760,1.4928,2.7333
2024-10-11T14:05:14.737Z,0.0337,-0.9684,0.0647,-0.1564,-0.4001,-0.0171,0.0253,-0.0352,-0.0032,3.0760,1.4928,2.7333
2024-10-11T14:05:14.747Z,0.0428,-0.9729,0.0733,-0.1134,-0.2356,-0.0115,0.0227,-0.0309,-0.0012,3.0746,1.4921,2.7335
2024-10-11T14:05:14.757Z,0.0241,-0.9703,0.0974,-0.1134,-0.2356,-0.0115,0.0165,-0.0184,0.0001,3.0746,1.4921,2.7335
2024-10-11T14:05:14.766Z,0.0077,-0.9711,0.0831,-0.1134,-0.2356,-0.0115,0.0173,-0.0071,0.0035,3.0746,1.4921,2.7335
2024-10-11T14:05:14.777Z,0.0077,-0.9711,0.0831,0.0843,-0.1978,0.2725,0.0173,-0.0071,0.0035,3.0710,1.4916,2.7365
2024-10-11T14:05:14.787Z,0.0327,-0.9772,0.0381,0.0843,-0.1978,0.2725,0.0207,0.0092,0.0046,3.0710,1.4916,2.7365
2024-10-11T14:05:14.797Z,-0.0164,-0.9713,0.0285,0.0843,-0.1978,0.2725,0.0200,0.0231,0.0004,3.0710,1.4916,2.7365
2024-10-11T14:05:14.807Z,-0.0164,-0.9713,0.0285,0.2573,-0.3809,0.2500,0.0201,0.0272,0.0084,3.0657,1.4910,2.7419
2024-10-11T14:05:14.817Z,0.0532,-0.9581,0.0568,0.2573,-0.3809,0.2500,0.0226,0.0354,0.0130,3.0657,1.4910,2.7419
2024-10-11T14:05:14.827Z,0.0296,-0.9767,0.0559,0.2573,-0.3809,0.2500,0.0225,0.0365,0.0109,3.0657,1.4910,2.7419
2024-10-11T14:05:14.837Z,-0.0089,-0.9843,0.0532,0.3875,-0.1219,0.2055,0.0240,0.0365,0.0103,3.0584,1.4905,2.7498
2024-10-11T14:05:14.846Z,0.0141,-0.9753,0.0642,0.3875,-0.1219,0.2055,0.0188,0.0308,0.0152,3.0584,1.4905,2.7498
2024-10-11T14:05:14.858Z,0.0659,-0.9685,0.0772,0.3875,-0.1219,0.2055,0.0171,0.0297,0.0202,3.0584,1.4905,2.7498
2024-10-11T14:05:14.867Z,0.0659,-0.9685,0.0772,-0.2709,-0.2405,-0.1720,0.0111,0.0293,0.0221,3.0498,1.4902,2.7591
2024-10-11T14:05:14.877Z,0.0354,-0.9836,0.1177,-0.2709,-0.2405,-0.1720,0.0085,0.0290,0.0225,3.0498,1.4902,2.7591
2024-10-11T14:05:14.886Z,0.0175,-0.9967,0.1191,-0.2709,-0.2405,-0.1720,0.0057,0.0215,0.0237,3.0498,1.4902,2.7591
2024-10-11T14:05:14.898Z,0.0386,-1.0123,0.1177,-0.0924,0.1520,-0.4214,-0.0017,0.0255,0.0248,3.0405,1.4905,2.7689
2024-10-11T14:05:14.907Z,0.0447,-1.0063,0.1095,-0.0924,0.1520,-0.4214,-0.0093,0.0384,0.0317,3.0405,1.4905,2.7689
2024-10-11T14:05:14.916Z,0.0650,-0.9941,0.1052,-0.0924,0.1520,-0.4214,-0.0129,0.0318,0.0361,3.0405,1.4905,2.7689
2024-10-11T14:05:14.927Z,0.0356,-0.9738,0.0910,-0.0743,-0.2262,-0.1618,-0.0142,0.0279,0.0387,3.0287,1.4911,2.7812
2024-10-11T14:05:14.937Z,0.0338,-0.9575,0.0780,-0.0743,-0.2262,-0.1618,-0.0108,0.0180,0.0374,3.0287,1.4911,2.7812
2024-10-11T14:05:14.947Z,0.0449,-0.9591,0.0461,-0.0743,-0.2262,-0.1618,-0.0022,0.0125,0.0381,3.0287,1.4911,2.7812
2024-10-11T14:05:14.958Z,0.0338,-0.9626,0.0036,-0.0677,-0.3361,0.6944,-0.0014,0.0148,0.0415,3.0156,1.4916,2.7943
2024-10-11T14:05:14.966Z,0.0479,-0.9512,0.0107,-0.0677,-0.3361,0.6944,0.0071,-0.0021,0.0431,3.0156,1.4916,2.7943
2024-10-11T14:05:14.977Z,0.0521,-0.9437,0.0105,-0.0677,-0.3361,0.6944,0.0069,0.0013,0.0441,3.0156,1.4916,2.7943
2024-10-11T14:05:14.987Z,0.0620,-0.9566,0.0348,-0.3560,-0.3947,0.3929,0.0133,-0.0070,0.0456,2.9990,1.4916,2.8107
2024-10-11T14:05:14.997Z,0.0590,-0.9676,0.0577,-0.3560,-0.3947,0.3929,0.0104,-0.0010,0.0430,2.9990,1.4916,2.8107
2024-10-11T14:05:15.008Z,0.0299,-1.0030,0.0777,-0.3560,-0.3947,0.3929,0.0100,0.0025,0.0422,2.9990,1.4916,2.8107
2024-10-11T14:05:15.016Z,0.0299,-1.0030,0.0777,-0.0226,0.1146,0.0161,0.0172,-0.0036,0.0448,2.9812,1.4916,2.8280
2024-10-11T14:05:15.027Z,0.0392,-1.0323,0.0608,-0.0226,0.1146,0.0161,0.0171,-0.0014,0.0465,2.9812,1.4916,2.8280
2024-10-11T14:05:15.037Z,0.0424,-1.0190,0.0669,-0.0226,0.1146,0.0161,0.0235,-0.0037,0.0492,2.9812,1.4916,2.8280
2024-10-11T14:05:15.047Z,0.0356,-1.0258,0.0698,-0.1234,0.2842,0.0581,0.0293,0.0026,0.0474,2.9625,1.4916,2.8463
2024-10-11T14:05:15.057Z,0.0054,-1.0246,0.0682,-0.1234,0.2842,0.0581,0.0308,0.0144,0.0484,2.9625,1.4916,2.8463
2024-10-11T14:05:15.066Z,0.0313,-1.0294,0.0595,-0.1234,0.2842,0.0581,0.0355,0.0063,0.0500,2.9625,1.4916,2.8463
2024-10-11T14:05:15.077Z,0.0313,-1.0294,0.0595,-0.1132,0.3387,0.2316,0.0360,0.0111,0.0513,2.9431,1.4911,2.8658
2024-10-11T14:05:15.087Z,0.0180,-1.0207,0.0636,-0.1132,0.3387,0.2316,0.0409,0.0064,0.0496,2.9431,1.4911,2.8658
2024-10-11T14:05:15.097Z,0.0145,-1.0063,0.0656,-0.1132,0.3387,0.2316,0.0375,0.0064,0.0482,2.9431,1.4911,2.8658
2024-10-11T14:05:15.108Z,0.0088,-0.9982,0.0689,0.1110,0.0139,0.0863,0.0307,0.0066,0.0479,2.9208,1.4904,2.8879
2024-10-11T14:05:15.116Z,0.0330,-1.0012,0.0739,0.1110,0.0139,0.0863,0.0303,0.0066,0.0491,2.9208,1.4904,2.8879
2024-10-11T14:05:15.127Z,0.0133,-1.0314,0.0702,0.1110,0.0139,0.0863,0.0255,0.0108,0.0501,2.9208,1.4904,2.8879
2024-10-11T14:05:15.137Z,0.0078,-1.0697,0.0723,0.1059,0.7161,0.0619,0.0290,0.0115,0.0525,2.8997,1.4899,2.9088
2024-10-11T14:05:15.146Z,0.0317,-1.0900,0.0736,0.1059,0.7161,0.0619,0.0244,0.0133,0.0462,2.8997,1.4899,2.9088
2024-10-11T14:05:15.158Z,-0.0141,-1.0990,0.0731,0.1059,0.7161,0.0619,0.0250,0.0122,0.0406,2.8997,1.4899,2.9088
2024-10-11T14:05:15.166Z,-0.0141,-1.0990,0.0731,0.3113,1.0403,-0.0104,0.0199,0.0142,0.0373,2.8818,1.4895,2.9267
2024-10-11T14:05:15.178Z,-0.0030,-1.1102,0.0830,0.3113,1.0403,-0.0104,0.0110,0.0218,0.0344,2.8818,1.4895,2.9267
2024-10-11T14:05:15.187Z,0.0035,-1.1245,0.0683,0.3113,1.0403,-0.0104,0.0119,0.0165,0.0273,2.8818,1.4895,2.9267
2024-10-11T14:05:15.197Z,-0.0017,-1.1411,0.0451,0.1770,1.4166,0.3394,0.0043,0.0215,0.0245,2.8697,1.4893,2.9391
2024-10-11T14:05:15.208Z,0.0095,-1.1431,0.0383,0.1770,1.4166,0.3394,0.0023,0.0201,0.0198,2.8697,1.4893,2.9391
2024-10-11T14:05:15.216Z,0.0211,-1.1504,0.0641,0.1770,1.4166,0.3394,-0.0030,0.0049,0.0175,2.8697,1.4893,2.9391
2024-10-11T14:05:15.228Z,0.0211,-1.1504,0.0641,-0.0812,1.5922,0.1402,-0.0144,-0.0009,0.0074,2.8643,1.4896,2.9447
2024-10-11T14:05:15.237Z,0.0121,-1.1812,0.0714,-0.0812,1.5922,0.1402,-0.0216,0.0017,0.0004,2.8643,1.4896,2.9447
2024-10-11T14:05:15.247Z,0.0084,-1.1945,0.0764,-0.0812,1.5922,0.1402,-0.0287,0.0055,-0.0062,2.8643,1.4896,2.9447
2024-10-11T14:05:15.257Z,-0.0043,-1.2115,0.0723,0.1984,2.1066,0.0632,-0.0297,0.0021,-0.0151,2.8675,1.4904,2.9416
2024-10-11T14:05:15.266Z,-0.0137,-1.2197,0.0748,0.1984,2.1066,0.0632,-0.0285,0.0033,-0.0199,2.8675,1.4904,2.9416
2024-10-11T14:05:15.277Z,0.0029,-1.2180,0.1079,0.1984,2.1066,0.0632,-0.0299,-0.0092,-0.0230,2.8675,1.4904,2.9416
2024-10-11T14:05:15.287Z,0.0231,-1.2052,0.1244,-0.0629,2.0437,-0.4568,-0.0328,-0.0135,-0.0234,2.8781,1.4911,2.9307
2024-10-11T14:05:15.297Z,0.0207,-1.1966,0.1223,-0.0629,2.0437,-0.4568,-0.0371,-0.0163,-0.0277,2.8781,1.4911,2.9307
2024-10-11T14:05:15.307Z,0.0223,-1.1857,0.1354,-0.0629,2.0437,-0.4568,-0.0361,-0.0323,-0.0274,2.8781,1.4911,2.9307
2024-10-11T14:05:15.316Z,0.0190,-1.1704,0.1260,-0.0141,1.7022,-0.4834,-0.0345,-0.0126,-0.0294,2.8908,1.4920,2.9172
2024-10-11T14:05:15.327Z,-0.0233,-1.0992,0.1356,-0.0141,1.7022,-0.4834,-0.0392,0.0079,-0.0268,2.8908,1.4920,2.9172
2024-10-11T14:05:15.337Z,-0.0332,-1.1680,0.1880,-0.0141,1.7022,-0.4834,-0.0519,0.0039,-0.0278,2.8908,1.4920,2.9172
2024-10-11T14:05:15.347Z,-0.0312,-1.1715,0.1595,0.4864,1.7122,-0.8250,-0.0582,-0.0105,-0.0314,2.9059,1.4931,2.9018
2024-10-11T14:05:15.357Z,0.0088,-1.1671,0.1745,0.4864,1.7122,-0.8250,-0.0724,-0.0050,-0.0314,2.9059,1.4931,2.9018
2024-10-11T14:05:15.366Z,-0.0061,-1.1676,0.1660,0.4864,1.7122,-0.8250,-0.0792,-0.0139,-0.0341,2.9059,1.4931,2.9018
2024-10-11T14:05:15.378Z,-0.0221,-1.1392,0.1391,0.4080,1.3935,-0.6484,-0.0898,-0.0183,-0.0450,2.9265,1.4951,2.8807
2024-10-11T14:05:15.387Z,-0.0492,-1.1224,0.1519,0.4080,1.3935,-0.6484,-0.0976,-0.0222,-0.0485,2.9265,1.4951,2.8807
2024-10-11T14:05:15.397Z,-0.0243,-1.1095,0.1657,0.4080,1.3935,-0.6484,-0.1096,-0.0237,-0.0508,2.9265,1.4951,2.8807
2024-10-11T14:05:15.407Z,-0.0085,-1.0802,0.1525,0.2899,0.8125,-0.8102,-0.1106,-0.0255,-0.0473,2.9569,1.4977,2.8497
2024-10-11T14:05:15.416Z,-0.0009,-1.0623,0.1440,0.2899,0.8125,-0.8102,-0.1195,-0.0214,-0.0496,2.9569,1.4977,2.8497
2024-10-11T14:05:15.426Z,-0.0368,-1.0531,0.1496,0.2899,0.8125,-0.8102,-0.1226,-0.0266,-0.0549,2.9569,1.4977,2.8497
2024-10-11T14:05:15.437Z,-0.0323,-1.0477,0.1451,0.5389,0.4920,-0.7730,-0.1272,-0.0203,-0.0589,2.9937,1.5007,2.8121
2024-10-11T14:05:15.447Z,-0.0106,-1.0354,0.1641,0.5389,0.4920,-0.7730,-0.1305,-0.0251,-0.0593,2.9937,1.5007,2.8121
2024-10-11T14:05:15.457Z,-0.0128,-1.0260,0.2107,0.5389,0.4920,-0.7730,-0.1354,-0.0109,-0.0591,2.9937,1.5007,2.8121
2024-10-11T14:05:15.466Z,-0.0350,-1.0127,0.2405,0.5831,0.1464,-1.7477,-0.1376,0.0084,-0.0586,3.0374,1.5038,2.7677
2024-10-11T14:05:15.476Z,-0.0102,-1.0232,0.2318,0.5831,0.1464,-1.7477,-0.1403,0.0049,-0.0539,3.0374,1.5038,2.7677
2024-10-11T14:05:15.487Z,0.0105,-1.0360,0.2317,0.5831,0.1464,-1.7477,-0.1466,-0.0076,-0.0553,3.0374,1.5038,2.7677
2024-10-11T14:05:15.497Z,0.0199,-1.0310,0.2087,0.0609,0.3239,-1.4773,-0.1460,-0.0221,-0.0568,3.0858,1.5071,2.7190
2024-10-11T14:05:15.507Z,0.0125,-1.0153,0.2036,0.0609,0.3239,-1.4773,-0.1426,-0.0193,-0.0528,3.0858,1.5071,2.7190
2024-10-11T14:05:15.516Z,-0.0003,-1.0403,0.1739,0.0609,0.3239,-1.4773,-0.1357,-0.0175,-0.0518,3.0858,1.5071,2.7190
2024-10-11T14:05:15.527Z,0.0092,-1.0728,0.1270,0.1812,0.7321,-0.7160,-0.1278,-0.0023,-0.0457,3.1362,1.5101,2.6680
2024-10-11T14:05:15.537Z,-0.0016,-1.0936,0.1062,0.1812,0.7321,-0.7160,-0.1173,0.0052,-0.0450,3.1362,1.5101,2.6680
2024-10-11T14:05:15.547Z,-0.0070,-1.1091,0.0952,0.1812,0.7321,-0.7160,-0.1043,0.0116,-0.0457,3.1362,1.5101,2.6680
2024-10-11T14:05:15.557Z,-0.0119,-1.1107,0.0721,0.4018,1.1025,-0.2096,-0.0984,0.0124,-0.0514,-3.1004,1.5122,2.6215
2024-10-11T14:05:15.566Z,-0.0032,-1.1107,0.0730,0.4018,1.1025,-0.2096,-0.0926,0.0085,-0.0518,-3.1004,1.5122,2.6215
2024-10-11T14:05:15.576Z,0.0298,-1.1061,0.0826,0.4018,1.1025,-0.2096,-0.0888,0.0176,-0.0481,-3.1004,1.5122,2.6215
2024-10-11T14:05:15.587Z,0.0551,-1.0937,0.0719,-0.2417,0.9352,-0.2339,-0.0847,0.0276,-0.0429,-3.0547,1.5138,2.5763
2024-10-11T14:05:15.597Z,0.0569,-1.0907,0.0414,-0.2417,0.9352,-0.2339,-0.0785,0.0347,-0.0405,-3.0547,1.5138,2.5763
2024-10-11T14:05:15.607Z,0.0598,-1.0889,0.0329,-0.2417,0.9352,-0.2339,-0.0742,0.0383,-0.0354,-3.0547,1.5138,2.5763
2024-10-11T14:05:15.616Z,0.0755,-1.0950,0.0421,-0.4308,0.9474,0.0378,-0.0625,0.0399,-0.0308,-3.0175,1.5150,2.5397
2024-10-11T14:05:15.626Z,0.0884,-1.0964,0.0545,-0.4308,0.9474,0.0378,-0.0593,0.0407,-0.0251,-3.0175,1.5150,2.5397
2024-10-11T14:05:15.636Z,0.0713,-1.0954,0.0540,-0.4308,0.9474,0.0378,-0.0551,0.0398,-0.0207,-3.0175,1.5150,2.5397
2024-10-11T14:05:15.647Z,0.0692,-1.0969,0.0330,-0.3618,0.9655,0.1119,-0.0432,0.0416,-0.0242,-2.9898,1.5159,2.5131
2024-10-11T14:05:15.657Z,0.0780,-1.0901,0.0170,-0.3618,0.9655,0.1119,-0.0418,0.0570,-0.0223,-2.9898,1.5159,2.5131
2024-10-11T14:05:15.666Z,0.0767,-1.0755,0.0095,-0.3618,0.9655,0.1119,-0.0265,0.0645,-0.0255,-2.9898,1.5159,2.5131
2024-10-11T14:05:15.678Z,0.0766,-1.0707,0.0125,-0.4278,0.7083,0.3049,-0.0166,0.0757,-0.0297,-2.9697,1.5161,2.4945
2024-10-11T14:05:15.687Z,0.0776,-1.0725,0.0394,-0.4278,0.7083,0.3049,-0.0072,0.0899,-0.0335,-2.9697,1.5161,2.4945
2024-10-11T14:05:15.697Z,0.0782,-1.0611,0.0766,-0.4278,0.7083,0.3049,-0.0027,0.0981,-0.0360,-2.9697,1.5161,2.4945
2024-10-11T14:05:15.707Z,0.0652,-1.0472,0.0898,-0.3068,0.4778,-0.4528,0.0046,0.1044,-0.0411,-2.9544,1.5155,2.4816
2024-10-11T14:05:15.717Z,0.0537,-1.0386,0.1259,-0.3068,0.4778,-0.4528,0.0136,0.0934,-0.0402,-2.9544,1.5155,2.4816
2024-10-11T14:05:15.726Z,0.0770,-1.0267,0.1363,-0.3068,0.4778,-0.4528,0.0204,0.0815,-0.0386,-2.9544,1.5155,2.4816
2024-10-11T14:05:15.737Z,0.0868,-1.0141,0.1537,-0.5100,0.1540,-1.0722,0.0359,0.0688,-0.0274,-2.9470,1.5143,2.4764
2024-10-11T14:05:15.747Z,0.0885,-0.9979,0.1695,-0.5100,0.1540,-1.0722,0.0471,0.0573,-0.0204,-2.9470,1.5143,2.4764
2024-10-11T14:05:15.757Z,0.0814,-0.9739,0.1944,-0.5100,0.1540,-1.0722,0.0621,0.0531,-0.0089,-2.9470,1.5143,2.4764
2024-10-11T14:05:15.766Z,0.0723,-0.9625,0.2065,-0.3648,-0.3509,-1.5712,0.0769,0.0530,-0.0041,-2.9616,1.5126,2.4921
2024-10-11T14:05:15.776Z,0.0495,-0.9541,0.2039,-0.3648,-0.3509,-1.5712,0.0912,0.0593,-0.0044,-2.9616,1.5126,2.4921
2024-10-11T14:05:15.786Z,0.0268,-0.9332,0.2022,-0.3648,-0.3509,-1.5712,0.1086,0.0622,-0.0078,-2.9616,1.5126,2.4921
2024-10-11T14:05:15.797Z,0.0199,-0.9126,0.2326,0.1505,-0.8397,-1.7963,0.1202,0.0601,-0.0076,-2.9904,1.5100,2.5223
2024-10-11T14:05:15.806Z,0.0151,-0.9093,0.2443,0.1505,-0.8397,-1.7963,0.1337,0.0601,-0.0093,-2.9904,1.5100,2.5223
2024-10-11T14:05:15.816Z,0.0222,-0.9129,0.2336,0.1505,-0.8397,-1.7963,0.1364,0.0596,-0.0071,-2.9904,1.5100,2.5223
2024-10-11T14:05:15.826Z,0.0222,-0.9129,0.2336,-0.0536,-0.6466,-1.5521,0.1463,0.0494,0.0017,-3.0254,1.5065,2.5589
2024-10-11T14:05:15.837Z,0.0556,-0.9597,0.1964,-0.0536,-0.6466,-1.5521,0.1454,0.0442,0.0064,-3.0254,1.5065,2.5589
2024-10-11T14:05:15.846Z,0.0449,-0.9860,0.1702,-0.0536,-0.6466,-1.5521,0.1384,0.0419,0.0220,-3.0254,1.5065,2.5589
2024-10-11T14:05:15.857Z,0.0642,-1.0006,0.1393,-0.2893,0.0279,-0.7977,0.1343,0.0160,0.0359,-3.0678,1.5032,2.6019
2024-10-11T14:05:15.867Z,0.0390,-0.9996,0.1145,-0.2893,0.0279,-0.7977,0.1156,0.0134,0.0420,-3.0678,1.5032,2.6019
2024-10-11T14:05:15.877Z,0.0423,-1.0018,0.1010,-0.2893,0.0279,-0.7977,0.0967,0.0055,0.0498,-3.0678,1.5032,2.6019
2024-10-11T14:05:15.887Z,0.0396,-1.0377,0.0905,-0.0619,0.3938,-0.2884,0.0796,0.0088,0.0565,-3.1091,1.5012,2.6430
2024-10-11T14:05:15.897Z,0.0445,-1.0576,0.0750,-0.0619,0.3938,-0.2884,0.0624,0.0087,0.0588,-3.1091,1.5012,2.6430
2024-10-11T14:05:15.907Z,0.0414,-1.0597,0.0351,-0.0619,0.3938,-0.2884,0.0511,0.0106,0.0624,-3.1091,1.5012,2.6430
2024-10-11T14:05:15.916Z,0.0566,-1.0365,0.0246,-0.2478,0.3823,0.3737,0.0339,0.0274,0.0656,3.1392,1.5006,2.6779
2024-10-11T14:05:15.927Z,0.0554,-1.0131,0.0193,-0.2478,0.3823,0.3737,0.0225,0.0365,0.0659,3.1392,1.5006,2.6779
2024-10-11T14:05:15.937Z,0.0553,-0.9954,-0.0145,-0.2478,0.3823,0.3737,0.0138,0.0471,0.0645,3.1392,1.5006,2.6779
2024-10-11T14:05:15.947Z,0.0510,-0.9946,-0.0468,-0.2127,-0.0294,1.0796,0.0019,0.0643,0.0647,3.1103,1.5010,2.7077
2024-10-11T14:05:15.957Z,0.0602,-0.9984,-0.0704,-0.2127,-0.0294,1.0796,-0.0021,0.0724,0.0635,3.1103,1.5010,2.7077
2024-10-11T14:05:15.966Z,0.0634,-1.0000,-0.0716,-0.2127,-0.0294,1.0796,-0.0055,0.0766,0.0594,3.1103,1.5010,2.7077
2024-10-11T14:05:15.977Z,0.0525,-1.0058,-0.0715,-0.2474,0.0799,1.3216,-0.0072,0.0760,0.0549,3.0860,1.5019,2.7338
2024-10-11T14:05:15.987Z,0.0311,-1.0083,-0.0814,-0.2474,0.0799,1.3216,-0.0078,0.0756,0.0508,3.0860,1.5019,2.7338
2024-10-11T14:05:15.997Z,0.0127,-1.0078,-0.0769,-0.2474,0.0799,1.3216,-0.0065,0.0724,0.0452,3.0860,1.5019,2.7338
2024-10-11T14:05:16.007Z,0.0342,-0.9967,-0.0762,-0.0826,-0.0092,1.3675,-0.0050,0.0826,0.0445,3.0668,1.5025,2.7546
2024-10-11T14:05:16.016Z,0.0662,-0.9836,-0.0876,-0.0826,-0.0092,1.3675,-0.0038,0.0835,0.0458,3.0668,1.5025,2.7546
2024-10-11T14:05:16.027Z,0.0735,-0.9733,-0.0867,-0.0826,-0.0092,1.3675,-0.0030,0.0738,0.0488,3.0668,1.5025,2.7546
2024-10-11T14:05:16.036Z,0.0498,-0.9670,-0.0760,-0.2519,-0.3012,1.3653,-0.0047,0.0721,0.0513,3.0455,1.5031,2.7774
2024-10-11T14:05:16.047Z,0.0320,-0.9557,-0.0746,-0.2519,-0.3012,1.3653,-0.0034,0.0744,0.0484,3.0455,1.5031,2.7774
2024-10-11T14:05:16.057Z,0.0349,-0.9407,-0.0915,-0.2519,-0.3012,1.3653,0.0000,0.0807,0.0485,3.0455,1.5031,2.7774
2024-10-11T14:05:16.066Z,0.0450,-0.9346,-0.0908,-0.2215,-0.6194,1.5110,0.0056,0.0953,0.0487,3.0248,1.5036,2.8002
2024-10-11T14:05:16.077Z,0.0571,-0.9234,-0.0939,-0.2215,-0.6194,1.5110,0.0072,0.1063,0.0498,3.0248,1.5036,2.8002
2024-10-11T14:05:16.087Z,0.0486,-0.9061,-0.0757,-0.2215,-0.6194,1.5110,0.0212,0.1112,0.0509,3.0248,1.5036,2.8002
2024-10-11T14:05:16.097Z,0.0190,-0.8889,-0.0647,0.0171,-1.0682,1.2617,0.0299,0.1275,0.0478,3.0008,1.5036,2.8272
2024-10-11T14:05:16.107Z,0.0019,-0.8728,-0.0444,0.0171,-1.0682,1.2617,0.0393,0.1364,0.0443,3.0008,1.5036,2.8272
2024-10-11T14:05:16.116Z,-0.0163,-0.8611,-0.0207,0.0171,-1.0682,1.2617,0.0513,0.1468,0.0472,3.0008,1.5036,2.8272
2024-10-11T14:05:16.127Z,-0.0224,-0.8404,-0.0056,0.4075,-1.5424,0.6977,0.0727,0.1514,0.0450,2.9741,1.5025,2.8578
2024-10-11T14:05:16.137Z,-0.0245,-0.8205,-0.0076,0.4075,-1.5424,0.6977,0.0908,0.1541,0.0461,2.9741,1.5025,2.8578
2024-10-11T14:05:16.146Z,-0.0335,-0.8183,0.0154,0.4075,-1.5424,0.6977,0.1044,0.1674,0.0523,2.9741,1.5025,2.8578
2024-10-11T14:05:16.157Z,-0.0534,-0.8240,0.0370,0.6932,-1.7019,0.3102,0.1212,0.1700,0.0493,2.9421,1.5000,2.8945
2024-10-11T14:05:16.167Z,-0.0897,-0.8289,0.0528,0.6932,-1.7019,0.3102,0.1377,0.1781,0.0436,2.9421,1.5000,2.8945
2024-10-11T14:05:16.177Z,-0.1051,-0.8341,0.0933,0.6932,-1.7019,0.3102,0.1460,0.1921,0.0406,2.9421,1.5000,2.8945
2024-10-11T14:05:16.187Z,-0.1103,-0.8273,0.1241,1.2353,-1.6668,-0.5013,0.1565,0.2038,0.0354,2.9116,1.4961,2.9304
2024-10-11T14:05:16.196Z,-0.1038,-0.8173,0.1328,1.2353,-1.6668,-0.5013,0.1620,0.2209,0.0297,2.9116,1.4961,2.9304
2024-10-11T14:05:16.207Z,-0.0943,-0.8121,0.1464,1.2353,-1.6668,-0.5013,0.1659,0.2281,0.0258,2.9116,1.4961,2.9304
2024-10-11T14:05:16.216Z,-0.1030,-0.8166,0.1819,1.1508,-1.7680,-1.0191,0.1663,0.2357,0.0239,2.8882,1.4914,2.9602
2024-10-11T14:05:16.227Z,-0.0959,-0.8353,0.1997,1.1508,-1.7680,-1.0191,0.1652,0.2437,0.0213,2.8882,1.4914,2.9602
2024-10-11T14:05:16.237Z,-0.0931,-0.8575,0.2180,1.1508,-1.7680,-1.0191,0.1638,0.2495,0.0217,2.8882,1.4914,2.9602
2024-10-11T14:05:16.247Z,-0.0931,-0.8811,0.2227,1.0415,-1.1317,-1.3690,0.1618,0.2556,0.0197,2.8694,1.4866,2.9858
2024-10-11T14:05:16.257Z,-0.0904,-0.8926,0.2257,1.0415,-1.1317,-1.3690,0.1582,0.2603,0.0124,2.8694,1.4866,2.9858
2024-10-11T14:05:16.266Z,-0.0800,-0.8989,0.2487,1.0415,-1.1317,-1.3690,0.1564,0.2533,0.0102,2.8694,1.4866,2.9858
2024-10-11T14:05:16.277Z,-0.0842,-0.9081,0.2402,0.9433,-0.8631,-1.4939,0.1522,0.2467,0.0057,2.8565,1.4819,3.0059
2024-10-11T14:05:16.287Z,-0.0892,-0.9145,0.2317,0.9433,-0.8631,-1.4939,0.1416,0.2441,-0.0006,2.8565,1.4819,3.0059
2024-10-11T14:05:16.296Z,-0.0694,-0.9305,0.2677,0.9433,-0.8631,-1.4939,0.1265,0.2434,-0.0038,2.8565,1.4819,3.0059
2024-10-11T14:05:16.307Z,-0.0360,-0.9373,0.2868,0.4645,-0.5730,-1.9096,0.1099,0.2322,-0.0117,2.8501,1.4779,3.0191
2024-10-11T14:05:16.317Z,-0.0599,-0.9370,0.2610,0.4645,-0.5730,-1.9096,0.0941,0.2219,-0.0210,2.8501,1.4779,3.0191
2024-10-11T14:05:16.326Z,-0.0579,-0.9390,0.2526,0.4645,-0.5730,-1.9096,0.0742,0.2180,-0.0295,2.8501,1.4779,3.0191
2024-10-11T14:05:16.337Z,-0.0324,-0.9425,0.2461,0.4292,-0.5195,-1.4840,0.0550,0.2010,-0.0366,2.8530,1.4752,3.0222
2024-10-11T14:05:16.346Z,-0.0390,-0.9494,0.2294,0.4292,-0.5195,-1.4840,0.0380,0.1907,-0.0442,2.8530,1.4752,3.0222
2024-10-11T14:05:16.357Z,-0.0192,-0.9563,0.2257,0.4292,-0.5195,-1.4840,0.0174,0.1864,-0.0516,2.8530,1.4752,3.0222
2024-10-11T14:05:16.366Z,0.0079,-0.9648,0.1881,0.0421,-0.2994,-0.9060,0.0011,0.1877,-0.0603,2.8662,1.4742,3.0147
2024-10-11T14:05:16.378Z,0.0158,-0.9677,0.1596,0.0421,-0.2994,-0.9060,-0.0153,0.1978,-0.0684,2.8662,1.4742,3.0147
2024-10-11T14:05:16.387Z,0.0217,-0.9565,0.1338,0.0421,-0.2994,-0.9060,-0.0347,0.1987,-0.0768,2.8662,1.4742,3.0147
2024-10-11T14:05:16.396Z,0.0243,-0.9433,0.1006,-0.1034,-0.5111,-0.0532,-0.0434,0.1960,-0.0850,2.8886,1.4745,2.9978
2024-10-11T14:05:16.407Z,0.0380,-0.9361,0.0805,-0.1034,-0.5111,-0.0532,-0.0552,0.1870,-0.0951,2.8886,1.4745,2.9978
2024-10-11T14:05:16.417Z,0.0520,-0.9247,0.0836,-0.1034,-0.5111,-0.0532,-0.0678,0.1799,-0.1000,2.8886,1.4745,2.9978
2024-10-11T14:05:16.427Z,0.0559,-0.9158,0.0549,-0.3899,-0.7821,0.3783,-0.0771,0.1611,-0.1055,2.9218,1.4759,2.9701
2024-10-11T14:05:16.436Z,0.0798,-0.8998,0.0441,-0.3899,-0.7821,0.3783,-0.0862,0.1487,-0.1077,2.9218,1.4759,2.9701
2024-10-11T14:05:16.447Z,0.0895,-0.8903,0.0602,-0.3899,-0.7821,0.3783,-0.0866,0.1337,-0.1072,2.9218,1.4759,2.9701
2024-10-11T14:05:16.457Z,0.0813,-0.8912,0.0349,-0.6120,-1.0249,0.5512,-0.0812,0.1156,-0.1051,2.9596,1.4777,2.9364
2024-10-11T14:05:16.467Z,0.0904,-0.8898,0.0264,-0.6120,-1.0249,0.5512,-0.0798,0.1086,-0.1010,2.9596,1.4777,2.9364
2024-10-11T14:05:16.477Z,0.0986,-0.8784,0.0342,-0.6120,-1.0249,0.5512,-0.0712,0.0943,-0.0981,2.9596,1.4777,2.9364
2024-10-11T14:05:16.487Z,0.0963,-0.8615,0.0226,-0.7326,-1.3174,0.6515,-0.0646,0.0782,-0.0945,2.9957,1.4791,2.9030
2024-10-11T14:05:16.496Z,0.0806,-0.8414,0.0111,-0.7326,-1.3174,0.6515,-0.0550,0.0604,-0.0898,2.9957,1.4791,2.9030
2024-10-11T14:05:16.507Z,0.0711,-0.8318,0.0177,-0.7326,-1.3174,0.6515,-0.0456,0.0438,-0.0884,2.9957,1.4791,2.9030
2024-10-11T14:05:16.517Z,0.0736,-0.8269,0.0116,-0.4845,-1.6578,0.7457,-0.0377,0.0451,-0.0842,3.0280,1.4798,2.8723
2024-10-11T14:05:16.527Z,0.0695,-0.8325,0.0101,-0.4845,-1.6578,0.7457,-0.0301,0.0407,-0.0808,3.0280,1.4798,2.8723
2024-10-11T14:05:16.537Z,0.0742,-0.8367,0.0151,-0.4845,-1.6578,0.7457,-0.0186,0.0222,-0.0760,3.0280,1.4798,2.8723
2024-10-11T14:05:16.546Z,0.0598,-0.8332,0.0054,-0.3274,-1.5957,0.8005,-0.0049,0.0136,-0.0740,3.0538,1.4797,2.8470
2024-10-11T14:05:16.557Z,0.0451,-0.8372,-0.0002,-0.3274,-1.5957,0.8005,0.0069,0.0047,-0.0696,3.0538,1.4797,2.8470
2024-10-11T14:05:16.567Z,0.0490,-0.8254,0.0161,-0.3274,-1.5957,0.8005,0.0166,0.0004,-0.0617,3.0538,1.4797,2.8470
2024-10-11T14:05:16.577Z,0.0557,-0.8172,0.0082,-0.2690,-1.7521,0.7770,0.0269,0.0039,-0.0523,3.0719,1.4788,2.8290
2024-10-11T14:05:16.587Z,0.0549,-0.8241,0.0067,-0.2690,-1.7521,0.7770,0.0321,0.0116,-0.0475,3.0719,1.4788,2.8290
2024-10-11T14:05:16.597Z,0.0481,-0.8312,0.0396,-0.2690,-1.7521,0.7770,0.0428,0.0087,-0.0447,3.0719,1.4788,2.8290
2024-10-11T14:05:16.607Z,0.0256,-0.8367,0.0538,0.0394,-1.5591,0.3408,0.0494,0.0020,-0.0417,3.0813,1.4773,2.8194
2024-10-11T14:05:16.617Z,0.0240,-0.8442,0.0701,0.0394,-1.5591,0.3408,0.0501,0.0030,-0.0416,3.0813,1.4773,2.8194
2024-10-11T14:05:16.627Z,0.0226,-0.8450,0.1198,0.0394,-1.5591,0.3408,0.0509,0.0030,-0.0379,3.0813,1.4773,2.8194
2024-10-11T14:05:16.637Z,0.0339,-0.8487,0.1389,-0.0314,-1.4398,-0.4792,0.0444,0.0053,-0.0376,3.0878,1.4755,2.8128
2024-10-11T14:05:16.647Z,0.0308,-0.8577,0.1478,-0.0314,-1.4398,-0.4792,0.0435,-0.0013,-0.0364,3.0878,1.4755,2.8128
2024-10-11T14:05:16.657Z,0.0391,-0.8707,0.1553,-0.0314,-1.4398,-0.4792,0.0337,0.0002,-0.0349,3.0878,1.4755,2.8128
2024-10-11T14:05:16.667Z,0.0485,-0.8828,0.1609,-0.1642,-1.1041,-0.6847,0.0235,0.0034,-0.0347,3.0942,1.4742,2.8062
2024-10-11T14:05:16.677Z,0.0410,-0.9023,0.1717,-0.1642,-1.1041,-0.6847,0.0208,-0.0090,-0.0340,3.0942,1.4742,2.8062
2024-10-11T14:05:16.687Z,0.0522,-0.9126,0.1730,-0.1642,-1.1041,-0.6847,0.0072,-0.0131,-0.0330,3.0942,1.4742,2.8062
2024-10-11T14:05:16.697Z,0.0666,-0.9052,0.1626,-0.3314,-0.8837,-0.6991,-0.0053,-0.0113,-0.0316,3.1028,1.4736,2.7972
2024-10-11T14:05:16.707Z,0.0762,-0.9134,0.1521,-0.3314,-0.8837,-0.6991,-0.0175,-0.0110,-0.0298,3.1028,1.4736,2.7972
2024-10-11T14:05:16.717Z,0.0882,-0.9219,0.1390,-0.3314,-0.8837,-0.6991,-0.0275,-0.0148,-0.0333,3.1028,1.4736,2.7972
2024-10-11T14:05:16.727Z,0.0734,-0.9256,0.1270,-0.3882,-0.6837,-0.3566,-0.0350,-0.0158,-0.0361,3.1147,1.4739,2.7846
2024-10-11T14:05:16.737Z,0.0788,-0.9369,0.1241,-0.3882,-0.6837,-0.3566,-0.0471,-0.0163,-0.0372,3.1147,1.4739,2.7846
2024-10-11T14:05:16.747Z,0.0679,-0.9359,0.1361,-0.3882,-0.6837,-0.3566,-0.0583,-0.0211,-0.0413,3.1147,1.4739,2.7846
2024-10-11T14:05:16.757Z,0.0717,-0.9278,0.1339,-0.3599,-0.6632,-0.4397,-0.0615,-0.0331,-0.0432,3.1315,1.4749,2.7668
2024-10-11T14:05:16.767Z,0.0822,-0.9281,0.1236,-0.3599,-0.6632,-0.4397,-0.0653,-0.0407,-0.0421,3.1315,1.4749,2.7668
2024-10-11T14:05:16.777Z,0.1085,-0.9193,0.1380,-0.3599,-0.6632,-0.4397,-0.0705,-0.0491,-0.0397,3.1315,1.4749,2.7668
2024-10-11T14:05:16.787Z,0.1068,-0.9153,0.1417,-0.6910,-0.7870,-0.5363,-0.0763,-0.0651,-0.0355,-3.1319,1.4763,2.7454
2024-10-11T14:05:16.797Z,0.0947,-0.9215,0.1453,-0.6910,-0.7870,-0.5363,-0.0821,-0.0836,-0.0328,-3.1319,1.4763,2.7454
2024-10-11T14:05:16.807Z,0.1062,-0.9308,0.1499,-0.6910,-0.7870,-0.5363,-0.0884,-0.0969,-0.0300,-3.1319,1.4763,2.7454
2024-10-11T14:05:16.817Z,0.0968,-0.9365,0.1330,-0.5810,-0.5813,-0.4780,-0.0918,-0.1101,-0.0238,-3.1116,1.4784,2.7224
2024-10-11T14:05:16.829Z,0.0929,-0.9342,0.1294,-0.5810,-0.5813,-0.4780,-0.0954,-0.1187,-0.0189,-3.1116,1.4784,2.7224
2024-10-11T14:05:16.836Z,0.1200,-0.9326,0.1163,-0.5810,-0.5813,-0.4780,-0.0991,-0.1223,-0.0087,-3.1116,1.4784,2.7224
2024-10-11T14:05:16.847Z,0.1110,-0.9297,0.0947,-0.7138,-0.6503,-0.1322,-0.1027,-0.1167,0.0004,-3.0946,1.4809,2.7018
2024-10-11T14:05:16.857Z,0.1095,-0.9348,0.0826,-0.7138,-0.6503,-0.1322,-0.1044,-0.1202,0.0113,-3.0946,1.4809,2.7018
2024-10-11T14:05:16.866Z,0.1183,-0.9373,0.0587,-0.7138,-0.6503,-0.1322,-0.0977,-0.1196,0.0225,-3.0946,1.4809,2.7018
2024-10-11T14:05:16.877Z,0.0874,-0.9295,0.0480,-0.4851,-0.6544,0.2950,-0.0984,-0.1129,0.0266,-3.0853,1.4839,2.6888
2024-10-11T14:05:16.887Z,0.0538,-0.9312,0.0313,-0.4851,-0.6544,0.2950,-0.0926,-0.1006,0.0339,-3.0853,1.4839,2.6888
2024-10-11T14:05:16.897Z,0.0723,-0.9234,0.0318,-0.4851,-0.6544,0.2950,-0.0863,-0.0864,0.0415,-3.0853,1.4839,2.6888
2024-10-11T14:05:16.907Z,0.0635,-0.9103,0.0247,-0.2600,-0.8457,0.4964,-0.0791,-0.0709,0.0461,-3.0842,1.4867,2.6848
2024-10-11T14:05:16.917Z,0.0408,-0.9066,0.0244,-0.2600,-0.8457,0.4964,-0.0689,-0.0536,0.0535,-3.0842,1.4867,2.6848
2024-10-11T14:05:16.927Z,0.0309,-0.9047,0.0261,-0.2600,-0.8457,0.4964,-0.0601,-0.0384,0.0574,-3.0842,1.4867,2.6848
2024-10-11T14:05:16.937Z,0.0197,-0.9124,0.0304,0.1543,-0.8263,0.4220,-0.0507,-0.0275,0.0625,-3.0931,1.4892,2.6921
2024-10-11T14:05:16.947Z,0.0175,-0.9137,0.0127,0.1543,-0.8263,0.4220,-0.0347,-0.0193,0.0688,-3.0931,1.4892,2.6921
2024-10-11T14:05:16.957Z,0.0050,-0.9038,-0.0106,0.1543,-0.8263,0.4220,-0.0198,-0.0103,0.0732,-3.0931,1.4892,2.6921
2024-10-11T14:05:16.967Z,0.0093,-0.9045,-0.0079,0.2359,-0.9052,0.7904,-0.0056,-0.0019,0.0736,-3.1132,1.4907,2.7115
2024-10-11T14:05:16.978Z,0.0116,-0.9069,-0.0037,0.2359,-0.9052,0.7904,0.0105,-0.0037,0.0804,-3.1132,1.4907,2.7115
2024-10-11T14:05:16.987Z,0.0102,-0.9079,-0.0288,0.2359,-0.9052,0.7904,0.0243,0.0002,0.0812,-3.1132,1.4907,2.7115
2024-10-11T14:05:16.997Z,0.0160,-0.9065,-0.0380,0.1463,-0.8860,1.0924,0.0382,-0.0067,0.0820,3.1384,1.4911,2.7426
2024-10-11T14:05:17.007Z,0.0193,-0.9086,-0.0267,0.1463,-0.8860,1.0924,0.0519,-0.0141,0.0870,3.1384,1.4911,2.7426
2024-10-11T14:05:17.017Z,0.0276,-0.9126,-0.0223,0.1463,-0.8860,1.0924,0.0578,-0.0114,0.0868,3.1384,1.4911,2.7426
2024-10-11T14:05:17.028Z,0.0316,-0.9175,-0.0023,-0.0323,-0.7781,0.7578,0.0676,-0.0139,0.0891,3.1003,1.4905,2.7801
2024-10-11T14:05:17.037Z,0.0326,-0.9253,0.0074,-0.0323,-0.7781,0.7578,0.0695,-0.0230,0.0879,3.1003,1.4905,2.7801
2024-10-11T14:05:17.048Z,0.0280,-0.9310,0.0186,-0.0323,-0.7781,0.7578,0.0811,-0.0481,0.0869,3.1003,1.4905,2.7801
2024-10-11T14:05:17.057Z,0.0323,-0.9388,0.0347,-0.0636,-0.5683,0.4166,0.0789,-0.0368,0.0837,3.0614,1.4894,2.8180
2024-10-11T14:05:17.067Z,0.0283,-0.9502,0.0407,-0.0636,-0.5683,0.4166,0.0791,-0.0386,0.0799,3.0614,1.4894,2.8180
2024-10-11T14:05:17.077Z,0.0446,-0.9639,0.0325,-0.0636,-0.5683,0.4166,0.0836,-0.0482,0.0799,3.0614,1.4894,2.8180
2024-10-11T14:05:17.087Z,0.0504,-0.9874,0.0510,-0.2629,-0.0893,0.2800,0.0897,-0.0576,0.0819,3.0241,1.4877,2.8536
2024-10-11T14:05:17.097Z,0.0633,-1.0072,0.0610,-0.2629,-0.0893,0.2800,0.0946,-0.0606,0.0814,3.0241,1.4877,2.8536
2024-10-11T14:05:17.107Z,0.0453,-1.0266,0.0575,-0.2629,-0.0893,0.2800,0.1028,-0.0800,0.0827,3.0241,1.4877,2.8536
2024-10-11T14:05:17.117Z,0.0528,-1.0471,0.0751,-0.3091,0.4977,0.0716,0.1036,-0.0923,0.0849,2.9870,1.4856,2.8885
2024-10-11T14:05:17.128Z,0.0506,-1.0764,0.1083,-0.3091,0.4977,0.0716,0.1068,-0.1004,0.0833,2.9870,1.4856,2.8885
2024-10-11T14:05:17.137Z,0.0277,-1.1161,0.1025,-0.3091,0.4977,0.0716,0.1123,-0.1090,0.0858,2.9870,1.4856,2.8885
2024-10-11T14:05:17.147Z,0.0641,-1.1562,0.1129,-0.4411,1.5702,-0.2673,0.1136,-0.1241,0.0857,2.9497,1.4829,2.9222
2024-10-11T14:05:17.157Z,0.0562,-1.1791,0.1422,-0.4411,1.5702,-0.2673,0.1065,-0.1406,0.0807,2.9497,1.4829,2.9222
2024-10-11T14:05:17.167Z,0.0166,-1.1853,0.1709,-0.4411,1.5702,-0.2673,0.0937,-0.1554,0.0756,2.9497,1.4829,2.9222
2024-10-11T14:05:17.178Z,0.0125,-1.1844,0.1965,0.0465,1.8484,-1.0598,0.0693,-0.1734,0.0725,2.9180,1.4806,2.9491
2024-10-11T14:05:17.187Z,0.0363,-1.1871,0.1891,0.0465,1.8484,-1.0598,0.0565,-0.1870,0.0744,2.9180,1.4806,2.9491
2024-10-11T14:05:17.197Z,0.0501,-1.1929,0.1815,0.0465,1.8484,-1.0598,0.0375,-0.1915,0.0748,2.9180,1.4806,2.9491
2024-10-11T14:05:17.207Z,0.0438,-1.1883,0.1844,-0.2771,1.8882,-0.9296,0.0277,-0.1965,0.0717,2.8914,1.4797,2.9697
2024-10-11T14:05:17.217Z,-0.0026,-1.1687,0.1742,-0.2771,1.8882,-0.9296,0.0159,-0.1979,0.0651,2.8914,1.4797,2.9697
2024-10-11T14:05:17.228Z,-0.0078,-1.1454,0.2179,-0.2771,1.8882,-0.9296,0.0091,-0.2073,0.0628,2.8914,1.4797,2.9697
2024-10-11T14:05:17.237Z,0.0262,-1.1277,0.2534,-0.1173,1.2936,-1.6023,0.0069,-0.2236,0.0607,2.8696,1.4795,2.9847
2024-10-11T14:05:17.247Z,-0.0184,-1.1240,0.2653,-0.1173,1.2936,-1.6023,0.0011,-0.2321,0.0534,2.8696,1.4795,2.9847
2024-10-11T14:05:17.257Z,-0.0402,-1.1262,0.2901,-0.1173,1.2936,-1.6023,-0.0049,-0.2343,0.0481,2.8696,1.4795,2.9847
2024-10-11T14:05:17.267Z,-0.0177,-1.1369,0.2940,0.3050,1.3834,-2.0025,-0.0070,-0.2425,0.0427,2.8536,1.4798,2.9935
2024-10-11T14:05:17.279Z,-0.0279,-1.1525,0.2598,0.3050,1.3834,-2.0025,-0.0158,-0.2433,0.0392,2.8536,1.4798,2.9935
2024-10-11T14:05:17.286Z,-0.0329,-1.1608,0.2467,0.3050,1.3834,-2.0025,-0.0269,-0.2402,0.0328,2.8536,1.4798,2.9935
2024-10-11T14:05:17.297Z,-0.0488,-1.1792,0.2450,0.6075,1.7975,-1.5296,-0.0387,-0.2421,0.0265,2.8440,1.4807,2.9957
2024-10-11T14:05:17.307Z,-0.0546,-1.2058,0.2627,0.6075,1.7975,-1.5296,-0.0482,-0.2427,0.0175,2.8440,1.4807,2.9957
2024-10-11T14:05:17.317Z,-0.0534,-1.2442,0.2254,0.6075,1.7975,-1.5296,-0.0510,-0.2277,0.0104,2.8440,1.4807,2.9957
2024-10-11T14:05:17.327Z,-0.0365,-1.2806,0.1881,0.4881,2.7916,-0.9865,-0.0507,-0.2178,0.0083,2.8418,1.4822,2.9908
2024-10-11T14:05:17.337Z,-0.0384,-1.3069,0.1464,0.4881,2.7916,-0.9865,-0.0473,-0.2057,-0.0010,2.8418,1.4822,2.9908
2024-10-11T14:05:17.347Z,-0.0640,-1.3339,0.1429,0.4881,2.7916,-0.9865,-0.0398,-0.1990,-0.0143,2.8418,1.4822,2.9908
2024-10-11T14:05:17.356Z,-0.0769,-1.3670,0.1148,0.8931,3.6379,-0.2793,-0.0234,-0.1852,-0.0247,2.8472,1.4832,2.9792
2024-10-11T14:05:17.367Z,-0.0657,-1.4130,0.0564,0.8931,3.6379,-0.2793,-0.0067,-0.1690,-0.0350,2.8472,1.4832,2.9792
2024-10-11T14:05:17.377Z,-0.0655,-1.4390,0.0544,0.8931,3.6379,-0.2793,0.0090,-0.1585,-0.0474,2.8472,1.4832,2.9792
2024-10-11T14:05:17.387Z,-0.0777,-1.4613,0.0602,0.9181,4.5635,0.2587,0.0302,-0.1559,-0.0541,2.8607,1.4827,2.9602
2024-10-11T14:05:17.397Z,-0.0597,-1.4959,0.0424,0.9181,4.5635,0.2587,0.0515,-0.1493,-0.0636,2.8607,1.4827,2.9602
2024-10-11T14:05:17.407Z,-0.0573,-1.5079,0.0524,0.9181,4.5635,0.2587,0.0665,-0.1441,-0.0680,2.8607,1.4827,2.9602
2024-10-11T14:05:17.417Z,-0.0405,-1.5017,0.0720,0.5753,4.9615,0.1619,0.0816,-0.1369,-0.0664,2.8774,1.4803,2.9389
2024-10-11T14:05:17.427Z,-0.0404,-1.5092,0.0938,0.5753,4.9615,0.1619,0.0971,-0.1384,-0.0707,2.8774,1.4803,2.9389
2024-10-11T14:05:17.437Z,-0.0372,-1.5253,0.1313,0.5753,4.9615,0.1619,0.1020,-0.1260,-0.0718,2.8774,1.4803,2.9389
2024-10-11T14:05:17.447Z,-0.0265,-1.5627,0.1607,0.4628,5.5636,-0.6789,0.1116,-0.1217,-0.0695,2.8930,1.4769,2.9194
2024-10-11T14:05:17.457Z,-0.0320,-1.6083,0.1962,0.4628,5.5636,-0.6789,0.1162,-0.1127,-0.0735,2.8930,1.4769,2.9194
2024-10-11T14:05:17.467Z,-0.0405,-1.6412,0.2381,0.4628,5.5636,-0.6789,0.1171,-0.1007,-0.0745,2.8930,1.4769,2.9194
2024-10-11T14:05:17.477Z,-0.0288,-1.6792,0.2793,0.5094,6.7098,-1.8082,0.1230,-0.0907,-0.0748,2.9069,1.4729,2.9023
2024-10-11T14:05:17.487Z,-0.0242,-1.7325,0.2762,0.5094,6.7098,-1.8082,0.1361,-0.0757,-0.0773,2.9069,1.4729,2.9023
2024-10-11T14:05:17.496Z,-0.0338,-1.7886,0.2804,0.5094,6.7098,-1.8082,0.1514,-0.0600,-0.0799,2.9069,1.4729,2.9023
2024-10-11T14:05:17.507Z,-0.0415,-1.8385,0.3191,0.6585,8.2777,-2.1563,0.1677,-0.0433,-0.0848,2.9183,1.4680,2.8888
2024-10-11T14:05:17.517Z,-0.0336,-1.8712,0.3503,0.6585,8.2777,-2.1563,0.1901,-0.0383,-0.0807,2.9183,1.4680,2.8888
2024-10-11T14:05:17.527Z,-0.0115,-1.9049,0.3852,0.6585,8.2777,-2.1563,0.2030,-0.0294,-0.0813,2.9183,1.4680,2.8888
2024-10-11T14:05:17.537Z,-0.0169,-1.9017,0.4170,0.4420,8.9036,-3.0585,0.2127,-0.0404,-0.0810,2.9256,1.4617,2.8801
2024-10-11T14:05:17.546Z,0.0039,-1.8787,0.4200,0.4420,8.9036,-3.0585,0.2039,-0.0632,-0.0736,2.9256,1.4617,2.8801
2024-10-11T14:05:17.557Z,0.0230,-1.8218,0.4618,0.4420,8.9036,-3.0585,0.1895,-0.0909,-0.0685,2.9256,1.4617,2.8801
2024-10-11T14:05:17.567Z,0.0252,-1.7162,0.4955,0.0526,7.0913,-3.7747,0.1514,-0.1046,-0.0648,2.9304,1.4557,2.8727
2024-10-11T14:05:17.577Z,0.0232,-1.5877,0.5427,0.0526,7.0913,-3.7747,0.0966,-0.1190,-0.0663,2.9304,1.4557,2.8727
2024-10-11T14:05:17.587Z,-0.0171,-1.4227,0.5772,0.0526,7.0913,-3.7747,0.0297,-0.1159,-0.0736,2.9304,1.4557,2.8727
2024-10-11T14:05:17.596Z,-0.0290,-1.2409,0.5892,0.6094,2.4303,-4.6809,-0.0385,-0.1006,-0.0883,2.9457,1.4537,2.8541
2024-10-11T14:05:17.607Z,-0.0272,-1.1294,0.5466,0.6094,2.4303,-4.6809,-0.1055,-0.0830,-0.0999,2.9457,1.4537,2.8541
2024-10-11T14:05:17.617Z,-0.0070,-1.0873,0.4376,0.6094,2.4303,-4.6809,-0.1583,-0.0671,-0.1126,2.9457,1.4537,2.8541
2024-10-11T14:05:17.626Z,0.0454,-1.0937,0.3112,-0.0876,0.9827,-1.9961,-0.1898,-0.0471,-0.1074,2.9831,1.4568,2.8149
2024-10-11T14:05:17.637Z,0.0988,-1.1021,0.2042,-0.0876,0.9827,-1.9961,-0.2261,-0.0414,-0.1026,2.9831,1.4568,2.8149
2024-10-11T14:05:17.646Z,0.0984,-1.0593,0.1765,-0.0876,0.9827,-1.9961,-0.2447,-0.0527,-0.0947,2.9831,1.4568,2.8149
2024-10-11T14:05:17.657Z,0.0722,-0.9772,0.1232,-0.3208,-0.1664,-0.2212,-0.2589,-0.0533,-0.0845,3.0282,1.4625,2.7680
2024-10-11T14:05:17.667Z,0.0352,-0.8489,0.1080,-0.3208,-0.1664,-0.2212,-0.2732,-0.0546,-0.0855,3.0282,1.4625,2.7680
2024-10-11T14:05:17.677Z,0.0487,-0.7510,0.0814,-0.3208,-0.1664,-0.2212,-0.2751,-0.0432,-0.0833,3.0282,1.4625,2.7680
2024-10-11T14:05:17.687Z,0.0625,-0.7309,0.0522,-0.2012,-2.5888,0.3959,-0.2602,-0.0395,-0.0753,3.0795,1.4689,2.7155
2024-10-11T14:05:17.697Z,0.0930,-0.7834,-0.0141,-0.2012,-2.5888,0.3959,-0.2346,-0.0362,-0.0596,3.0795,1.4689,2.7155
2024-10-11T14:05:17.707Z,0.1169,-0.8407,-0.0659,-0.2012,-2.5888,0.3959,-0.1963,-0.0376,-0.0423,3.0795,1.4689,2.7155
2024-10-11T14:05:17.717Z,0.1127,-0.8847,-0.1052,-0.6785,-1.0855,1.8795,-0.1614,-0.0398,-0.0265,3.1190,1.4739,2.6748
2024-10-11T14:05:17.727Z,0.0882,-0.9036,-0.1118,-0.6785,-1.0855,1.8795,-0.1432,-0.0210,-0.0210,3.1190,1.4739,2.6748
2024-10-11T14:05:17.737Z,0.1124,-0.8978,-0.0534,-0.6785,-1.0855,1.8795,-0.1121,-0.0129,-0.0026,3.1190,1.4739,2.6748
2024-10-11T14:05:17.746Z,0.1044,-0.8719,-0.1017,-0.5951,-1.2131,1.8121,-0.0904,0.0024,0.0014,3.1354,1.4769,2.6570
2024-10-11T14:05:17.757Z,0.0477,-0.8669,-0.0859,-0.5951,-1.2131,1.8121,-0.0767,0.0063,0.0015,3.1354,1.4769,2.6570
2024-10-11T14:05:17.767Z,0.0532,-0.8465,-0.0823,-0.5951,-1.2131,1.8121,-0.0721,0.0165,0.0043,3.1354,1.4769,2.6570
2024-10-11T14:05:17.777Z,0.0700,-0.8446,-0.0673,-0.2609,-1.4829,1.4550,-0.0573,0.0460,0.0085,-3.1402,1.4787,2.6495
2024-10-11T14:05:17.787Z,0.0972,-0.8543,-0.1154,-0.2609,-1.4829,1.4550,-0.0463,0.0391,0.0197,-3.1402,1.4787,2.6495
2024-10-11T14:05:17.796Z,0.1052,-0.8666,-0.1165,-0.2609,-1.4829,1.4550,-0.0359,0.0498,0.0217,-3.1402,1.4787,2.6495
2024-10-11T14:05:17.807Z,0.0822,-0.8570,-0.1246,-0.3882,-1.3627,2.0069,-0.0284,0.0645,0.0309,-3.1412,1.4800,2.6515
2024-10-11T14:05:17.817Z,0.0724,-0.8446,-0.1178,-0.3882,-1.3627,2.0069,-0.0227,0.0560,0.0364,-3.1412,1.4800,2.6515
2024-10-11T14:05:17.827Z,0.0565,-0.8103,-0.0956,-0.3882,-1.3627,2.0069,-0.0252,0.0597,0.0384,-3.1412,1.4800,2.6515
2024-10-11T14:05:17.837Z,0.0259,-0.7972,-0.0676,0.1514,-1.9497,1.4416,-0.0213,0.0672,0.0410,3.1337,1.4812,2.6612
2024-10-11T14:05:17.846Z,0.0585,-0.8015,-0.0502,0.1514,-1.9497,1.4416,-0.0202,0.0649,0.0506,3.1337,1.4812,2.6612
2024-10-11T14:05:17.857Z,0.0693,-0.8074,-0.0430,0.1514,-1.9497,1.4416,-0.0109,0.0791,0.0617,3.1337,1.4812,2.6612
2024-10-11T14:05:17.867Z,0.0517,-0.7995,-0.0612,-0.1207,-1.9282,1.3763,-0.0008,0.0820,0.0690,3.1168,1.4823,2.6796
2024-10-11T14:05:17.877Z,0.0601,-0.7798,-0.0455,-0.1207,-1.9282,1.3763,0.0087,0.0821,0.0845,3.1168,1.4823,2.6796
2024-10-11T14:05:17.887Z,0.0715,-0.7567,-0.0473,-0.1207,-1.9282,1.3763,0.0210,0.0924,0.0942,3.1168,1.4823,2.6796
2024-10-11T14:05:17.897Z,0.0492,-0.7420,-0.0393,-0.1244,-2.4934,1.1678,0.0297,0.0979,0.0970,3.0868,1.4830,2.7119
2024-10-11T14:05:17.907Z,0.0249,-0.7323,-0.0435,-0.1244,-2.4934,1.1678,0.0427,0.1013,0.1010,3.0868,1.4830,2.7119
2024-10-11T14:05:17.917Z,0.0094,-0.7330,-0.0461,-0.1244,-2.4934,1.1678,0.0558,0.1101,0.1019,3.0868,1.4830,2.7119
2024-10-11T14:05:17.927Z,0.0249,-0.7288,-0.0441,0.0820,-2.6223,1.2312,0.0676,0.1095,0.1101,3.0474,1.4828,2.7541
2024-10-11T14:05:17.937Z,0.0547,-0.7157,-0.0422,0.0820,-2.6223,1.2312,0.0757,0.1202,0.1114,3.0474,1.4828,2.7541
2024-10-11T14:05:17.947Z,0.0343,-0.6877,-0.0616,0.0820,-2.6223,1.2312,0.0791,0.1247,0.1119,3.0474,1.4828,2.7541
2024-10-11T14:05:17.957Z,0.0240,-0.6668,-0.0662,0.0554,-3.2297,1.4726,0.0877,0.1343,0.1129,3.0019,1.4817,2.8026
2024-10-11T14:05:17.967Z,0.0288,-0.6633,-0.0718,0.0554,-3.2297,1.4726,0.0988,0.1414,0.1142,3.0019,1.4817,2.8026
2024-10-11T14:05:17.978Z,0.0261,-0.6740,-0.0891,0.0554,-3.2297,1.4726,0.1159,0.1603,0.1067,3.0019,1.4817,2.8026
2024-10-11T14:05:17.987Z,0.0126,-0.6828,-0.0842,0.1300,-3.0710,1.6824,0.1159,0.1603,0.1067,2.9547,1.4797,2.8536
2024-10-11T14:05:17.997Z,0.0113,-0.7014,-0.0592,0.1300,-3.0710,1.6824,0.1192,0.1692,0.1044,2.9547,1.4797,2.8536
2024-10-11T14:05:18.008Z,0.0209,-0.7206,-0.0162,0.1300,-3.0710,1.6824,0.1210,0.1938,0.0989,2.9547,1.4797,2.8536
2024-10-11T14:05:18.017Z,0.0211,-0.7374,0.0137,0.0123,-2.5330,0.7587,0.1210,0.1938,0.0989,2.9116,1.4769,2.9013
2024-10-11T14:05:18.028Z,-0.0042,-0.7456,0.0520,0.0123,-2.5330,0.7587,0.1140,0.1925,0.0885,2.9116,1.4769,2.9013
2024-10-11T14:05:18.037Z,-0.0205,-0.7463,0.0848,0.0123,-2.5330,0.7587,0.1140,0.1925,0.0885,2.9116,1.4769,2.9013
2024-10-11T14:05:18.048Z,-0.0203,-0.7437,0.1091,0.3863,-2.4681,-0.1418,0.1085,0.1751,0.0730,2.8758,1.4741,2.9422
2024-10-11T14:05:18.058Z,-0.0125,-0.7350,0.1376,0.3863,-2.4681,-0.1418,0.1038,0.1561,0.0693,2.8758,1.4741,2.9422
2024-10-11T14:05:18.068Z,-0.0150,-0.7262,0.1595,0.3863,-2.4681,-0.1418,0.1001,0.1375,0.0663,2.8758,1.4741,2.9422
2024-10-11T14:05:18.077Z,-0.0178,-0.7276,0.1915,0.3374,-2.6243,-0.9189,0.0975,0.1194,0.0680,2.8483,1.4714,2.9740
2024-10-11T14:05:18.087Z,-0.0009,-0.7448,0.2206,0.3374,-2.6243,-0.9189,0.0985,0.0929,0.0663,2.8483,1.4714,2.9740
2024-10-11T14:05:18.098Z,0.0168,-0.7692,0.2265,0.3374,-2.6243,-0.9189,0.1019,0.0758,0.0621,2.8483,1.4714,2.9740
2024-10-11T14:05:18.107Z,-0.0028,-0.7870,0.2159,0.1674,-2.0380,-1.1284,0.0972,0.0760,0.0587,2.8243,1.4688,3.0008
2024-10-11T14:05:18.117Z,-0.0368,-0.7981,0.2198,0.1674,-2.0380,-1.1284,0.0848,0.0746,0.0509,2.8243,1.4688,3.0008
2024-10-11T14:05:18.127Z,-0.0255,-0.7910,0.2186,0.1674,-2.0380,-1.1284,0.0658,0.0953,0.0505,2.8243,1.4688,3.0008
2024-10-11T14:05:18.138Z,-0.0294,-0.7837,0.2465,0.4103,-2.0681,-1.4018,0.0557,0.0544,0.0429,2.8042,1.4663,3.0223
2024-10-11T14:05:18.146Z,-0.0284,-0.7788,0.2432,0.4103,-2.0681,-1.4018,0.0557,0.0544,0.0429,2.8042,1.4663,3.0223
2024-10-11T14:05:18.157Z,-0.0956,-0.7614,0.2384,0.4103,-2.0681,-1.4018,0.0226,0.0484,0.0258,2.8042,1.4663,3.0223
2024-10-11T14:05:18.168Z,-0.0606,-0.7471,0.2190,0.7042,-2.4260,-1.1193,0.0016,0.0455,0.0205,2.7928,1.4651,3.0350
2024-10-11T14:05:18.177Z,-0.0582,-0.7456,0.1959,0.7042,-2.4260,-1.1193,-0.0162,0.0514,0.0170,2.7928,1.4651,3.0350
2024-10-11T14:05:18.188Z,-0.0275,-0.7547,0.1987,0.7042,-2.4260,-1.1193,-0.0289,0.0429,0.0132,2.7928,1.4651,3.0350
2024-10-11T14:05:18.198Z,-0.0101,-0.7831,0.1670,0.2028,-2.0733,-0.6115,-0.0310,0.0300,0.0096,2.7882,1.4654,3.0410
2024-10-11T14:05:18.207Z,-0.0327,-0.7995,0.1216,0.2028,-2.0733,-0.6115,-0.0335,0.0202,0.0100,2.7882,1.4654,3.0410
2024-10-11T14:05:18.218Z,-0.0070,-0.7962,0.0971,0.2028,-2.0733,-0.6115,-0.0319,0.0095,0.0124,2.7882,1.4654,3.0410
2024-10-11T14:05:18.227Z,0.0179,-0.7765,0.0778,-0.0758,-2.1391,0.2539,-0.0226,0.0041,0.0089,2.7860,1.4665,3.0441
2024-10-11T14:05:18.237Z,-0.0131,-0.7466,0.0356,-0.0758,-2.1391,0.2539,-0.0055,0.0044,0.0120,2.7860,1.4665,3.0441
2024-10-11T14:05:18.248Z,-0.0182,-0.7064,-0.0455,-0.0758,-2.1391,0.2539,0.0195,0.0101,0.0158,2.7860,1.4665,3.0441
2024-10-11T14:05:18.257Z,0.0294,-0.6674,-0.1137,-0.1929,-3.2099,2.1304,0.0468,0.0248,0.0209,2.7827,1.4667,3.0474
2024-10-11T14:05:18.268Z,0.0413,-0.6453,-0.1829,-0.1929,-3.2099,2.1304,0.0758,0.0330,0.0271,2.7827,1.4667,3.0474
2024-10-11T14:05:18.277Z,0.0376,-0.6252,-0.2102,-0.1929,-3.2099,2.1304,0.0956,0.0489,0.0265,2.7827,1.4667,3.0474
2024-10-11T14:05:18.287Z,0.0274,-0.5986,-0.2234,-0.1814,-3.8828,3.2283,0.1177,0.0601,0.0292,2.7732,1.4645,3.0576
2024-10-11T14:05:18.296Z,0.0221,-0.5901,-0.1947,-0.1814,-3.8828,3.2283,0.1177,0.0601,0.0292,2.7732,1.4645,3.0576
2024-10-11T14:05:18.307Z,0.0197,-0.6021,-0.1630,-0.1814,-3.8828,3.2283,0.1546,0.0643,0.0287,2.7732,1.4645,3.0576
2024-10-11T14:05:18.316Z,0.0209,-0.6216,-0.1582,-0.1282,-3.6528,2.6283,0.1546,0.0643,0.0287,2.7621,1.4606,3.0703
2024-10-11T14:05:18.327Z,-0.0073,-0.6395,-0.1349,-0.1282,-3.6528,2.6283,0.1802,0.0771,0.0159,2.7621,1.4606,3.0703
2024-10-11T14:05:18.337Z,-0.0172,-0.6483,-0.0882,-0.1282,-3.6528,2.6283,0.1838,0.0844,0.0113,2.7621,1.4606,3.0703
2024-10-11T14:05:18.348Z,-0.0098,-0.6496,-0.0608,0.1654,-3.3720,1.7236,0.1838,0.0844,0.0113,2.7541,1.4554,3.0804
2024-10-11T14:05:18.357Z,-0.0146,-0.6557,-0.0278,0.1654,-3.3720,1.7236,0.1770,0.1088,-0.0006,2.7541,1.4554,3.0804
2024-10-11T14:05:18.367Z,-0.0202,-0.6630,0.0124,0.1654,-3.3720,1.7236,0.1671,0.1198,-0.0095,2.7541,1.4554,3.0804
2024-10-11T14:05:18.377Z,-0.0118,-0.6789,0.0452,0.1813,-3.0789,0.7366,0.1515,0.1239,-0.0177,2.7515,1.4501,3.0858
2024-10-11T14:05:18.387Z,-0.0257,-0.7014,0.0914,0.1813,-3.0789,0.7366,0.1361,0.1272,-0.0249,2.7515,1.4501,3.0858
2024-10-11T14:05:18.398Z,-0.0354,-0.7265,0.1277,0.3916,-2.4898,-0.4254,0.1361,0.1272,-0.0249,2.7550,1.4459,3.0857
2024-10-11T14:05:18.407Z,-0.0330,-0.7384,0.1678,0.3916,-2.4898,-0.4254,0.0883,0.1167,-0.0372,2.7550,1.4459,3.0857
2024-10-11T14:05:18.417Z,-0.0386,-0.7494,0.2111,0.3916,-2.4898,-0.4254,0.0670,0.0942,-0.0411,2.7550,1.4459,3.0857
2024-10-11T14:05:18.427Z,-0.0104,-0.7689,0.2576,0.3916,-2.4898,-0.4254,0.0443,0.0794,-0.0538,2.7550,1.4459,3.0857
2024-10-11T14:05:18.437Z,-0.0188,-0.7901,0.2790,0.2615,-1.9795,-1.4955,0.0164,0.0626,-0.0632,2.7638,1.4437,3.0799
2024-10-11T14:05:18.448Z,-0.0411,-0.7997,0.3091,0.2615,-1.9795,-1.4955,-0.0193,0.0528,-0.0698,2.7638,1.4437,3.0799
2024-10-11T14:05:18.457Z,-0.0353,-0.8001,0.3442,0.2615,-1.9795,-1.4955,-0.0455,0.0400,-0.0767,2.7638,1.4437,3.0799
2024-10-11T14:05:18.467Z,-0.0078,-0.7968,0.3814,0.1710,-1.9144,-2.5027,-0.0839,0.0400,-0.0763,2.7797,1.4438,3.0655
2024-10-11T14:05:18.477Z,0.0280,-0.7949,0.3795,0.1710,-1.9144,-2.5027,-0.1141,0.0357,-0.0813,2.7797,1.4438,3.0655
2024-10-11T14:05:18.487Z,0.0264,-0.8043,0.3887,0.1710,-1.9144,-2.5027,-0.1435,0.0345,-0.0829,2.7797,1.4438,3.0655
2024-10-11T14:05:18.497Z,0.0096,-0.8188,0.3832,0.0224,-1.7015,-2.5493,-0.1435,0.0345,-0.0829,2.8003,1.4466,3.0456
2024-10-11T14:05:18.508Z,0.0092,-0.8430,0.3878,0.0224,-1.7015,-2.5493,-0.2102,0.0179,-0.0868,2.8003,1.4466,3.0456
2024-10-11T14:05:18.518Z,0.0092,-0.8430,0.3878,-0.1170,-1.4523,-2.4521,-0.2404,-0.0017,-0.0962,2.8281,1.4523,3.0184
2024-10-11T14:05:18.527Z,0.0080,-0.8324,0.3759,-0.1170,-1.4523,-2.4521,-0.2692,-0.0110,-0.1022,2.8281,1.4523,3.0184
2024-10-11T14:05:18.537Z,0.0015,-0.8216,0.2635,-0.1170,-1.4523,-2.4521,-0.2933,-0.0142,-0.1071,2.8281,1.4523,3.0184
2024-10-11T14:05:18.548Z,0.0015,-0.8216,0.2635,0.0868,-1.7562,-1.0506,-0.2933,-0.0142,-0.1071,2.8652,1.4602,2.9807
2024-10-11T14:05:18.557Z,0.0088,-0.8149,0.2160,0.0868,-1.7562,-1.0506,-0.3175,-0.0575,-0.1107,2.8652,1.4602,2.9807
2024-10-11T14:05:18.567Z,0.0303,-0.7938,0.1939,0.0868,-1.7562,-1.0506,-0.3217,-0.0910,-0.1146,2.8652,1.4602,2.9807
2024-10-11T14:05:18.578Z,0.0185,-0.7887,0.1803,0.0904,-2.0930,-0.5764,-0.3197,-0.1138,-0.1177,2.9119,1.4688,2.9307
2024-10-11T14:05:18.587Z,0.0121,-0.7814,0.1584,0.0904,-2.0930,-0.5764,-0.3095,-0.1341,-0.1169,2.9119,1.4688,2.9307
2024-10-11T14:05:18.598Z,-0.0101,-0.7764,0.1123,0.0904,-2.0930,-0.5764,-0.2963,-0.1498,-0.1236,2.9119,1.4688,2.9307
2024-10-11T14:05:18.608Z,-0.0089,-0.7800,0.0647,0.2547,-2.1371,0.6315,-0.2802,-0.1507,-0.1243,2.9688,1.4766,2.8695
2024-10-11T14:05:18.617Z,-0.0007,-0.7777,0.0263,0.2547,-2.1371,0.6315,-0.2670,-0.1483,-0.1204,2.9688,1.4766,2.8695
2024-10-11T14:05:18.627Z,0.0249,-0.7681,0.0214,0.2547,-2.1371,0.6315,-0.2544,-0.1509,-0.1167,2.9688,1.4766,2.8695
2024-10-11T14:05:18.638Z,0.0249,-0.7681,0.0214,0.1332,-2.2540,0.3594,-0.2503,-0.1345,-0.1163,3.0321,1.4829,2.8022
2024-10-11T14:05:18.648Z,0.0156,-0.7664,0.0461,0.1332,-2.2540,0.3594,-0.2507,-0.1236,-0.1144,3.0321,1.4829,2.8022
2024-10-11T14:05:18.657Z,0.0046,-0.7861,0.0768,0.1332,-2.2540,0.3594,-0.2458,-0.0885,-0.1145,3.0321,1.4829,2.8022
2024-10-11T14:05:18.668Z,0.0046,-0.7861,0.0768,-0.0689,-2.0212,0.4737,-0.2255,-0.1022,-0.1154,3.1007,1.4883,2.7301
2024-10-11T14:05:18.676Z,0.0400,-0.7906,0.0273,-0.0689,-2.0212,0.4737,-0.2252,-0.0798,-0.1153,3.1007,1.4883,2.7301
2024-10-11T14:05:18.687Z,0.0062,-0.7920,-0.0277,-0.0689,-2.0212,0.4737,-0.2126,-0.0703,-0.1159,3.1007,1.4883,2.7301
2024-10-11T14:05:18.700Z,0.0062,-0.7920,-0.0277,-0.0167,-1.9897,1.0096,-0.2044,-0.0593,-0.1078,-3.1094,1.4927,2.6549
2024-10-11T14:05:18.707Z,0.0586,-0.7885,-0.0187,-0.0167,-1.9897,1.0096,-0.1923,-0.0632,-0.1043,-3.1094,1.4927,2.6549
2024-10-11T14:05:18.717Z,0.0576,-0.7955,-0.0755,-0.0167,-1.9897,1.0096,-0.1851,-0.0552,-0.0989,-3.1094,1.4927,2.6549
2024-10-11T14:05:18.728Z,0.0576,-0.7955,-0.0755,-0.4368,-2.0123,1.3209,-0.1731,-0.0517,-0.0894,-3.0387,1.4961,2.5828
2024-10-11T14:05:18.737Z,0.0735,-0.7675,-0.0724,-0.4368,-2.0123,1.3209,-0.1523,-0.0548,-0.0845,-3.0387,1.4961,2.5828
2024-10-11T14:05:18.747Z,0.0735,-0.7675,-0.0724,-0.4368,-2.0123,1.3209,-0.1522,-0.0425,-0.0771,-3.0387,1.4961,2.5828
2024-10-11T14:05:18.757Z,0.0694,-0.7502,-0.0637,-0.3665,-2.6911,1.3797,-0.1447,-0.0275,-0.0630,-2.9784,1.4986,2.5211
2024-10-11T14:05:18.767Z,0.0793,-0.7231,-0.0820,-0.3665,-2.6911,1.3797,-0.1307,-0.0026,-0.0513,-2.9784,1.4986,2.5211
2024-10-11T14:05:18.777Z,0.1206,-0.7255,-0.1177,-0.3665,-2.6911,1.3797,-0.1147,0.0055,-0.0372,-2.9784,1.4986,2.5211
2024-10-11T14:05:18.788Z,0.1206,-0.7255,-0.1177,-0.7548,-2.4688,1.7436,-0.1037,0.0257,-0.0198,-2.9362,1.5007,2.4783
2024-10-11T14:05:18.797Z,0.1201,-0.7459,-0.1225,-0.7548,-2.4688,1.7436,-0.0867,0.0319,-0.0058,-2.9362,1.5007,2.4783
2024-10-11T14:05:18.807Z,0.1263,-0.7885,-0.1510,-0.7548,-2.4688,1.7436,-0.0734,0.0433,0.0012,-2.9362,1.5007,2.4783
2024-10-11T14:05:18.818Z,0.1263,-0.7885,-0.1510,-0.3779,-1.9350,1.9402,-0.0591,0.0395,0.0100,-2.9164,1.5025,2.4592
2024-10-11T14:05:18.827Z,0.0844,-0.8244,-0.1330,-0.3779,-1.9350,1.9402,-0.0483,0.0423,0.0159,-2.9164,1.5025,2.4592
2024-10-11T14:05:18.837Z,0.1136,-0.8515,-0.1386,-0.3779,-1.9350,1.9402,-0.0333,0.0376,0.0273,-2.9164,1.5025,2.4592
2024-10-11T14:05:18.848Z,0.1136,-0.8515,-0.1386,-0.6603,-1.2333,1.8406,-0.0211,0.0436,0.0382,-2.9151,1.5038,2.4589
2024-10-11T14:05:18.857Z,0.1290,-0.8681,-0.1410,-0.6603,-1.2333,1.8406,-0.0129,0.0447,0.0491,-2.9151,1.5038,2.4589
2024-10-11T14:05:18.867Z,0.1013,-0.8721,-0.1490,-0.6603,-1.2333,1.8406,-0.0027,0.0472,0.0569,-2.9151,1.5038,2.4589
2024-10-11T14:05:18.877Z,0.1013,-0.8721,-0.1490,-0.4425,-1.2460,2.1907,0.0078,0.0522,0.0612,-2.9331,1.5049,2.4780
2024-10-11T14:05:18.887Z,0.0946,-0.8693,-0.2014,-0.4425,-1.2460,2.1907,0.0191,0.0554,0.0718,-2.9331,1.5049,2.4780
2024-10-11T14:05:18.898Z,0.1181,-0.8825,-0.2174,-0.4425,-1.2460,2.1907,0.0313,0.0572,0.0845,-2.9331,1.5049,2.4780
2024-10-11T14:05:18.907Z,0.1181,-0.8825,-0.2174,-0.8052,-1.0089,2.7409,0.0440,0.0525,0.0972,-2.9713,1.5057,2.5175
2024-10-11T14:05:18.916Z,0.1201,-0.8950,-0.2266,-0.8052,-1.0089,2.7409,0.0519,0.0633,0.1078,-2.9713,1.5057,2.5175
2024-10-11T14:05:18.927Z,0.1027,-0.9078,-0.1433,-0.8052,-1.0089,2.7409,0.0619,0.0708,0.1189,-2.9713,1.5057,2.5175
2024-10-11T14:05:18.937Z,0.1027,-0.9078,-0.1433,-0.5695,-0.7120,1.4290,0.0754,0.0771,0.1226,-3.0318,1.5061,2.5795
2024-10-11T14:05:18.948Z,0.0655,-0.9418,-0.0429,-0.5695,-0.7120,1.4290,0.0954,0.0870,0.1269,-3.0318,1.5061,2.5795
2024-10-11T14:05:18.957Z,0.0618,-0.9538,-0.0290,-0.5695,-0.7120,1.4290,0.1162,0.0919,0.1268,-3.0318,1.5061,2.5795
2024-10-11T14:05:18.968Z,0.0618,-0.9538,-0.0290,-0.2573,-0.5678,0.6803,0.1264,0.0983,0.1244,-3.1066,1.5052,2.6566
2024-10-11T14:05:18.977Z,0.0249,-0.9215,0.0706,-0.2573,-0.5678,0.6803,0.1364,0.0921,0.1218,-3.1066,1.5052,2.6566
2024-10-11T14:05:18.987Z,0.0392,-0.9301,0.1654,-0.2573,-0.5678,0.6803,0.1340,0.0845,0.1187,-3.1066,1.5052,2.6566
2024-10-11T14:05:18.998Z,0.0392,-0.9301,0.1654,-0.0636,-0.1268,-1.4936,0.1260,0.0685,0.1178,3.1018,1.5032,2.7335
2024-10-11T14:05:19.007Z,0.0316,-1.0971,0.2350,-0.0636,-0.1268,-1.4936,0.1246,0.0513,0.1192,3.1018,1.5032,2.7335
2024-10-11T14:05:19.017Z,0.0452,-1.2330,0.2253,-0.0636,-0.1268,-1.4936,0.1388,0.0190,0.1180,3.1018,1.5032,2.7335
2024-10-11T14:05:19.027Z,0.0578,-1.3784,0.1614,-0.3387,3.7367,-0.9351,0.1388,0.0190,0.1180,3.0321,1.5007,2.8036
2024-10-11T14:05:19.037Z,0.0257,-1.4991,0.1138,-0.3387,3.7367,-0.9351,0.1627,-0.0053,0.1161,3.0321,1.5007,2.8036
2024-10-11T14:05:19.048Z,0.0342,-1.5719,0.0976,-0.3387,3.7367,-0.9351,0.1775,-0.0137,0.1134,3.0321,1.5007,2.8036
2024-10-11T14:05:19.057Z,0.0342,-1.5719,0.0976,-0.1220,6.2277,-0.5207,0.1744,-0.0155,0.1095,2.9654,1.4968,2.8695
2024-10-11T14:05:19.067Z,0.0387,-1.7275,0.1919,-0.1220,6.2277,-0.5207,0.1858,-0.0275,0.1059,2.9654,1.4968,2.8695
2024-10-11T14:05:19.077Z,0.0373,-1.8377,0.1921,-0.1220,6.2277,-0.5207,0.2082,-0.0572,0.1069,2.9654,1.4968,2.8695
2024-10-11T14:05:19.087Z,0.0373,-1.8377,0.1921,-0.1377,9.0487,-0.5821,0.2354,-0.0807,0.1097,2.9057,1.4916,2.9273
2024-10-11T14:05:19.098Z,0.0455,-1.9820,0.1404,-0.1377,9.0487,-0.5821,0.2716,-0.1061,0.1101,2.9057,1.4916,2.9273
2024-10-11T14:05:19.107Z,0.0588,-1.9554,0.1762,-0.1377,9.0487,-0.5821,0.2939,-0.1125,0.1129,2.9057,1.4916,2.9273
2024-10-11T14:05:19.117Z,0.0447,-1.8033,0.2132,-0.3034,7.9170,-1.2499,0.2939,-0.1125,0.1129,2.8464,1.4839,2.9824
2024-10-11T14:05:19.127Z,-0.0003,-1.5934,0.3187,-0.3034,7.9170,-1.2499,0.3065,-0.1411,0.0974,2.8464,1.4839,2.9824
2024-10-11T14:05:19.137Z,-0.0972,-1.3385,0.4285,-0.3034,7.9170,-1.2499,0.2820,-0.1553,0.0630,2.8464,1.4839,2.9824
2024-10-11T14:05:19.149Z,-0.0972,-1.3385,0.4285,1.7212,1.5441,-3.5971,0.2497,-0.1630,0.0431,2.8093,1.4758,3.0148
2024-10-11T14:05:19.156Z,-0.0591,-1.1004,0.4596,1.7212,1.5441,-3.5971,0.2220,-0.2043,0.0423,2.8093,1.4758,3.0148
2024-10-11T14:05:19.167Z,0.0224,-1.2391,0.3718,1.7212,1.5441,-3.5971,0.2080,-0.2367,0.0465,2.8093,1.4758,3.0148
2024-10-11T14:05:19.177Z,-0.0163,-1.4668,0.2143,0.2711,4.6294,-1.1163,0.2030,-0.2619,0.0479,2.7878,1.4695,3.0291
2024-10-11T14:05:19.187Z,0.0046,-1.6967,0.1309,0.2711,4.6294,-1.1163,0.2103,-0.3014,0.0506,2.7878,1.4695,3.0291
2024-10-11T14:05:19.198Z,-0.0044,-1.8904,0.0580,0.2711,4.6294,-1.1163,0.2211,-0.3194,0.0501,2.7878,1.4695,3.0291
2024-10-11T14:05:19.211Z,-0.0135,-2.0307,0.0515,0.2389,10.1677,0.5453,0.2339,-0.3440,0.0563,2.7657,1.4629,3.0410
2024-10-11T14:05:19.216Z,0.0158,-2.1139,0.0842,0.2389,10.1677,0.5453,0.2477,-0.3479,0.0601,2.7657,1.4629,3.0410
2024-10-11T14:05:19.226Z,-0.0029,-2.1589,0.0602,0.2389,10.1677,0.5453,0.2559,-0.3259,0.0594,2.7657,1.4629,3.0410
2024-10-11T14:05:19.237Z,-0.0105,-2.2162,0.0370,0.2022,11.9957,0.7613,0.2671,-0.3105,0.0588,2.7432,1.4555,3.0533
2024-10-11T14:05:19.248Z,-0.0316,-2.2652,0.0770,0.2022,11.9957,0.7613,0.2887,-0.2792,0.0571,2.7432,1.4555,3.0533
2024-10-11T14:05:19.258Z,-0.0331,-2.3099,0.1122,0.2022,11.9957,0.7613,0.3048,-0.2452,0.0575,2.7432,1.4555,3.0533
2024-10-11T14:05:19.267Z,-0.0331,-2.3099,0.1122,0.2332,12.8960,-0.7384,0.3147,-0.2121,0.0552,2.7227,1.4467,3.0658
2024-10-11T14:05:19.277Z,-0.0434,-2.2413,0.3443,0.2332,12.8960,-0.7384,0.3113,-0.1831,0.0518,2.7227,1.4467,3.0658
2024-10-11T14:05:19.287Z,-0.0835,-2.1741,0.4962,0.2332,12.8960,-0.7384,0.2973,-0.1530,0.0430,2.7227,1.4467,3.0658
2024-10-11T14:05:19.298Z,-0.1154,-2.1034,0.6579,1.2173,10.9106,-5.1566,0.2758,-0.1371,0.0316,2.7073,1.4378,3.0758
2024-10-11T14:05:19.307Z,-0.1350,-2.0226,0.7862,1.2173,10.9106,-5.1566,0.2422,-0.1264,0.0238,2.7073,1.4378,3.0758
2024-10-11T14:05:19.317Z,-0.1190,-1.9663,0.8708,1.2173,10.9106,-5.1566,0.2033,-0.1346,0.0258,2.7073,1.4378,3.0758
2024-10-11T14:05:19.327Z,-0.0440,-1.9001,0.9208,0.5134,8.9252,-7.6746,0.1579,-0.1386,0.0365,2.6976,1.4316,3.0812
2024-10-11T14:05:19.337Z,-0.0356,-1.8502,0.9265,0.5134,8.9252,-7.6746,0.1011,-0.1406,0.0421,2.6976,1.4316,3.0812
2024-10-11T14:05:19.347Z,-0.0710,-1.8372,0.9044,0.5134,8.9252,-7.6746,0.0656,-0.1574,0.0463,2.6976,1.4316,3.0812
2024-10-11T14:05:19.357Z,-0.0639,-1.8367,0.8511,0.7037,8.3046,-6.9753,-0.0181,-0.1586,0.0273,2.6886,1.4301,3.0858
2024-10-11T14:05:19.367Z,-0.1298,-1.8645,0.8253,0.7037,8.3046,-6.9753,-0.1240,-0.1086,0.0118,2.6886,1.4301,3.0858
2024-10-11T14:05:19.377Z,-0.1444,-1.8537,0.8110,0.7037,8.3046,-6.9753,-0.2181,-0.0846,-0.0093,2.6886,1.4301,3.0858
2024-10-11T14:05:19.387Z,-0.1017,-1.7874,0.7208,1.0790,7.8137,-5.7555,-0.3259,-0.0274,-0.0284,2.6921,1.4360,3.0795
2024-10-11T14:05:19.398Z,-0.0817,-1.7134,0.7416,1.0790,7.8137,-5.7555,-0.4202,0.0103,-0.0498,2.6921,1.4360,3.0795
2024-10-11T14:05:19.407Z,-0.1324,-1.5705,0.6191,1.0790,7.8137,-5.7555,-0.4823,0.0289,-0.0848,2.6921,1.4360,3.0795
2024-10-11T14:05:19.417Z,-0.1324,-1.5705,0.6191,2.3529,4.0634,-3.2342,-0.5441,0.0569,-0.1221,2.7181,1.4496,3.0541
2024-10-11T14:05:19.427Z,-0.1840,-1.2640,0.4312,2.3529,4.0634,-3.2342,-0.6034,0.0347,-0.1402,2.7181,1.4496,3.0541
2024-10-11T14:05:19.437Z,-0.0722,-1.0768,0.3647,2.3529,4.0634,-3.2342,-0.6512,-0.0096,-0.1571,2.7181,1.4496,3.0541
2024-10-11T14:05:19.449Z,-0.0437,-0.9655,0.2444,0.5765,-0.2867,-1.4014,-0.6811,-0.0972,-0.1671,2.7778,1.4679,2.9939
2024-10-11T14:05:19.456Z,-0.0251,-0.9040,0.1147,0.5765,-0.2867,-1.4014,-0.6971,-0.1355,-0.1736,2.7778,1.4679,2.9939
2024-10-11T14:05:19.467Z,0.0072,-0.8228,0.0133,0.5765,-0.2867,-1.4014,-0.6963,-0.1742,-0.1673,2.7778,1.4679,2.9939
2024-10-11T14:05:19.477Z,0.1061,-0.7472,-0.0364,-0.8399,-2.4458,1.1508,-0.6781,-0.2078,-0.1571,2.8741,1.4873,2.8931
2024-10-11T14:05:19.486Z,0.1286,-0.6701,-0.1155,-0.8399,-2.4458,1.1508,-0.6457,-0.2169,-0.1506,2.8741,1.4873,2.8931
2024-10-11T14:05:19.497Z,0.1202,-0.6368,-0.2032,-0.8399,-2.4458,1.1508,-0.5971,-0.2305,-0.1398,2.8741,1.4873,2.8931
2024-10-11T14:05:19.507Z,0.1145,-0.6431,-0.3043,-0.8759,-3.4790,3.6008,-0.5321,-0.2225,-0.1285,3.0007,1.5031,2.7596
2024-10-11T14:05:19.517Z,0.1189,-0.6747,-0.3835,-0.8759,-3.4790,3.6008,-0.4513,-0.2465,-0.1178,3.0007,1.5031,2.7596
2024-10-11T14:05:19.527Z,0.1128,-0.7021,-0.4025,-0.8759,-3.4790,3.6008,-0.3924,-0.2108,-0.1009,3.0007,1.5031,2.7596
2024-10-11T14:05:19.537Z,0.1128,-0.7021,-0.4025,-0.9725,-2.6688,4.2988,-0.3163,-0.2426,-0.0907,3.1311,1.5125,2.6221
2024-10-11T14:05:19.547Z,0.1461,-0.7702,-0.3982,-0.9725,-2.6688,4.2988,-0.2467,-0.2529,-0.0790,3.1311,1.5125,2.6221
2024-10-11T14:05:19.557Z,0.0677,-0.7735,-0.3506,-0.9725,-2.6688,4.2988,-0.1963,-0.2462,-0.0801,3.1311,1.5125,2.6221
2024-10-11T14:05:19.568Z,0.0677,-0.7735,-0.3506,-0.2491,-2.0837,3.4340,-0.1761,-0.2427,-0.0890,-3.0525,1.5167,2.5154
2024-10-11T14:05:19.577Z,0.0223,-0.7854,-0.2137,-0.2491,-2.0837,3.4340,-0.1599,-0.1779,-0.0899,-3.0525,1.5167,2.5154
2024-10-11T14:05:19.587Z,0.0595,-0.7960,-0.2470,-0.2491,-2.0837,3.4340,-0.1263,-0.1773,-0.0946,-3.0525,1.5167,2.5154
2024-10-11T14:05:19.597Z,0.0293,-0.7880,-0.2453,0.0513,-2.0662,2.7996,-0.1133,-0.1812,-0.0889,-2.9749,1.5178,2.4296
2024-10-11T14:05:19.607Z,0.0823,-0.7646,-0.1986,0.0513,-2.0662,2.7996,-0.0918,-0.2127,-0.0862,-2.9749,1.5178,2.4296
2024-10-11T14:05:19.618Z,0.0995,-0.7576,-0.1360,0.0513,-2.0662,2.7996,-0.0929,-0.1994,-0.0807,-2.9749,1.5178,2.4296
2024-10-11T14:05:19.627Z,0.0557,-0.7356,-0.1045,-0.1811,-2.5799,1.3887,-0.0892,-0.2238,-0.0739,-2.9058,1.5182,2.3539
2024-10-11T14:05:19.637Z,0.0512,-0.7326,-0.1171,-0.1811,-2.5799,1.3887,-0.0782,-0.2392,-0.0648,-2.9058,1.5182,2.3539
2024-10-11T14:05:19.647Z,0.0739,-0.7325,-0.1110,-0.1811,-2.5799,1.3887,-0.0729,-0.2571,-0.0466,-2.9058,1.5182,2.3539
2024-10-11T14:05:19.657Z,0.0739,-0.7325,-0.1110,-0.8749,-2.6038,1.1788,-0.0613,-0.2661,-0.0253,-2.8559,1.5186,2.2967
2024-10-11T14:05:19.667Z,0.1132,-0.7365,-0.0757,-0.8749,-2.6038,1.1788,-0.0451,-0.2680,-0.0093,-2.8559,1.5186,2.2967
2024-10-11T14:05:19.677Z,0.0880,-0.7199,-0.0631,-0.8749,-2.6038,1.1788,-0.0342,-0.2860,0.0106,-2.8559,1.5186,2.2967
2024-10-11T14:05:19.687Z,0.0801,-0.6812,-0.0411,-0.4008,-3.1143,0.7291,-0.0214,-0.2831,0.0175,-2.8412,1.5194,2.2734
2024-10-11T14:05:19.697Z,0.0526,-0.6333,-0.0101,-0.4008,-3.1143,0.7291,-0.0100,-0.2819,0.0323,-2.8412,1.5194,2.2734
2024-10-11T14:05:19.707Z,0.0471,-0.6114,-0.0034,-0.4008,-3.1143,0.7291,-0.0030,-0.2667,0.0397,-2.8412,1.5194,2.2734
2024-10-11T14:05:19.717Z,0.0471,-0.6114,-0.0034,-0.1764,-3.8324,0.0601,0.0045,-0.2427,0.0510,-2.8539,1.5204,2.2780
2024-10-11T14:05:19.727Z,0.0748,-0.6189,0.0196,-0.1764,-3.8324,0.0601,0.0169,-0.2205,0.0572,-2.8539,1.5204,2.2780
2024-10-11T14:05:19.737Z,-0.0004,-0.6416,-0.0054,-0.1764,-3.8324,0.0601,0.0265,-0.1948,0.0544,-2.8539,1.5204,2.2780
2024-10-11T14:05:19.747Z,-0.0320,-0.6560,0.0012,0.6760,-3.3626,0.3139,0.0339,-0.1848,0.0508,-2.8853,1.5211,2.3030
2024-10-11T14:05:19.757Z,-0.0150,-0.6827,-0.0032,0.6760,-3.3626,0.3139,0.0453,-0.1597,0.0476,-2.8853,1.5211,2.3030
2024-10-11T14:05:19.766Z,0.0058,-0.7250,-0.0124,0.6760,-3.3626,0.3139,0.0519,-0.1236,0.0464,-2.8853,1.5211,2.3030
2024-10-11T14:05:19.777Z,0.0241,-0.7553,-0.0561,0.1128,-2.3882,0.8896,0.0752,-0.1080,0.0467,-2.9284,1.5211,2.3418
2024-10-11T14:05:19.787Z,-0.0038,-0.7729,-0.1343,0.1128,-2.3882,0.8896,0.0967,-0.0796,0.0423,-2.9284,1.5211,2.3418
2024-10-11T14:05:19.797Z,-0.0083,-0.7663,-0.1646,0.1128,-2.3882,0.8896,0.1155,-0.0625,0.0413,-2.9284,1.5211,2.3418
2024-10-11T14:05:19.807Z,0.0143,-0.7446,-0.1631,0.1981,-2.4929,1.9719,0.1384,-0.0441,0.0406,-2.9920,1.5196,2.4030
2024-10-11T14:05:19.816Z,0.0357,-0.7113,-0.1795,0.1981,-2.4929,1.9719,0.1575,-0.0247,0.0468,-2.9920,1.5196,2.4030
2024-10-11T14:05:19.827Z,0.0474,-0.6756,-0.1884,0.1981,-2.4929,1.9719,0.1725,-0.0124,0.0504,-2.9920,1.5196,2.4030
2024-10-11T14:05:19.837Z,0.0702,-0.6518,-0.2042,-0.3654,-3.4011,2.4236,0.1909,-0.0021,0.0594,-3.0753,1.5167,2.4857
2024-10-11T14:05:19.847Z,0.0874,-0.6289,-0.2149,-0.3654,-3.4011,2.4236,0.2046,0.0025,0.0707,-3.0753,1.5167,2.4857
2024-10-11T14:05:19.857Z,0.0754,-0.6194,-0.2028,-0.3654,-3.4011,2.4236,0.2170,0.0002,0.0790,-3.0753,1.5167,2.4857
2024-10-11T14:05:19.867Z,0.0666,-0.6175,-0.1802,-0.3520,-3.7354,2.2511,0.2331,0.0022,0.0800,3.1085,1.5127,2.5847
2024-10-11T14:05:19.876Z,0.0624,-0.6277,-0.1654,-0.3520,-3.7354,2.2511,0.2526,0.0025,0.0883,3.1085,1.5127,2.5847
2024-10-11T14:05:19.887Z,0.0681,-0.6502,-0.1492,-0.3520,-3.7354,2.2511,0.2709,-0.0100,0.0923,3.1085,1.5127,2.5847
2024-10-11T14:05:19.897Z,0.0489,-0.6639,-0.1186,-0.2046,-3.2774,1.7258,0.2880,-0.0138,0.0902,3.0060,1.5070,2.6864
2024-10-11T14:05:19.907Z,0.0335,-0.6735,-0.0760,-0.2046,-3.2774,1.7258,0.3005,-0.0173,0.0908,3.0060,1.5070,2.6864
2024-10-11T14:05:19.916Z,0.0412,-0.6645,-0.0332,-0.2046,-3.2774,1.7258,0.3096,-0.0255,0.0876,3.0060,1.5070,2.6864
2024-10-11T14:05:19.927Z,0.0097,-0.6573,0.0367,0.1546,-3.3367,0.2911,0.3079,-0.0290,0.0855,2.9161,1.4996,2.7750
2024-10-11T14:05:19.936Z,0.0280,-0.6814,0.1573,0.1546,-3.3367,0.2911,0.2898,-0.0420,0.0865,2.9161,1.4996,2.7750
2024-10-11T14:05:19.947Z,0.0468,-0.6833,0.2554,0.1546,-3.3367,0.2911,0.2807,-0.0394,0.0822,2.9161,1.4996,2.7750
2024-10-11T14:05:19.957Z,0.0116,-0.6982,0.1709,0.1120,-2.9307,-0.9420,0.2683,-0.0389,0.0861,2.8468,1.4924,2.8429
2024-10-11T14:05:19.966Z,0.0656,-0.6942,0.1679,0.1120,-2.9307,-0.9420,0.2558,-0.0509,0.0896,2.8468,1.4924,2.8429
2024-10-11T14:05:19.976Z,0.0128,-0.7216,0.2913,0.1120,-2.9307,-0.9420,0.2209,-0.0474,0.0845,2.8468,1.4924,2.8429
2024-10-11T14:05:19.987Z,0.0150,-0.7502,0.3380,0.0550,-2.4156,-2.5131,0.2104,-0.0694,0.0849,2.7923,1.4863,2.8953
2024-10-11T14:05:19.996Z,-0.0341,-0.7496,0.1731,0.0550,-2.4156,-2.5131,0.2142,-0.0795,0.0662,2.7923,1.4863,2.8953
2024-10-11T14:05:20.007Z,-0.1246,-0.7342,0.0310,0.0550,-2.4156,-2.5131,0.2139,-0.0779,0.0658,2.7923,1.4863,2.8953
2024-10-11T14:05:20.017Z,0.0561,-0.6709,0.0416,-0.3675,-3.1890,0.4568,0.2174,-0.1000,0.0887,2.7514,1.4806,2.9334
2024-10-11T14:05:20.027Z,0.1618,-0.6313,0.0245,-0.3675,-3.1890,0.4568,0.2313,-0.0956,0.0962,2.7514,1.4806,2.9334
2024-10-11T14:05:20.037Z,0.0519,-0.6051,-0.0973,-0.3675,-3.1890,0.4568,0.2469,-0.0643,0.1047,2.7514,1.4806,2.9334
2024-10-11T14:05:20.047Z,0.0201,-0.5550,-0.2243,-0.0425,-4.3191,3.1369,0.2785,-0.0705,0.1029,2.7051,1.4739,2.9775
2024-10-11T14:05:20.057Z,-0.0503,-0.5160,-0.3318,-0.0425,-4.3191,3.1369,0.3246,-0.0934,0.0894,2.7051,1.4739,2.9775
2024-10-11T14:05:20.066Z,-0.1234,-0.4950,-0.3698,-0.0425,-4.3191,3.1369,0.3676,-0.1056,0.0701,2.7051,1.4739,2.9775
2024-10-11T14:05:20.077Z,-0.1565,-0.4366,-0.3969,1.6712,-5.4708,4.9338,0.4034,-0.0976,0.0532,2.6675,1.4636,3.0114
2024-10-11T14:05:20.087Z,-0.0920,-0.4350,-0.3599,1.6712,-5.4708,4.9338,0.4366,-0.1119,0.0441,2.6675,1.4636,3.0114
2024-10-11T14:05:20.097Z,-0.0193,-0.4488,-0.2333,1.6712,-5.4708,4.9338,0.4643,-0.1194,0.0385,2.6675,1.4636,3.0114
2024-10-11T14:05:20.107Z,-0.0039,-0.4776,-0.1940,0.1656,-5.0533,3.0769,0.4823,-0.1011,0.0398,2.6413,1.4502,3.0335
2024-10-11T14:05:20.117Z,-0.0186,-0.4844,-0.1927,0.1656,-5.0533,3.0769,0.4972,-0.0823,0.0363,2.6413,1.4502,3.0335
2024-10-11T14:05:20.127Z,-0.0227,-0.5072,-0.0764,0.1656,-5.0533,3.0769,0.4995,-0.0724,0.0306,2.6413,1.4502,3.0335
2024-10-11T14:05:20.137Z,-0.0249,-0.5293,0.0329,0.3658,-4.5281,0.9948,0.5038,-0.0546,0.0280,2.6221,1.4355,3.0500
2024-10-11T14:05:20.147Z,0.0100,-0.5573,-0.0062,0.3658,-4.5281,0.9948,0.5140,-0.0415,0.0273,2.6221,1.4355,3.0500
2024-10-11T14:05:20.157Z,0.0108,-0.5742,-0.0490,0.3658,-4.5281,0.9948,0.5197,-0.0161,0.0298,2.6221,1.4355,3.0500
2024-10-11T14:05:20.167Z,0.0640,-0.6007,0.0425,-0.5149,-3.8066,1.0501,0.5085,-0.0026,0.0399,2.6066,1.4203,3.0647
2024-10-11T14:05:20.177Z,0.0681,-0.6261,0.1726,-0.5149,-3.8066,1.0501,0.4957,0.0162,0.0401,2.6066,1.4203,3.0647
2024-10-11T14:05:20.187Z,0.0154,-0.6866,0.1974,-0.5149,-3.8066,1.0501,0.4766,0.0225,0.0410,2.6066,1.4203,3.0647
2024-10-11T14:05:20.197Z,0.0433,-0.7067,0.2624,-0.3233,-2.7447,-0.9689,0.4519,0.0265,0.0403,2.5929,1.4061,3.0787
2024-10-11T14:05:20.207Z,0.0231,-0.7350,0.3441,-0.3233,-2.7447,-0.9689,0.4082,0.0296,0.0392,2.5929,1.4061,3.0787
2024-10-11T14:05:20.217Z,0.0308,-0.7754,0.4920,-0.3233,-2.7447,-0.9689,0.3577,0.0256,0.0384,2.5929,1.4061,3.0787
2024-10-11T14:05:20.227Z,0.0806,-0.8176,0.6140,-0.7016,-1.6382,-4.3120,0.2898,0.0185,0.0403,2.5826,1.3952,3.0897
2024-10-11T14:05:20.237Z,0.0369,-0.8960,0.7160,-0.7016,-1.6382,-4.3120,0.2067,0.0314,0.0434,2.5826,1.3952,3.0897
2024-10-11T14:05:20.247Z,0.0459,-0.9013,0.8367,-0.7016,-1.6382,-4.3120,0.1242,-0.0024,0.0351,2.5826,1.3952,3.0897
2024-10-11T14:05:20.257Z,0.0300,-0.9419,0.8669,-0.2162,-0.4121,-6.7516,0.0400,0.0053,0.0354,2.5754,1.3909,3.0972
2024-10-11T14:05:20.267Z,0.0348,-0.9031,0.7712,-0.2162,-0.4121,-6.7516,0.0051,0.0046,0.0491,2.5754,1.3909,3.0972
2024-10-11T14:05:20.277Z,0.1660,-0.9287,0.6689,-0.2162,-0.4121,-6.7516,-0.1154,-0.0184,0.0401,2.5754,1.3909,3.0972
2024-10-11T14:05:20.287Z,0.0757,-0.9077,0.9598,-0.6802,-0.7526,-7.6920,-0.2023,-0.0429,0.0552,2.5675,1.3940,3.1052
2024-10-11T14:05:20.297Z,0.1615,-0.9179,0.8488,-0.6802,-0.7526,-7.6920,-0.2846,-0.0508,0.0592,2.5675,1.3940,3.1052
2024-10-11T14:05:20.307Z,0.0901,-0.9617,0.7974,-0.6802,-0.7526,-7.6920,-0.3593,-0.0644,0.0610,2.5675,1.3940,3.1052
2024-10-11T14:05:20.317Z,0.0466,-0.9266,0.8009,-0.4080,-0.5845,-6.2307,-0.4270,-0.1152,0.0594,2.5590,1.4041,3.1114
2024-10-11T14:05:20.327Z,0.0528,-0.9405,0.8965,-0.4080,-0.5845,-6.2307,-0.4998,-0.1405,0.0637,2.5590,1.4041,3.1114
2024-10-11T14:05:20.337Z,0.0326,-0.8757,0.8581,-0.4080,-0.5845,-6.2307,-0.5410,-0.1627,0.0733,2.5590,1.4041,3.1114
2024-10-11T14:05:20.347Z,0.0468,-0.7714,0.5899,-0.4236,-2.1313,-4.3121,-0.5680,-0.1836,0.0855,2.5475,1.4199,3.1177
2024-10-11T14:05:20.357Z,0.0181,-0.7583,0.4373,-0.4236,-2.1313,-4.3121,-0.5930,-0.1878,0.0889,2.5475,1.4199,3.1177
2024-10-11T14:05:20.367Z,-0.0666,-0.8131,0.4775,-0.4236,-2.1313,-4.3121,-0.6200,-0.1986,0.0941,2.5475,1.4199,3.1177
2024-10-11T14:05:20.377Z,-0.1083,-0.6849,0.3923,1.0794,-3.0050,-2.5504,-0.6313,-0.1845,0.0923,2.5301,1.4380,3.1286
2024-10-11T14:05:20.387Z,-0.1475,-0.5465,0.1984,1.0794,-3.0050,-2.5504,-0.6129,-0.1826,0.0899,2.5301,1.4380,3.1286
2024-10-11T14:05:20.397Z,-0.2001,-0.5796,0.0611,1.0794,-3.0050,-2.5504,-0.5886,-0.1863,0.0734,2.5301,1.4380,3.1286
2024-10-11T14:05:20.406Z,-0.2319,-0.6403,-0.0923,2.2769,-3.4639,2.0321,-0.5639,-0.1618,0.0578,2.5128,1.4557,3.1400
2024-10-11T14:05:20.417Z,-0.2441,-0.5957,-0.2192,2.2769,-3.4639,2.0321,-0.5243,-0.1175,0.0446,2.5128,1.4557,3.1400
2024-10-11T14:05:20.427Z,-0.2187,-0.5969,-0.1857,2.2769,-3.4639,2.0321,-0.5115,-0.0864,0.0426,2.5128,1.4557,3.1400
2024-10-11T14:05:20.436Z,-0.2187,-0.5969,-0.1857,1.6865,-3.6224,2.2073,-0.5119,-0.0624,0.0350,2.5004,1.4713,-3.1340
2024-10-11T14:05:20.447Z,-0.1656,-0.6318,-0.0694,1.6865,-3.6224,2.2073,-0.5072,-0.0639,0.0215,2.5004,1.4713,-3.1340
2024-10-11T14:05:20.457Z,-0.0778,-0.6750,-0.0627,1.6865,-3.6224,2.2073,-0.5234,-0.0432,0.0062,2.5004,1.4713,-3.1340
2024-10-11T14:05:20.467Z,-0.1237,-0.6848,-0.0648,1.2058,-3.0571,1.4601,-0.5212,0.0085,-0.0227,2.4982,1.4867,-3.1326
2024-10-11T14:05:20.477Z,-0.0697,-0.7243,-0.0800,1.2058,-3.0571,1.4601,-0.5178,-0.0034,-0.0363,2.4982,1.4867,-3.1326
2024-10-11T14:05:20.486Z,-0.0875,-0.7396,-0.0472,1.2058,-3.0571,1.4601,-0.4993,-0.0144,-0.0520,2.4982,1.4867,-3.1326
2024-10-11T14:05:20.497Z,-0.0282,-0.6890,-0.0963,0.2846,-3.0279,1.6207,-0.4877,-0.0313,-0.0691,2.5182,1.5018,3.1304
2024-10-11T14:05:20.507Z,0.0333,-0.6382,-0.1259,0.2846,-3.0279,1.6207,-0.4650,-0.0380,-0.0857,2.5182,1.5018,3.1304
2024-10-11T14:05:20.517Z,0.0542,-0.5945,-0.1247,0.2846,-3.0279,1.6207,-0.4347,-0.0386,-0.0814,2.5182,1.5018,3.1304
2024-10-11T14:05:20.527Z,0.0616,-0.5628,-0.2796,-0.5706,-4.2739,3.2889,-0.3988,-0.0370,-0.0948,2.5677,1.5150,3.0800
2024-10-11T14:05:20.536Z,-0.0027,-0.5435,-0.2718,-0.5706,-4.2739,3.2889,-0.3596,-0.0400,-0.0975,2.5677,1.5150,3.0800
2024-10-11T14:05:20.547Z,-0.0275,-0.5626,-0.2758,-0.5706,-4.2739,3.2889,-0.3301,-0.0270,-0.1063,2.5677,1.5150,3.0800
2024-10-11T14:05:20.556Z,-0.0173,-0.5732,-0.2897,0.2338,-4.1762,3.2900,-0.2892,-0.0285,-0.1120,2.6464,1.5246,2.9999
2024-10-11T14:05:20.567Z,-0.0552,-0.6112,-0.3155,0.2338,-4.1762,3.2900,-0.2648,-0.0229,-0.1239,2.6464,1.5246,2.9999
2024-10-11T14:05:20.577Z,-0.0866,-0.6763,-0.2679,0.2338,-4.1762,3.2900,-0.2351,-0.0461,-0.1352,2.6464,1.5246,2.9999
2024-10-11T14:05:20.586Z,-0.0470,-0.7128,-0.2776,0.5629,-2.8091,3.1038,-0.2036,-0.0884,-0.1329,2.7617,1.5306,2.8814
2024-10-11T14:05:20.597Z,0.0191,-0.7514,-0.3023,0.5629,-2.8091,3.1038,-0.1798,-0.0861,-0.1259,2.7617,1.5306,2.8814
2024-10-11T14:05:20.607Z,0.0265,-0.7627,-0.2766,0.5629,-2.8091,3.1038,-0.1592,-0.0968,-0.1253,2.7617,1.5306,2.8814
2024-10-11T14:05:20.617Z,0.0016,-0.8082,-0.2550,0.1235,-1.8749,2.8359,-0.1458,-0.1031,-0.1195,2.8910,1.5339,2.7478
2024-10-11T14:05:20.627Z,0.0378,-0.8440,-0.2035,0.1235,-1.8749,2.8359,-0.1352,-0.1022,-0.1069,2.8910,1.5339,2.7478
2024-10-11T14:05:20.637Z,0.0907,-0.8591,-0.1922,0.1235,-1.8749,2.8359,-0.1258,-0.1005,-0.0972,2.8910,1.5339,2.7478
2024-10-11T14:05:20.647Z,0.0541,-0.8791,-0.2295,-0.3606,-1.1797,2.5474,-0.1152,-0.1023,-0.1044,3.0158,1.5360,2.6197
2024-10-11T14:05:20.657Z,-0.0236,-0.9030,-0.1720,-0.3606,-1.1797,2.5474,-0.1156,-0.0959,-0.1085,3.0158,1.5360,2.6197
2024-10-11T14:05:20.666Z,-0.0073,-0.9169,-0.0677,-0.3606,-1.1797,2.5474,-0.1146,-0.1132,-0.1121,3.0158,1.5360,2.6197
2024-10-11T14:05:20.677Z,0.0334,-0.9088,-0.0693,-0.1241,-0.8891,0.9420,-0.1053,-0.0990,-0.1112,-3.1319,1.5370,2.4813
2024-10-11T14:05:20.686Z,0.0744,-0.8999,-0.1658,-0.1241,-0.8891,0.9420,-0.0817,-0.0823,-0.1012,-3.1319,1.5370,2.4813
2024-10-11T14:05:20.697Z,0.1158,-0.8904,-0.2146,-0.1241,-0.8891,0.9420,-0.0518,-0.0493,-0.0853,-3.1319,1.5370,2.4813
2024-10-11T14:05:20.707Z,0.1351,-0.8742,-0.2463,-1.0958,-1.2286,2.6607,-0.0173,-0.0415,-0.0657,-3.0401,1.5366,2.3874
2024-10-11T14:05:20.717Z,0.1043,-0.8359,-0.2813,-1.0958,-1.2286,2.6607,0.0216,-0.0293,-0.0610,-3.0401,1.5366,2.3874
2024-10-11T14:05:20.727Z,0.0317,-0.7905,-0.3006,-1.0958,-1.2286,2.6607,0.0569,-0.0223,-0.0567,-3.0401,1.5366,2.3874
2024-10-11T14:05:20.736Z,-0.0021,-0.7761,-0.2635,0.2665,-2.1903,2.8435,0.0895,-0.0176,-0.0522,-3.0341,1.5344,2.3803
2024-10-11T14:05:20.747Z,0.0161,-0.7988,-0.2369,0.2665,-2.1903,2.8435,0.1214,-0.0132,-0.0438,-3.0341,1.5344,2.3803
2024-10-11T14:05:20.757Z,0.0622,-0.8100,-0.2273,0.2665,-2.1903,2.8435,0.1564,0.0005,-0.0344,-3.0341,1.5344,2.3803
2024-10-11T14:05:20.767Z,0.0840,-0.8237,-0.2672,-0.5658,-1.7215,2.9233,0.1945,0.0090,-0.0324,-3.0888,1.5303,2.4348
2024-10-11T14:05:20.776Z,0.0224,-0.8465,-0.2637,-0.5658,-1.7215,2.9233,0.2194,0.0341,-0.0320,-3.0888,1.5303,2.4348
2024-10-11T14:05:20.787Z,0.0168,-0.8562,-0.1548,-0.5658,-1.7215,2.9233,0.2291,0.0640,-0.0320,-3.0888,1.5303,2.4348
2024-10-11T14:05:20.797Z,0.0301,-0.8703,-0.0666,-0.0288,-1.2623,1.0215,0.2423,0.0849,-0.0261,3.1147,1.5244,2.5158
2024-10-11T14:05:20.807Z,0.0695,-0.9189,-0.0734,-0.0288,-1.2623,1.0215,0.2495,0.1126,-0.0172,3.1147,1.5244,2.5158
2024-10-11T14:05:20.817Z,0.0920,-0.9694,-0.0352,-0.0288,-1.2623,1.0215,0.2550,0.1366,0.0001,3.1147,1.5244,2.5158
2024-10-11T14:05:20.827Z,0.0742,-1.0109,0.0768,-0.4621,0.1204,-0.3101,0.2480,0.1625,0.0173,3.0327,1.5180,2.6013
2024-10-11T14:05:20.837Z,0.0856,-1.0583,0.1550,-0.4621,0.1204,-0.3101,0.2426,0.1822,0.0312,3.0327,1.5180,2.6013
2024-10-11T14:05:20.847Z,0.0587,-1.1039,0.1891,-0.4621,0.1204,-0.3101,0.2350,0.1955,0.0343,3.0327,1.5180,2.6013
2024-10-11T14:05:20.857Z,-0.0098,-1.1738,0.2469,0.3501,1.7215,-1.9090,0.2161,0.1941,0.0343,2.9576,1.5124,2.6817
2024-10-11T14:05:20.867Z,-0.0310,-1.2370,0.3503,0.3501,1.7215,-1.9090,0.2118,0.2145,0.0298,2.9576,1.5124,2.6817
2024-10-11T14:05:20.877Z,-0.0681,-1.2839,0.2797,0.3501,1.7215,-1.9090,0.2221,0.2261,0.0312,2.9576,1.5124,2.6817
2024-10-11T14:05:20.886Z,-0.0596,-1.3863,0.2781,0.8274,3.8099,-2.1504,0.2155,0.2690,0.0174,2.9013,1.5069,2.7446
2024-10-11T14:05:20.897Z,-0.0818,-1.4798,0.4450,0.8274,3.8099,-2.1504,0.2099,0.3230,0.0182,2.9013,1.5069,2.7446
2024-10-11T14:05:20.907Z,0.0277,-1.5242,0.3565,0.8274,3.8099,-2.1504,0.2255,0.3180,0.0045,2.9013,1.5069,2.7446
2024-10-11T14:05:20.917Z,-0.0599,-1.5581,0.1222,0.8210,5.4988,-0.5521,0.2490,0.3748,-0.0008,2.8604,1.5006,2.7950
2024-10-11T14:05:20.927Z,0.0206,-1.6507,0.0478,0.8210,5.4988,-0.5521,0.2963,0.4129,0.0174,2.8604,1.5006,2.7950
2024-10-11T14:05:20.936Z,0.1503,-1.7607,0.0277,0.8210,5.4988,-0.5521,0.3819,0.3849,0.0212,2.8604,1.5006,2.7950
2024-10-11T14:05:20.947Z,-0.0163,-1.8540,-0.1306,0.3809,8.4101,2.0395,0.5012,0.3896,0.0043,2.8090,1.4902,2.8578
2024-10-11T14:05:20.956Z,-0.1139,-1.9120,-0.3430,0.3809,8.4101,2.0395,0.6341,0.3825,-0.0075,2.8090,1.4902,2.8578
2024-10-11T14:05:20.967Z,-0.0085,-1.8849,-0.2728,0.3809,8.4101,2.0395,0.7344,0.3781,-0.0049,2.8090,1.4902,2.8578
2024-10-11T14:05:20.977Z,0.0729,-1.7858,0.0064,-0.5038,7.7587,0.8998,0.7766,0.3737,0.0155,2.7526,1.4702,2.9254
2024-10-11T14:05:20.986Z,0.0778,-1.6508,0.3163,-0.5038,7.7587,0.8998,0.7818,0.3506,0.0367,2.7526,1.4702,2.9254
2024-10-11T14:05:20.997Z,0.0439,-1.4960,0.4262,-0.5038,7.7587,0.8998,0.7418,0.3421,0.0583,2.7526,1.4702,2.9254
2024-10-11T14:05:21.007Z,0.0525,-1.4898,0.4389,-0.3289,4.8782,-3.1235,0.6717,0.3255,0.0707,2.7021,1.4485,2.9852
2024-10-11T14:05:21.018Z,-0.0526,-1.5793,0.5252,-0.3289,4.8782,-3.1235,0.6010,0.2872,0.0648,2.7021,1.4485,2.9852
2024-10-11T14:05:21.027Z,-0.0941,-1.7072,0.4166,-0.3289,4.8782,-3.1235,0.5249,0.2845,0.0456,2.7021,1.4485,2.9852
2024-10-11T14:05:21.037Z,-0.1318,-1.8880,0.3486,1.4541,8.8045,-2.0776,0.4577,0.2966,0.0238,2.6737,1.4326,3.0221
2024-10-11T14:05:21.047Z,-0.0621,-2.1226,0.2858,1.4541,8.8045,-2.0776,0.4236,0.2832,0.0166,2.6737,1.4326,3.0221
2024-10-11T14:05:21.057Z,0.0861,-2.2548,0.1246,1.4541,8.8045,-2.0776,0.4004,0.2720,0.0205,2.6737,1.4326,3.0221
2024-10-11T14:05:21.067Z,0.1554,-2.3265,0.1216,-1.3809,13.1231,0.2684,0.3693,0.2858,0.0260,2.6599,1.4206,3.0439
2024-10-11T14:05:21.077Z,0.0731,-2.3527,0.3629,-1.3809,13.1231,0.2684,0.3168,0.3097,0.0324,2.6599,1.4206,3.0439
2024-10-11T14:05:21.087Z,0.0315,-2.3610,0.5502,-1.3809,13.1231,0.2684,0.2700,0.3339,0.0395,2.6599,1.4206,3.0439
2024-10-11T14:05:21.097Z,0.0716,-2.3882,0.5506,-0.5846,13.7416,-3.8544,0.2476,0.3323,0.0532,2.6471,1.4120,3.0658
2024-10-11T14:05:21.107Z,0.1105,-2.3753,0.5317,-0.5846,13.7416,-3.8544,0.2188,0.3324,0.0651,2.6471,1.4120,3.0658
2024-10-11T14:05:21.117Z,0.0727,-2.3373,0.7201,-0.5846,13.7416,-3.8544,0.1836,0.3306,0.0755,2.6471,1.4120,3.0658
2024-10-11T14:05:21.126Z,0.0296,-2.2799,0.9436,-0.2089,12.6877,-7.6532,0.1520,0.3308,0.0816,2.6314,1.4064,3.0909
2024-10-11T14:05:21.137Z,0.0506,-2.2127,0.9297,-0.2089,12.6877,-7.6532,0.1223,0.3422,0.0878,2.6314,1.4064,3.0909
2024-10-11T14:05:21.147Z,0.0627,-2.1618,0.9155,-0.2089,12.6877,-7.6532,0.0951,0.3573,0.0898,2.6314,1.4064,3.0909
2024-10-11T14:05:21.157Z,0.0412,-2.1126,0.9917,-0.3652,11.0515,-8.0955,0.0527,0.3768,0.0882,2.6145,1.4035,3.1180
2024-10-11T14:05:21.167Z,0.0177,-2.0643,1.1023,-0.3652,11.0515,-8.0955,0.0148,0.3804,0.0820,2.6145,1.4035,3.1180
2024-10-11T14:05:21.177Z,-0.0007,-2.0431,1.0521,-0.3652,11.0515,-8.0955,-0.0404,0.4276,0.0696,2.6145,1.4035,3.1180
2024-10-11T14:05:21.187Z,0.0183,-2.0352,0.9938,-0.1807,10.2910,-8.1205,-0.0780,0.3975,0.0590,2.6008,1.4040,-3.1411
2024-10-11T14:05:21.197Z,-0.0376,-2.0271,1.1070,-0.1807,10.2910,-8.1205,-0.1417,0.4027,0.0309,2.6008,1.4040,-3.1411
2024-10-11T14:05:21.207Z,-0.0705,-1.9848,1.0772,-0.1807,10.2910,-8.1205,-0.1955,0.3779,0.0050,2.6008,1.4040,-3.1411
2024-10-11T14:05:21.218Z,-0.0479,-1.9798,1.0524,0.4488,9.7390,-8.7463,-0.2670,0.3508,-0.0277,2.5986,1.4093,-3.1286
2024-10-11T14:05:21.227Z,-0.0869,-1.9557,1.0356,0.4488,9.7390,-8.7463,-0.3386,0.3183,-0.0445,2.5986,1.4093,-3.1286
2024-10-11T14:05:21.237Z,0.0205,-1.8537,0.8820,0.4488,9.7390,-8.7463,-0.4086,0.2747,-0.0494,2.5986,1.4093,-3.1286
2024-10-11T14:05:21.247Z,0.0804,-1.7673,0.8032,-0.8086,7.6368,-6.4160,-0.4864,0.2378,-0.0488,2.6065,1.4210,-3.1280
2024-10-11T14:05:21.257Z,0.0255,-1.6963,0.7392,-0.8086,7.6368,-6.4160,-0.5770,0.1745,-0.0542,2.6065,1.4210,-3.1280
2024-10-11T14:05:21.267Z,-0.0118,-1.5772,0.7582,-0.8086,7.6368,-6.4160,-0.6895,0.1171,-0.0618,2.6065,1.4210,-3.1280
2024-10-11T14:05:21.277Z,-0.0464,-1.3934,0.6940,0.4465,3.9419,-5.5364,-0.7820,0.0503,-0.0674,2.6175,1.4408,-3.1348
2024-10-11T14:05:21.287Z,-0.0600,-1.1687,0.3486,0.4465,3.9419,-5.5364,-0.8696,0.0083,-0.0674,2.6175,1.4408,-3.1348
2024-10-11T14:05:21.297Z,-0.0276,-1.0214,0.2675,0.4465,3.9419,-5.5364,-0.9544,-0.0007,-0.0574,2.6175,1.4408,-3.1348
2024-10-11T14:05:21.307Z,0.0529,-0.8882,0.2135,-0.5102,-1.0457,-1.0925,-1.0076,-0.0093,-0.0493,2.6335,1.4685,3.1326
2024-10-11T14:05:21.318Z,0.0263,-0.8040,0.1363,-0.5102,-1.0457,-1.0925,-1.0291,0.0065,-0.0473,2.6335,1.4685,3.1326
2024-10-11T14:05:21.327Z,-0.0302,-0.7146,0.0002,-0.5102,-1.0457,-1.0925,-1.0183,0.0424,-0.0513,2.6335,1.4685,3.1326
2024-10-11T14:05:21.337Z,-0.0640,-0.5789,-0.1704,0.6524,-4.1051,2.3767,-0.9875,0.0821,-0.0749,2.6597,1.4988,3.1073
2024-10-11T14:05:21.347Z,-0.1478,-0.4860,-0.2784,0.6524,-4.1051,2.3767,-0.9238,0.1489,-0.1022,2.6597,1.4988,3.1073
2024-10-11T14:05:21.357Z,-0.1417,-0.4159,-0.4092,0.6524,-4.1051,2.3767,-0.8457,0.2052,-0.1280,2.6597,1.4988,3.1073
2024-10-11T14:05:21.367Z,-0.1040,-0.4198,-0.5127,1.0766,-5.6813,5.4825,-0.7470,0.2520,-0.1466,2.7544,1.5243,3.0182
2024-10-11T14:05:21.377Z,-0.0777,-0.4692,-0.5164,1.0766,-5.6813,5.4825,-0.6381,0.2639,-0.1593,2.7544,1.5243,3.0182
2024-10-11T14:05:21.387Z,-0.0425,-0.5337,-0.6394,1.0766,-5.6813,5.4825,-0.5359,0.2682,-0.1672,2.7544,1.5243,3.0182
2024-10-11T14:05:21.397Z,-0.0590,-0.5763,-0.6324,0.6800,-4.1518,6.4959,-0.4101,0.2392,-0.1652,2.9724,1.5393,2.8073
2024-10-11T14:05:21.407Z,-0.0049,-0.6120,-0.6295,0.6800,-4.1518,6.4959,-0.3253,0.2212,-0.1733,2.9724,1.5393,2.8073
2024-10-11T14:05:21.417Z,-0.0411,-0.6260,-0.4290,0.6800,-4.1518,6.4959,-0.2448,0.2077,-0.1882,2.9724,1.5393,2.8073
2024-10-11T14:05:21.427Z,-0.0140,-0.7386,-0.3228,0.2882,-2.5604,3.3804,-0.2029,0.2211,-0.1755,-3.0252,1.5442,2.5275
2024-10-11T14:05:21.437Z,0.0823,-0.7827,-0.4800,0.2882,-2.5604,3.3804,-0.1310,0.1971,-0.1691,-3.0252,1.5442,2.5275
2024-10-11T14:05:21.447Z,0.0314,-0.7924,-0.3439,0.2882,-2.5604,3.3804,-0.0781,0.1859,-0.1672,-3.0252,1.5442,2.5275
2024-10-11T14:05:21.457Z,0.0415,-0.7937,-0.2644,-0.2096,-2.0197,2.7816,-0.0402,0.1594,-0.1568,-2.8245,1.5430,2.3317
2024-10-11T14:05:21.470Z,0.0572,-0.8087,-0.3235,-0.2096,-2.0197,2.7816,-0.0058,0.1689,-0.1669,-2.8245,1.5430,2.3317
2024-10-11T14:05:21.476Z,-0.0097,-0.8126,-0.3018,-0.2096,-2.0197,2.7816,0.0066,0.1917,-0.1726,-2.8245,1.5430,2.3317
2024-10-11T14:05:21.487Z,-0.0040,-0.8020,-0.2465,0.2858,-1.9379,2.6093,0.0256,0.1623,-0.1808,-2.7177,1.5390,2.2297
2024-10-11T14:05:21.496Z,-0.0133,-0.7801,-0.1736,0.2858,-1.9379,2.6093,0.0322,0.1400,-0.1961,-2.7177,1.5390,2.2297
2024-10-11T14:05:21.507Z,-0.0431,-0.7760,-0.1440,0.2858,-1.9379,2.6093,0.0404,0.1212,-0.2102,-2.7177,1.5390,2.2297
2024-10-11T14:05:21.518Z,-0.0612,-0.7745,-0.1027,0.9062,-2.2057,1.2097,0.0481,0.1244,-0.2183,-2.6393,1.5334,2.1552
2024-10-11T14:05:21.527Z,0.0069,-0.7640,-0.0975,0.9062,-2.2057,1.2097,0.0638,0.1167,-0.2092,-2.6393,1.5334,2.1552
2024-10-11T14:05:21.536Z,0.1033,-0.7513,-0.1138,0.9062,-2.2057,1.2097,0.0836,0.1245,-0.1930,-2.6393,1.5334,2.1552
2024-10-11T14:05:21.547Z,0.1471,-0.7305,-0.1105,-1.0808,-2.6346,1.3109,0.1106,0.1402,-0.1652,-2.6109,1.5272,2.1305
2024-10-11T14:05:21.557Z,0.1511,-0.6876,-0.1512,-1.0808,-2.6346,1.3109,0.1338,0.1502,-0.1454,-2.6109,1.5272,2.1305
2024-10-11T14:05:21.568Z,0.0648,-0.6248,-0.1454,-1.0808,-2.6346,1.3109,0.1529,0.1572,-0.1392,-2.6109,1.5272,2.1305
2024-10-11T14:05:21.577Z,0.0045,-0.5950,-0.1422,0.3587,-3.9610,1.6681,0.1772,0.1691,-0.1359,-2.6423,1.5212,2.1663
2024-10-11T14:05:21.587Z,0.0217,-0.5883,-0.1642,0.3587,-3.9610,1.6681,0.2021,0.1629,-0.1280,-2.6423,1.5212,2.1663
2024-10-11T14:05:21.597Z,0.0360,-0.6069,-0.1289,0.3587,-3.9610,1.6681,0.2112,0.1710,-0.1186,-2.6423,1.5212,2.1663
2024-10-11T14:05:21.607Z,0.0740,-0.6405,-0.0244,-0.2900,-3.5110,0.5741,0.2064,0.1886,-0.0958,-2.6963,1.5147,2.2254
2024-10-11T14:05:21.618Z,0.1697,-0.6793,0.0723,-0.2900,-3.5110,0.5741,0.1971,0.1905,-0.0837,-2.6963,1.5147,2.2254
2024-10-11T14:05:21.627Z,0.0492,-0.7296,0.0779,-0.2900,-3.5110,0.5741,0.1891,0.2078,-0.0817,-2.6963,1.5147,2.2254
2024-10-11T14:05:21.637Z,-0.0260,-0.7559,0.0603,0.7136,-2.3758,-0.1978,0.1889,0.2065,-0.0834,-2.7455,1.5092,2.2804
2024-10-11T14:05:21.647Z,-0.0113,-0.7564,0.0220,0.7136,-2.3758,-0.1978,0.1915,0.1874,-0.0876,-2.7455,1.5092,2.2804
2024-10-11T14:05:21.657Z,0.0019,-0.7714,-0.0488,0.7136,-2.3758,-0.1978,0.1981,0.1931,-0.0875,-2.7455,1.5092,2.2804
2024-10-11T14:05:21.667Z,-0.0013,-0.7551,-0.0928,0.4944,-2.3803,1.3648,0.2105,0.1824,-0.0833,-2.7861,1.5033,2.3267
2024-10-11T14:05:21.677Z,0.0305,-0.7277,-0.1233,0.4944,-2.3803,1.3648,0.2222,0.1984,-0.0785,-2.7861,1.5033,2.3267
2024-10-11T14:05:21.687Z,0.0739,-0.6923,-0.1826,0.4944,-2.3803,1.3648,0.2424,0.2155,-0.0700,-2.7861,1.5033,2.3267
2024-10-11T14:05:21.697Z,0.0697,-0.6524,-0.1954,-0.1848,-3.3831,2.4424,0.2467,0.2395,-0.0584,-2.8350,1.4969,2.3818
2024-10-11T14:05:21.707Z,0.1247,-0.6238,-0.1355,-0.1848,-3.3831,2.4424,0.2487,0.2616,-0.0276,-2.8350,1.4969,2.3818
2024-10-11T14:05:21.717Z,0.2015,-0.5956,-0.0987,-0.1848,-3.3831,2.4424,0.2397,0.2915,-0.0035,-2.8350,1.4969,2.3818
2024-10-11T14:05:21.727Z,0.1361,-0.6078,-0.0580,-0.8365,-3.8162,1.1696,0.2368,0.2976,0.0099,-2.8950,1.4911,2.4494
2024-10-11T14:05:21.737Z,0.0374,-0.6322,-0.0865,-0.8365,-3.8162,1.1696,0.2418,0.2840,0.0003,-2.8950,1.4911,2.4494
2024-10-11T14:05:21.747Z,-0.0708,-0.6833,-0.1411,-0.8365,-3.8162,1.1696,0.2507,0.3028,-0.0009,-2.8950,1.4911,2.4494
2024-10-11T14:05:21.757Z,0.0096,-0.7339,-0.1004,0.3979,-2.5748,1.6629,0.2424,0.3026,0.0063,-2.9514,1.4854,2.5137
2024-10-11T14:05:21.767Z,0.0864,-0.7163,0.0156,0.3979,-2.5748,1.6629,0.2497,0.3049,0.0035,-2.9514,1.4854,2.5137
