time,gFx,gFy,gFz,ax,ay,az,wx,wy,wz,yaw,pitch,roll
2024-10-11T14:12:59.611Z,0.0369,-0.9968,0.2313,-0.0169,0.2694,0.2037,-0.0600,0.0239,-0.0209,2.7894,1.3111,3.0141
2024-10-11T14:12:59.619Z,0.0340,-0.9866,0.2399,-0.0169,0.2694,0.2037,-0.0636,0.0265,-0.0185,2.7894,1.3111,3.0141
2024-10-11T14:12:59.629Z,0.0294,-0.9803,0.2460,0.0293,0.1054,0.0742,-0.0689,0.0238,-0.0203,2.7925,1.3129,3.0115
2024-10-11T14:12:59.639Z,0.0320,-0.9745,0.2452,0.0293,0.1054,0.0742,-0.0685,0.0257,-0.0228,2.7925,1.3129,3.0115
2024-10-11T14:12:59.649Z,0.0294,-0.9691,0.2460,0.0293,0.1054,0.0742,-0.0706,0.0268,-0.0207,2.7925,1.3129,3.0115
2024-10-11T14:12:59.659Z,0.0288,-0.9644,0.2451,0.0408,-0.0406,0.0575,-0.0720,0.0267,-0.0175,2.7959,1.3149,3.0087
2024-10-11T14:12:59.669Z,0.0289,-0.9608,0.2443,0.0408,-0.0406,0.0575,-0.0705,0.0261,-0.0212,2.7959,1.3149,3.0087
2024-10-11T14:12:59.680Z,0.0294,-0.9480,0.2406,0.0408,-0.0406,0.0575,-0.0695,0.0250,-0.0191,2.7959,1.3149,3.0087
2024-10-11T14:12:59.690Z,0.0319,-0.9464,0.2387,0.0396,-0.2044,0.1056,-0.0672,0.0270,-0.0179,2.7993,1.3169,3.0060
2024-10-11T14:12:59.699Z,0.0319,-0.9464,0.2387,0.0396,-0.2044,0.1056,-0.0675,0.0243,-0.0163,2.7993,1.3169,3.0060
2024-10-11T14:12:59.710Z,0.0332,-0.9437,0.2402,0.0396,-0.2044,0.1056,-0.0645,0.0250,-0.0158,2.7993,1.3169,3.0060
2024-10-11T14:12:59.720Z,0.0344,-0.9414,0.2407,0.0016,-0.2509,0.0667,-0.0693,0.0307,-0.0142,2.8021,1.3188,3.0037
2024-10-11T14:12:59.730Z,0.0289,-0.9400,0.2385,0.0016,-0.2509,0.0667,-0.0703,0.0314,-0.0112,2.8021,1.3188,3.0037
2024-10-11T14:12:59.740Z,0.0231,-0.9397,0.2389,0.0016,-0.2509,0.0667,-0.0727,0.0397,-0.0121,2.8021,1.3188,3.0037
2024-10-11T14:12:59.749Z,0.0231,-0.9397,0.2389,0.0963,-0.2863,0.0716,-0.0767,0.0460,-0.0141,2.8048,1.3209,3.0019
2024-10-11T14:12:59.760Z,0.0256,-0.9370,0.2378,0.0963,-0.2863,0.0716,-0.0804,0.0548,-0.0145,2.8048,1.3209,3.0019
2024-10-11T14:12:59.769Z,0.0256,-0.9370,0.2378,0.0963,-0.2863,0.0716,-0.0872,0.0630,-0.0171,2.8048,1.3209,3.0019
2024-10-11T14:12:59.780Z,0.0203,-0.9353,0.2314,0.1454,-0.3290,0.0984,-0.0882,0.0722,-0.0211,2.8083,1.3233,3.0002
2024-10-11T14:12:59.790Z,0.0244,-0.9338,0.2296,0.1454,-0.3290,0.0984,-0.0929,0.0750,-0.0194,2.8083,1.3233,3.0002
2024-10-11T14:12:59.799Z,0.0244,-0.9338,0.2296,0.1454,-0.3290,0.0984,-0.0942,0.0807,-0.0206,2.8083,1.3233,3.0002
2024-10-11T14:12:59.809Z,0.0258,-0.9339,0.2283,0.0602,-0.3304,0.0844,-0.0957,0.0759,-0.0183,2.8121,1.3260,2.9985
2024-10-11T14:12:59.818Z,0.0312,-0.9380,0.2345,0.0602,-0.3304,0.0844,-0.0992,0.0731,-0.0134,2.8121,1.3260,2.9985
2024-10-11T14:12:59.830Z,0.0318,-0.9461,0.2368,0.0602,-0.3304,0.0844,-0.0985,0.0733,-0.0136,2.8121,1.3260,2.9985
2024-10-11T14:12:59.840Z,0.0389,-0.9478,0.2446,-0.0242,-0.2356,-0.0406,-0.0935,0.0645,-0.0071,2.8151,1.3288,2.9973
2024-10-11T14:12:59.850Z,0.0318,-0.9534,0.2471,-0.0242,-0.2356,-0.0406,-0.0908,0.0617,-0.0027,2.8151,1.3288,2.9973
2024-10-11T14:12:59.860Z,0.0266,-0.9539,0.2511,-0.0242,-0.2356,-0.0406,-0.0903,0.0613,-0.0005,2.8151,1.3288,2.9973
2024-10-11T14:12:59.870Z,0.0224,-0.9590,0.2513,0.0894,-0.1538,-0.1751,-0.0863,0.0608,0.0001,2.8170,1.3315,2.9971
2024-10-11T14:12:59.879Z,0.0166,-0.9630,0.2543,0.0894,-0.1538,-0.1751,-0.0851,0.0623,-0.0009,2.8170,1.3315,2.9971
2024-10-11T14:12:59.890Z,0.0180,-0.9687,0.2532,0.0894,-0.1538,-0.1751,-0.0812,0.0677,-0.0017,2.8170,1.3315,2.9971
2024-10-11T14:12:59.900Z,0.0138,-0.9704,0.2539,0.1652,-0.0238,-0.2021,-0.0783,0.0715,-0.0030,2.8185,1.3339,2.9974
2024-10-11T14:12:59.909Z,0.0138,-0.9744,0.2541,0.1652,-0.0238,-0.2021,-0.0731,0.0783,-0.0063,2.8185,1.3339,2.9974
2024-10-11T14:12:59.919Z,0.0127,-0.9748,0.2512,0.1652,-0.0238,-0.2021,-0.0722,0.0828,-0.0060,2.8185,1.3339,2.9974
2024-10-11T14:12:59.930Z,0.0119,-0.9767,0.2474,0.2081,0.0329,-0.1859,-0.0694,0.0845,-0.0095,2.8205,1.3360,2.9975
2024-10-11T14:12:59.939Z,0.0129,-0.9768,0.2451,0.2081,0.0329,-0.1859,-0.0695,0.0871,-0.0111,2.8205,1.3360,2.9975
2024-10-11T14:12:59.951Z,0.0161,-0.9757,0.2470,0.2081,0.0329,-0.1859,-0.0697,0.0868,-0.0111,2.8205,1.3360,2.9975
2024-10-11T14:12:59.959Z,0.0161,-0.9757,0.2470,0.1518,0.0373,-0.1869,-0.0642,0.0837,-0.0096,2.8230,1.3380,2.9973
2024-10-11T14:12:59.971Z,0.0133,-0.9810,0.2410,0.1518,0.0373,-0.1869,-0.0641,0.0838,-0.0128,2.8230,1.3380,2.9973
2024-10-11T14:12:59.980Z,0.0158,-0.9783,0.2364,0.1518,0.0373,-0.1869,-0.0627,0.0831,-0.0137,2.8230,1.3380,2.9973
2024-10-11T14:12:59.990Z,0.0216,-0.9750,0.2322,0.1541,0.0308,-0.0777,-0.0557,0.0832,-0.0142,2.8259,1.3397,2.9968
2024-10-11T14:13:00.001Z,0.0244,-0.9730,0.2245,0.1541,0.0308,-0.0777,-0.0512,0.0808,-0.0174,2.8259,1.3397,2.9968
2024-10-11T14:13:00.011Z,0.0261,-0.9719,0.2150,0.1541,0.0308,-0.0777,-0.0436,0.0806,-0.0158,2.8259,1.3397,2.9968
2024-10-11T14:13:00.020Z,0.0266,-0.9697,0.2095,0.0673,-0.0312,0.1306,-0.0376,0.0764,-0.0187,2.8288,1.3410,2.9960
2024-10-11T14:13:00.030Z,0.0320,-0.9662,0.2044,0.0673,-0.0312,0.1306,-0.0327,0.0769,-0.0188,2.8288,1.3410,2.9960
2024-10-11T14:13:00.040Z,0.0389,-0.9612,0.1981,0.0673,-0.0312,0.1306,-0.0232,0.0711,-0.0141,2.8288,1.3410,2.9960
2024-10-11T14:13:00.051Z,0.0392,-0.9567,0.1924,-0.0662,-0.1532,0.2895,-0.0151,0.0697,-0.0107,2.8311,1.3417,2.9958
2024-10-11T14:13:00.060Z,0.0390,-0.9542,0.1866,-0.0662,-0.1532,0.2895,-0.0081,0.0739,-0.0086,2.8311,1.3417,2.9958
2024-10-11T14:13:00.069Z,0.0414,-0.9507,0.1831,-0.0662,-0.1532,0.2895,0.0001,0.0700,-0.0086,2.8311,1.3417,2.9958
2024-10-11T14:13:00.079Z,0.0407,-0.9487,0.1812,-0.0826,-0.2417,0.4123,0.0082,0.0720,-0.0065,2.8321,1.3417,2.9966
2024-10-11T14:13:00.089Z,0.0374,-0.9497,0.1810,-0.0826,-0.2417,0.4123,0.0172,0.0755,-0.0028,2.8321,1.3417,2.9966
2024-10-11T14:13:00.098Z,0.0374,-0.9497,0.1810,-0.0826,-0.2417,0.4123,0.0257,0.0807,-0.0047,2.8321,1.3417,2.9966
2024-10-11T14:13:00.109Z,0.0321,-0.9491,0.1848,-0.0012,-0.2411,0.4249,0.0346,0.0873,-0.0040,2.8320,1.3409,2.9989
2024-10-11T14:13:00.120Z,0.0312,-0.9506,0.1882,-0.0012,-0.2411,0.4249,0.0421,0.0924,-0.0014,2.8320,1.3409,2.9989
2024-10-11T14:13:00.129Z,0.0314,-0.9518,0.1929,-0.0012,-0.2411,0.4249,0.0506,0.0948,-0.0027,2.8320,1.3409,2.9989
2024-10-11T14:13:00.140Z,0.0321,-0.9542,0.1979,0.0128,-0.2045,0.3092,0.0577,0.0975,-0.0023,2.8313,1.3395,3.0021
2024-10-11T14:13:00.149Z,0.0321,-0.9542,0.1979,0.0128,-0.2045,0.3092,0.0645,0.1029,-0.0021,2.8313,1.3395,3.0021
2024-10-11T14:13:00.160Z,0.0324,-0.9537,0.2088,0.0128,-0.2045,0.3092,0.0700,0.1036,-0.0006,2.8313,1.3395,3.0021
2024-10-11T14:13:00.170Z,0.0302,-0.9574,0.2115,0.0067,-0.1645,0.1860,0.0748,0.1017,-0.0021,2.8301,1.3376,3.0060
2024-10-11T14:13:00.180Z,0.0273,-0.9574,0.2186,0.0067,-0.1645,0.1860,0.0745,0.1023,-0.0022,2.8301,1.3376,3.0060
2024-10-11T14:13:00.189Z,0.0264,-0.9571,0.2237,0.0067,-0.1645,0.1860,0.0801,0.1015,-0.0042,2.8301,1.3376,3.0060
2024-10-11T14:13:00.201Z,0.0297,-0.9600,0.2292,0.0131,-0.1420,0.0471,0.0785,0.1010,-0.0054,2.8292,1.3353,3.0097
2024-10-11T14:13:00.209Z,0.0243,-0.9639,0.2339,0.0131,-0.1420,0.0471,0.0782,0.1026,-0.0055,2.8292,1.3353,3.0097
2024-10-11T14:13:00.220Z,0.0254,-0.9673,0.2405,0.0131,-0.1420,0.0471,0.0779,0.1023,-0.0066,2.8292,1.3353,3.0097
2024-10-11T14:13:00.229Z,0.0277,-0.9726,0.2470,0.0332,-0.0179,-0.1071,0.0757,0.1032,-0.0095,2.8289,1.3329,3.0128
2024-10-11T14:13:00.239Z,0.0287,-0.9755,0.2514,0.0332,-0.0179,-0.1071,0.0739,0.0991,-0.0100,2.8289,1.3329,3.0128
2024-10-11T14:13:00.250Z,0.0306,-0.9785,0.2561,0.0332,-0.0179,-0.1071,0.0699,0.1021,-0.0130,2.8289,1.3329,3.0128
2024-10-11T14:13:00.259Z,0.0304,-0.9835,0.2619,-0.0076,0.1071,-0.2311,0.0635,0.1000,-0.0119,2.8291,1.3308,3.0153
2024-10-11T14:13:00.269Z,0.0344,-0.9849,0.2665,-0.0076,0.1071,-0.2311,0.0611,0.0989,-0.0132,2.8291,1.3308,3.0153
2024-10-11T14:13:00.279Z,0.0369,-0.9871,0.2695,-0.0076,0.1071,-0.2311,0.0558,0.0965,-0.0112,2.8291,1.3308,3.0153
2024-10-11T14:13:00.289Z,0.0346,-0.9875,0.2732,-0.0628,0.1633,-0.3357,0.0508,0.0937,-0.0140,2.8297,1.3290,3.0174
2024-10-11T14:13:00.300Z,0.0336,-0.9873,0.2743,-0.0628,0.1633,-0.3357,0.0441,0.0908,-0.0109,2.8297,1.3290,3.0174
2024-10-11T14:13:00.309Z,0.0327,-0.9875,0.2775,-0.0628,0.1633,-0.3357,0.0366,0.0891,-0.0107,2.8297,1.3290,3.0174
2024-10-11T14:13:00.319Z,0.0303,-0.9870,0.2823,-0.0155,0.1601,-0.4005,0.0336,0.0863,-0.0126,2.8304,1.3278,3.0191
2024-10-11T14:13:00.329Z,0.0318,-0.9866,0.2878,-0.0155,0.1601,-0.4005,0.0250,0.0872,-0.0160,2.8304,1.3278,3.0191
2024-10-11T14:13:00.339Z,0.0329,-0.9854,0.2897,-0.0155,0.1601,-0.4005,0.0161,0.0860,-0.0146,2.8304,1.3278,3.0191
2024-10-11T14:13:00.350Z,0.0333,-0.9847,0.2922,-0.0311,0.1530,-0.5107,0.0083,0.0867,-0.0138,2.8318,1.3272,3.0202
2024-10-11T14:13:00.359Z,0.0329,-0.9830,0.2932,-0.0311,0.1530,-0.5107,-0.0009,0.0849,-0.0154,2.8318,1.3272,3.0202
2024-10-11T14:13:00.369Z,0.0358,-0.9822,0.2928,-0.0311,0.1530,-0.5107,-0.0073,0.0828,-0.0144,2.8318,1.3272,3.0202
2024-10-11T14:13:00.380Z,0.0390,-0.9772,0.2909,-0.0823,0.0830,-0.5148,-0.0136,0.0797,-0.0159,2.8336,1.3273,3.0205
2024-10-11T14:13:00.390Z,0.0393,-0.9755,0.2865,-0.0823,0.0830,-0.5148,-0.0208,0.0763,-0.0147,2.8336,1.3273,3.0205
2024-10-11T14:13:00.401Z,0.0362,-0.9726,0.2833,-0.0823,0.0830,-0.5148,-0.0247,0.0716,-0.0118,2.8336,1.3273,3.0205
2024-10-11T14:13:00.409Z,0.0365,-0.9699,0.2768,-0.0725,0.0086,-0.4147,-0.0281,0.0672,-0.0119,2.8354,1.3279,3.0207
2024-10-11T14:13:00.420Z,0.0373,-0.9655,0.2684,-0.0725,0.0086,-0.4147,-0.0308,0.0667,-0.0135,2.8354,1.3279,3.0207
2024-10-11T14:13:00.429Z,0.0395,-0.9625,0.2601,-0.0725,0.0086,-0.4147,-0.0328,0.0652,-0.0112,2.8354,1.3279,3.0207
2024-10-11T14:13:00.439Z,0.0385,-0.9606,0.2541,-0.1013,-0.0899,-0.1944,-0.0381,0.0632,-0.0076,2.8371,1.3289,3.0208
2024-10-11T14:13:00.451Z,0.0356,-0.9579,0.2444,-0.1013,-0.0899,-0.1944,-0.0375,0.0611,-0.0092,2.8371,1.3289,3.0208
2024-10-11T14:13:00.459Z,0.0335,-0.9549,0.2401,-0.1013,-0.0899,-0.1944,-0.0380,0.0606,-0.0100,2.8371,1.3289,3.0208
2024-10-11T14:13:00.469Z,0.0379,-0.9529,0.2341,-0.0716,-0.1702,-0.0031,-0.0350,0.0608,-0.0084,2.8385,1.3299,3.0210
2024-10-11T14:13:00.479Z,0.0389,-0.9568,0.2296,-0.0716,-0.1702,-0.0031,-0.0351,0.0589,-0.0068,2.8385,1.3299,3.0210
2024-10-11T14:13:00.489Z,0.0394,-0.9568,0.2192,-0.0716,-0.1702,-0.0031,-0.0345,0.0603,-0.0044,2.8385,1.3299,3.0210
2024-10-11T14:13:00.500Z,0.0383,-0.9580,0.2125,-0.0969,-0.1407,0.2144,-0.0279,0.0572,-0.0036,2.8396,1.3309,3.0214
2024-10-11T14:13:00.509Z,0.0419,-0.9588,0.2097,-0.0969,-0.1407,0.2144,-0.0214,0.0576,-0.0015,2.8396,1.3309,3.0214
2024-10-11T14:13:00.519Z,0.0440,-0.9618,0.2063,-0.0969,-0.1407,0.2144,-0.0183,0.0583,-0.0001,2.8396,1.3309,3.0214
2024-10-11T14:13:00.529Z,0.0444,-0.9631,0.2011,-0.1565,-0.0858,0.3177,-0.0126,0.0596,0.0017,2.8400,1.3314,3.0226
2024-10-11T14:13:00.539Z,0.0414,-0.9669,0.1977,-0.1565,-0.0858,0.3177,-0.0072,0.0616,0.0046,2.8400,1.3314,3.0226
2024-10-11T14:13:00.550Z,0.0388,-0.9686,0.1944,-0.1565,-0.0858,0.3177,-0.0006,0.0627,0.0058,2.8400,1.3314,3.0226
2024-10-11T14:13:00.559Z,0.0357,-0.9701,0.1976,-0.0992,-0.0220,0.3995,0.0046,0.0631,0.0060,2.8392,1.3315,3.0250
2024-10-11T14:13:00.569Z,0.0309,-0.9718,0.2030,-0.0992,-0.0220,0.3995,0.0104,0.0637,0.0069,2.8392,1.3315,3.0250
2024-10-11T14:13:00.579Z,0.0285,-0.9725,0.2074,-0.0992,-0.0220,0.3995,0.0163,0.0636,0.0095,2.8392,1.3315,3.0250
2024-10-11T14:13:00.589Z,0.0249,-0.9759,0.2132,-0.0048,0.0310,0.2406,0.0210,0.0617,0.0067,2.8379,1.3311,3.0279
2024-10-11T14:13:00.601Z,0.0202,-0.9806,0.2170,-0.0048,0.0310,0.2406,0.0231,0.0644,0.0075,2.8379,1.3311,3.0279
2024-10-11T14:13:00.609Z,0.0206,-0.9826,0.2228,-0.0048,0.0310,0.2406,0.0278,0.0611,0.0091,2.8379,1.3311,3.0279
2024-10-11T14:13:00.619Z,0.0216,-0.9844,0.2291,0.0376,0.1177,0.1094,0.0267,0.0627,0.0066,2.8364,1.3303,3.0309
2024-10-11T14:13:00.630Z,0.0168,-0.9863,0.2347,0.0376,0.1177,0.1094,0.0319,0.0619,0.0065,2.8364,1.3303,3.0309
2024-10-11T14:13:00.639Z,0.0185,-0.9869,0.2384,0.0376,0.1177,0.1094,0.0331,0.0624,0.0065,2.8364,1.3303,3.0309
2024-10-11T14:13:00.649Z,0.0154,-0.9914,0.2396,0.0775,0.1857,-0.0114,0.0318,0.0621,0.0053,2.8352,1.3294,3.0337
2024-10-11T14:13:00.659Z,0.0147,-0.9948,0.2427,0.0775,0.1857,-0.0114,0.0331,0.0650,0.0047,2.8352,1.3294,3.0337
2024-10-11T14:13:00.669Z,0.0132,-0.9967,0.2456,0.0775,0.1857,-0.0114,0.0355,0.0654,0.0020,2.8352,1.3294,3.0337
2024-10-11T14:13:00.679Z,0.0122,-0.9965,0.2484,0.1184,0.2554,-0.0805,0.0302,0.0707,0.0022,2.8343,1.3284,3.0362
2024-10-11T14:13:00.689Z,0.0133,-0.9949,0.2518,0.1184,0.2554,-0.0805,0.0292,0.0739,0.0004,2.8343,1.3284,3.0362
2024-10-11T14:13:00.699Z,0.0116,-0.9925,0.2539,0.1184,0.2554,-0.0805,0.0263,0.0706,-0.0009,2.8343,1.3284,3.0362
2024-10-11T14:13:00.709Z,0.0147,-0.9901,0.2543,0.1232,0.2134,-0.1469,0.0264,0.0744,-0.0019,2.8341,1.3276,3.0383
2024-10-11T14:13:00.719Z,0.0170,-0.9879,0.2541,0.1232,0.2134,-0.1469,0.0234,0.0727,-0.0021,2.8341,1.3276,3.0383
2024-10-11T14:13:00.729Z,0.0195,-0.9870,0.2517,0.1232,0.2134,-0.1469,0.0215,0.0717,-0.0025,2.8341,1.3276,3.0383
2024-10-11T14:13:00.739Z,0.0169,-0.9857,0.2492,0.0445,0.1526,-0.1016,0.0203,0.0739,-0.0020,2.8339,1.3269,3.0404
2024-10-11T14:13:00.749Z,0.0167,-0.9847,0.2415,0.0445,0.1526,-0.1016,0.0217,0.0714,-0.0012,2.8339,1.3269,3.0404
2024-10-11T14:13:00.759Z,0.0142,-0.9799,0.2391,0.0445,0.1526,-0.1016,0.0182,0.0702,-0.0040,2.8339,1.3269,3.0404
2024-10-11T14:13:00.769Z,0.0153,-0.9770,0.2373,0.1062,0.0877,0.0262,0.0208,0.0696,-0.0061,2.8339,1.3263,3.0423
2024-10-11T14:13:00.779Z,0.0179,-0.9729,0.2336,0.1062,0.0877,0.0262,0.0220,0.0699,-0.0051,2.8339,1.3263,3.0423
2024-10-11T14:13:00.789Z,0.0187,-0.9673,0.2336,0.1062,0.0877,0.0262,0.0197,0.0711,-0.0080,2.8339,1.3263,3.0423
2024-10-11T14:13:00.801Z,0.0204,-0.9615,0.2343,0.0398,-0.0513,0.0695,0.0199,0.0733,-0.0095,2.8345,1.3256,3.0436
2024-10-11T14:13:00.809Z,0.0208,-0.9559,0.2339,0.0398,-0.0513,0.0695,0.0185,0.0735,-0.0112,2.8345,1.3256,3.0436
2024-10-11T14:13:00.820Z,0.0249,-0.9506,0.2364,0.0398,-0.0513,0.0695,0.0166,0.0766,-0.0119,2.8345,1.3256,3.0436
2024-10-11T14:13:00.829Z,0.0252,-0.9462,0.2349,-0.0214,-0.2182,0.0530,0.0159,0.0758,-0.0137,2.8356,1.3250,3.0445
2024-10-11T14:13:00.839Z,0.0255,-0.9413,0.2360,-0.0214,-0.2182,0.0530,0.0125,0.0756,-0.0150,2.8356,1.3250,3.0445
2024-10-11T14:13:00.851Z,0.0268,-0.9374,0.2372,-0.0214,-0.2182,0.0530,0.0122,0.0715,-0.0140,2.8356,1.3250,3.0445
2024-10-11T14:13:00.859Z,0.0256,-0.9351,0.2381,-0.0357,-0.3290,0.0571,0.0111,0.0664,-0.0148,2.8371,1.3246,3.0450
2024-10-11T14:13:00.869Z,0.0248,-0.9348,0.2386,-0.0357,-0.3290,0.0571,0.0090,0.0645,-0.0152,2.8371,1.3246,3.0450
2024-10-11T14:13:00.879Z,0.0248,-0.9333,0.2398,-0.0357,-0.3290,0.0571,0.0065,0.0573,-0.0163,2.8371,1.3246,3.0450
2024-10-11T14:13:00.889Z,0.0220,-0.9340,0.2395,0.0005,-0.3562,0.0346,0.0061,0.0528,-0.0144,2.8387,1.3244,3.0450
2024-10-11T14:13:00.900Z,0.0236,-0.9337,0.2380,0.0005,-0.3562,0.0346,0.0069,0.0505,-0.0157,2.8387,1.3244,3.0450
2024-10-11T14:13:00.909Z,0.0227,-0.9378,0.2378,0.0005,-0.3562,0.0346,0.0051,0.0456,-0.0185,2.8387,1.3244,3.0450
2024-10-11T14:13:00.919Z,0.0227,-0.9432,0.2369,0.0079,-0.2854,0.0511,0.0081,0.0415,-0.0175,2.8405,1.3242,3.0444
2024-10-11T14:13:00.929Z,0.0238,-0.9462,0.2349,0.0079,-0.2854,0.0511,0.0076,0.0400,-0.0193,2.8405,1.3242,3.0444
2024-10-11T14:13:00.939Z,0.0237,-0.9484,0.2338,0.0079,-0.2854,0.0511,0.0121,0.0344,-0.0187,2.8405,1.3242,3.0444
2024-10-11T14:13:00.950Z,0.0271,-0.9526,0.2306,-0.0106,-0.1920,0.1086,0.0096,0.0361,-0.0171,2.8425,1.3238,3.0433
2024-10-11T14:13:00.959Z,0.0292,-0.9557,0.2289,-0.0106,-0.1920,0.1086,0.0119,0.0353,-0.0167,2.8425,1.3238,3.0433
2024-10-11T14:13:00.969Z,0.0292,-0.9599,0.2294,-0.0106,-0.1920,0.1086,0.0135,0.0309,-0.0188,2.8425,1.3238,3.0433
2024-10-11T14:13:00.979Z,0.0260,-0.9643,0.2313,-0.0269,-0.0768,0.1231,0.0121,0.0301,-0.0186,2.8445,1.3234,3.0421
2024-10-11T14:13:00.989Z,0.0258,-0.9698,0.2339,-0.0269,-0.0768,0.1231,0.0138,0.0279,-0.0193,2.8445,1.3234,3.0421
2024-10-11T14:13:01.000Z,0.0242,-0.9763,0.2357,-0.0269,-0.0768,0.1231,0.0126,0.0249,-0.0168,2.8445,1.3234,3.0421
2024-10-11T14:13:01.009Z,0.0238,-0.9804,0.2378,-0.0077,0.0916,0.0700,0.0163,0.0240,-0.0165,2.8463,1.3229,3.0409
2024-10-11T14:13:01.019Z,0.0218,-0.9837,0.2405,-0.0077,0.0916,0.0700,0.0168,0.0247,-0.0183,2.8463,1.3229,3.0409
2024-10-11T14:13:01.029Z,0.0246,-0.9868,0.2459,-0.0077,0.0916,0.0700,0.0176,0.0243,-0.0164,2.8463,1.3229,3.0409
2024-10-11T14:13:01.039Z,0.0260,-0.9896,0.2519,-0.0049,0.1869,-0.0454,0.0171,0.0241,-0.0167,2.8481,1.3224,3.0397
2024-10-11T14:13:01.050Z,0.0253,-0.9920,0.2579,-0.0049,0.1869,-0.0454,0.0174,0.0235,-0.0161,2.8481,1.3224,3.0397
2024-10-11T14:13:01.059Z,0.0250,-0.9924,0.2625,-0.0049,0.1869,-0.0454,0.0133,0.0251,-0.0150,2.8481,1.3224,3.0397
2024-10-11T14:13:01.070Z,0.0219,-0.9932,0.2635,0.0158,0.2307,-0.1723,0.0150,0.0247,-0.0143,2.8497,1.3219,3.0385
2024-10-11T14:13:01.080Z,0.0219,-0.9941,0.2619,0.0158,0.2307,-0.1723,0.0114,0.0220,-0.0165,2.8497,1.3219,3.0385
2024-10-11T14:13:01.089Z,0.0187,-0.9910,0.2619,0.0158,0.2307,-0.1723,0.0104,0.0222,-0.0167,2.8497,1.3219,3.0385
2024-10-11T14:13:01.100Z,0.0142,-0.9907,0.2619,0.1003,0.2197,-0.1620,0.0138,0.0201,-0.0168,2.8514,1.3215,3.0373
2024-10-11T14:13:01.109Z,0.0157,-0.9885,0.2656,0.1003,0.2197,-0.1620,0.0098,0.0195,-0.0195,2.8514,1.3215,3.0373
2024-10-11T14:13:01.119Z,0.0163,-0.9870,0.2692,0.1003,0.2197,-0.1620,0.0064,0.0200,-0.0179,2.8514,1.3215,3.0373
2024-10-11T14:13:01.129Z,0.0186,-0.9857,0.2694,0.0823,0.1660,-0.2267,0.0033,0.0216,-0.0210,2.8536,1.3211,3.0355
2024-10-11T14:13:01.139Z,0.0165,-0.9848,0.2709,0.0823,0.1660,-0.2267,0.0049,0.0216,-0.0227,2.8536,1.3211,3.0355
2024-10-11T14:13:01.150Z,0.0174,-0.9833,0.2708,0.0823,0.1660,-0.2267,0.0007,0.0220,-0.0218,2.8536,1.3211,3.0355
2024-10-11T14:13:01.159Z,0.0174,-0.9817,0.2707,0.0890,0.1327,-0.2408,-0.0012,0.0211,-0.0227,2.8561,1.3210,3.0335
2024-10-11T14:13:01.169Z,0.0207,-0.9794,0.2725,0.0890,0.1327,-0.2408,-0.0035,0.0231,-0.0224,2.8561,1.3210,3.0335
2024-10-11T14:13:01.179Z,0.0227,-0.9773,0.2725,0.0890,0.1327,-0.2408,-0.0054,0.0250,-0.0234,2.8561,1.3210,3.0335
2024-10-11T14:13:01.189Z,0.0237,-0.9756,0.2704,0.0330,0.0772,-0.2497,-0.0102,0.0267,-0.0256,2.8588,1.3211,3.0313
2024-10-11T14:13:01.200Z,0.0205,-0.9724,0.2705,0.0330,0.0772,-0.2497,-0.0125,0.0252,-0.0228,2.8588,1.3211,3.0313
2024-10-11T14:13:01.209Z,0.0210,-0.9669,0.2708,0.0330,0.0772,-0.2497,-0.0159,0.0288,-0.0236,2.8588,1.3211,3.0313
2024-10-11T14:13:01.220Z,0.0221,-0.9637,0.2701,0.0594,-0.0367,-0.2494,-0.0193,0.0291,-0.0230,2.8617,1.3214,3.0290
2024-10-11T14:13:01.229Z,0.0234,-0.9636,0.2722,0.0594,-0.0367,-0.2494,-0.0221,0.0301,-0.0254,2.8617,1.3214,3.0290
2024-10-11T14:13:01.239Z,0.0247,-0.9617,0.2758,0.0594,-0.0367,-0.2494,-0.0272,0.0341,-0.0236,2.8617,1.3214,3.0290
2024-10-11T14:13:01.250Z,0.0256,-0.9647,0.2769,0.0309,-0.0634,-0.3144,-0.0312,0.0339,-0.0235,2.8648,1.3221,3.0267
2024-10-11T14:13:01.259Z,0.0285,-0.9647,0.2793,0.0309,-0.0634,-0.3144,-0.0345,0.0335,-0.0230,2.8648,1.3221,3.0267
2024-10-11T14:13:01.270Z,0.0277,-0.9661,0.2794,0.0309,-0.0634,-0.3144,-0.0394,0.0364,-0.0231,2.8648,1.3221,3.0267
2024-10-11T14:13:01.279Z,0.0293,-0.9688,0.2819,0.0034,-0.0234,-0.3658,-0.0419,0.0375,-0.0197,2.8678,1.3231,3.0246
2024-10-11T14:13:01.290Z,0.0298,-0.9714,0.2865,0.0034,-0.0234,-0.3658,-0.0497,0.0364,-0.0203,2.8678,1.3231,3.0246
2024-10-11T14:13:01.301Z,0.0267,-0.9745,0.2896,0.0034,-0.0234,-0.3658,-0.0501,0.0386,-0.0188,2.8678,1.3231,3.0246
2024-10-11T14:13:01.309Z,0.0270,-0.9739,0.2875,0.0145,0.0390,-0.4627,-0.0535,0.0409,-0.0182,2.8708,1.3245,3.0226
2024-10-11T14:13:01.319Z,0.0251,-0.9772,0.2824,0.0145,0.0390,-0.4627,-0.0595,0.0402,-0.0184,2.8708,1.3245,3.0226
2024-10-11T14:13:01.329Z,0.0259,-0.9775,0.2769,0.0145,0.0390,-0.4627,-0.0595,0.0434,-0.0185,2.8708,1.3245,3.0226
2024-10-11T14:13:01.339Z,0.0286,-0.9791,0.2720,0.0207,0.0768,-0.3313,-0.0625,0.0422,-0.0169,2.8738,1.3261,3.0208
2024-10-11T14:13:01.350Z,0.0303,-0.9806,0.2653,0.0207,0.0768,-0.3313,-0.0618,0.0512,-0.0164,2.8738,1.3261,3.0208
2024-10-11T14:13:01.359Z,0.0312,-0.9828,0.2588,0.0207,0.0768,-0.3313,-0.0607,0.0544,-0.0150,2.8738,1.3261,3.0208
2024-10-11T14:13:01.369Z,0.0306,-0.9844,0.2532,-0.0200,0.1269,-0.1649,-0.0625,0.0558,-0.0148,2.8765,1.3279,3.0195
2024-10-11T14:13:01.379Z,0.0298,-0.9893,0.2480,-0.0200,0.1269,-0.1649,-0.0655,0.0612,-0.0126,2.8765,1.3279,3.0195
2024-10-11T14:13:01.389Z,0.0309,-0.9915,0.2424,-0.0200,0.1269,-0.1649,-0.0606,0.0611,-0.0112,2.8765,1.3279,3.0195
2024-10-11T14:13:01.401Z,0.0314,-0.9931,0.2420,-0.0173,0.2016,-0.0559,-0.0591,0.0662,-0.0120,2.8788,1.3297,3.0188
2024-10-11T14:13:01.409Z,0.0313,-0.9939,0.2386,-0.0173,0.2016,-0.0559,-0.0559,0.0683,-0.0100,2.8788,1.3297,3.0188
2024-10-11T14:13:01.419Z,0.0280,-0.9928,0.2372,-0.0173,0.2016,-0.0559,-0.0544,0.0699,-0.0097,2.8788,1.3297,3.0188
2024-10-11T14:13:01.429Z,0.0282,-0.9943,0.2354,0.0068,0.2258,-0.0085,-0.0527,0.0707,-0.0092,2.8808,1.3313,3.0187
2024-10-11T14:13:01.439Z,0.0291,-0.9916,0.2315,0.0068,0.2258,-0.0085,-0.0510,0.0745,-0.0081,2.8808,1.3313,3.0187
2024-10-11T14:13:01.450Z,0.0320,-0.9868,0.2279,0.0068,0.2258,-0.0085,-0.0496,0.0742,-0.0080,2.8808,1.3313,3.0187
2024-10-11T14:13:01.459Z,0.0307,-0.9825,0.2263,-0.0287,0.1283,0.0796,-0.0450,0.0784,-0.0086,2.8823,1.3327,3.0193
2024-10-11T14:13:01.469Z,0.0294,-0.9772,0.2227,-0.0287,0.1283,0.0796,-0.0452,0.0819,-0.0066,2.8823,1.3327,3.0193
2024-10-11T14:13:01.479Z,0.0298,-0.9723,0.2195,-0.0287,0.1283,0.0796,-0.0404,0.0828,-0.0044,2.8823,1.3327,3.0193
2024-10-11T14:13:01.489Z,0.0292,-0.9671,0.2191,-0.0016,-0.0284,0.1439,-0.0349,0.0843,-0.0034,2.8835,1.3338,3.0202
2024-10-11T14:13:01.501Z,0.0293,-0.9651,0.2202,-0.0016,-0.0284,0.1439,-0.0334,0.0832,-0.0066,2.8835,1.3338,3.0202
2024-10-11T14:13:01.510Z,0.0242,-0.9623,0.2181,-0.0016,-0.0284,0.1439,-0.0335,0.0872,-0.0040,2.8835,1.3338,3.0202
2024-10-11T14:13:01.519Z,0.0245,-0.9589,0.2164,0.0402,-0.1028,0.1493,-0.0277,0.0872,-0.0031,2.8845,1.3347,3.0216
2024-10-11T14:13:01.529Z,0.0230,-0.9574,0.2152,0.0402,-0.1028,0.1493,-0.0260,0.0872,-0.0065,2.8845,1.3347,3.0216
2024-10-11T14:13:01.538Z,0.0181,-0.9551,0.2145,0.0402,-0.1028,0.1493,-0.0237,0.0874,-0.0063,2.8845,1.3347,3.0216
2024-10-11T14:13:01.549Z,0.0183,-0.9514,0.2159,0.0941,-0.1872,0.1515,-0.0243,0.0856,-0.0102,2.8857,1.3354,3.0228
2024-10-11T14:13:01.559Z,0.0131,-0.9485,0.2153,0.0941,-0.1872,0.1515,-0.0201,0.0858,-0.0105,2.8857,1.3354,3.0228
2024-10-11T14:13:01.568Z,0.0159,-0.9454,0.2169,0.0941,-0.1872,0.1515,-0.0178,0.0852,-0.0119,2.8857,1.3354,3.0228
2024-10-11T14:13:01.579Z,0.0184,-0.9413,0.2168,0.0906,-0.2801,0.1377,-0.0171,0.0805,-0.0131,2.8875,1.3360,3.0233
2024-10-11T14:13:01.589Z,0.0192,-0.9389,0.2182,0.0906,-0.2801,0.1377,-0.0164,0.0796,-0.0155,2.8875,1.3360,3.0233
2024-10-11T14:13:01.599Z,0.0189,-0.9363,0.2199,0.0906,-0.2801,0.1377,-0.0164,0.0789,-0.0172,2.8875,1.3360,3.0233
2024-10-11T14:13:01.609Z,0.0189,-0.9355,0.2240,0.0814,-0.3586,0.0783,-0.0162,0.0794,-0.0170,2.8896,1.3363,3.0234
2024-10-11T14:13:01.619Z,0.0193,-0.9338,0.2278,0.0814,-0.3586,0.0783,-0.0147,0.0756,-0.0194,2.8896,1.3363,3.0234
2024-10-11T14:13:01.629Z,0.0210,-0.9342,0.2312,0.0814,-0.3586,0.0783,-0.0164,0.0729,-0.0170,2.8896,1.3363,3.0234
2024-10-11T14:13:01.639Z,0.0211,-0.9337,0.2345,0.0563,-0.3941,-0.0317,-0.0157,0.0722,-0.0188,2.8921,1.3367,3.0230
2024-10-11T14:13:01.649Z,0.0202,-0.9362,0.2369,0.0563,-0.3941,-0.0317,-0.0174,0.0702,-0.0190,2.8921,1.3367,3.0230
2024-10-11T14:13:01.659Z,0.0208,-0.9406,0.2395,0.0563,-0.3941,-0.0317,-0.0176,0.0669,-0.0205,2.8921,1.3367,3.0230
2024-10-11T14:13:01.669Z,0.0207,-0.9448,0.2412,0.0735,-0.2914,-0.0948,-0.0167,0.0621,-0.0218,2.8946,1.3372,3.0222
2024-10-11T14:13:01.679Z,0.0228,-0.9498,0.2400,0.0735,-0.2914,-0.0948,-0.0176,0.0616,-0.0212,2.8946,1.3372,3.0222
2024-10-11T14:13:01.689Z,0.0208,-0.9529,0.2377,0.0735,-0.2914,-0.0948,-0.0172,0.0579,-0.0221,2.8946,1.3372,3.0222
2024-10-11T14:13:01.699Z,0.0212,-0.9559,0.2353,0.0814,-0.1846,-0.0722,-0.0162,0.0595,-0.0228,2.8974,1.3376,3.0210
2024-10-11T14:13:01.709Z,0.0210,-0.9609,0.2341,0.0814,-0.1846,-0.0722,-0.0159,0.0587,-0.0225,2.8974,1.3376,3.0210
2024-10-11T14:13:01.718Z,0.0276,-0.9624,0.2368,0.0814,-0.1846,-0.0722,-0.0124,0.0577,-0.0188,2.8974,1.3376,3.0210
2024-10-11T14:13:01.730Z,0.0283,-0.9648,0.2364,-0.0299,-0.0879,-0.0873,-0.0165,0.0603,-0.0237,2.9005,1.3379,3.0195
2024-10-11T14:13:01.739Z,0.0177,-0.9670,0.2306,-0.0299,-0.0879,-0.0873,-0.0125,0.0606,-0.0231,2.9005,1.3379,3.0195
2024-10-11T14:13:01.749Z,0.0250,-0.9680,0.2318,-0.0299,-0.0879,-0.0873,-0.0134,0.0606,-0.0241,2.9005,1.3379,3.0195
2024-10-11T14:13:01.759Z,0.0270,-0.9726,0.2326,0.0203,-0.0377,-0.0448,-0.0118,0.0590,-0.0221,2.9037,1.3382,3.0179
2024-10-11T14:13:01.768Z,0.0268,-0.9769,0.2315,0.0203,-0.0377,-0.0448,-0.0143,0.0599,-0.0252,2.9037,1.3382,3.0179
2024-10-11T14:13:01.779Z,0.0284,-0.9784,0.2309,0.0203,-0.0377,-0.0448,-0.0102,0.0601,-0.0254,2.9037,1.3382,3.0179
2024-10-11T14:13:01.789Z,0.0300,-0.9832,0.2276,-0.0005,0.0802,-0.0057,-0.0112,0.0619,-0.0241,2.9070,1.3385,3.0163
2024-10-11T14:13:01.799Z,0.0344,-0.9824,0.2257,-0.0005,0.0802,-0.0057,-0.0063,0.0614,-0.0225,2.9070,1.3385,3.0163
2024-10-11T14:13:01.809Z,0.0363,-0.9851,0.2260,-0.0005,0.0802,-0.0057,-0.0076,0.0608,-0.0212,2.9070,1.3385,3.0163
2024-10-11T14:13:01.818Z,0.0352,-0.9835,0.2227,-0.0707,0.1117,0.0412,-0.0037,0.0605,-0.0211,2.9099,1.3386,3.0151
2024-10-11T14:13:01.829Z,0.0348,-0.9818,0.2204,-0.0707,0.1117,0.0412,-0.0002,0.0624,-0.0206,2.9099,1.3386,3.0151
2024-10-11T14:13:01.839Z,0.0368,-0.9805,0.2185,-0.0707,0.1117,0.0412,0.0022,0.0592,-0.0177,2.9099,1.3386,3.0151
2024-10-11T14:13:01.849Z,0.0370,-0.9775,0.2166,-0.0723,0.0539,0.1107,0.0045,0.0607,-0.0183,2.9122,1.3384,3.0144
2024-10-11T14:13:01.859Z,0.0409,-0.9733,0.2173,-0.0723,0.0539,0.1107,0.0098,0.0583,-0.0148,2.9122,1.3384,3.0144
2024-10-11T14:13:01.869Z,0.0378,-0.9707,0.2159,-0.0723,0.0539,0.1107,0.0118,0.0567,-0.0140,2.9122,1.3384,3.0144
2024-10-11T14:13:01.879Z,0.0359,-0.9708,0.2156,-0.0562,-0.0141,0.1247,0.0143,0.0580,-0.0151,2.9139,1.3381,3.0142
2024-10-11T14:13:01.889Z,0.0412,-0.9652,0.2127,-0.0562,-0.0141,0.1247,0.0156,0.0520,-0.0134,2.9139,1.3381,3.0142
2024-10-11T14:13:01.899Z,0.0455,-0.9623,0.2113,-0.0562,-0.0141,0.1247,0.0197,0.0504,-0.0130,2.9139,1.3381,3.0142
2024-10-11T14:13:01.909Z,0.0397,-0.9647,0.2108,-0.1282,-0.0876,0.1751,0.0217,0.0504,-0.0124,2.9151,1.3375,3.0144
2024-10-11T14:13:01.919Z,0.0475,-0.9616,0.2104,-0.1282,-0.0876,0.1751,0.0235,0.0514,-0.0072,2.9151,1.3375,3.0144
2024-10-11T14:13:01.929Z,0.0464,-0.9611,0.2097,-0.1282,-0.0876,0.1751,0.0266,0.0483,-0.0051,2.9151,1.3375,3.0144
2024-10-11T14:13:01.939Z,0.0504,-0.9569,0.2089,-0.1759,-0.1327,0.2064,0.0305,0.0450,-0.0047,2.9153,1.3367,3.0153
2024-10-11T14:13:01.950Z,0.0501,-0.9590,0.2113,-0.1759,-0.1327,0.2064,0.0291,0.0442,-0.0019,2.9153,1.3367,3.0153
2024-10-11T14:13:01.959Z,0.0459,-0.9578,0.2151,-0.1759,-0.1327,0.2064,0.0355,0.0427,0.0001,2.9153,1.3367,3.0153
2024-10-11T14:13:01.969Z,0.0432,-0.9589,0.2165,-0.1680,-0.1387,0.1464,0.0341,0.0469,0.0016,2.9147,1.3356,3.0170
2024-10-11T14:13:01.981Z,0.0381,-0.9594,0.2197,-0.1680,-0.1387,0.1464,0.0406,0.0445,0.0065,2.9147,1.3356,3.0170
2024-10-11T14:13:01.989Z,0.0430,-0.9581,0.2230,-0.1680,-0.1387,0.1464,0.0406,0.0445,0.0065,2.9147,1.3356,3.0170
2024-10-11T14:13:02.000Z,0.0408,-0.9593,0.2245,-0.1258,-0.1374,0.0858,0.0414,0.0456,0.0084,2.9134,1.3345,3.0194
2024-10-11T14:13:02.010Z,0.0417,-0.9607,0.2298,-0.1258,-0.1374,0.0858,0.0403,0.0454,0.0085,2.9134,1.3345,3.0194
2024-10-11T14:13:02.019Z,0.0351,-0.9640,0.2330,-0.1258,-0.1374,0.0858,0.0403,0.0454,0.0085,2.9134,1.3345,3.0194
2024-10-11T14:13:02.030Z,0.0313,-0.9681,0.2370,-0.0493,-0.0496,-0.0228,0.0398,0.0445,0.0107,2.9115,1.3334,3.0224
2024-10-11T14:13:02.039Z,0.0278,-0.9733,0.2375,-0.0493,-0.0496,-0.0228,0.0398,0.0445,0.0107,2.9115,1.3334,3.0224
2024-10-11T14:13:02.050Z,0.0282,-0.9771,0.2415,-0.0493,-0.0496,-0.0228,0.0359,0.0390,0.0075,2.9115,1.3334,3.0224
2024-10-11T14:13:02.060Z,0.0285,-0.9786,0.2428,-0.0149,0.0663,-0.0727,0.0352,0.0396,0.0073,2.9096,1.3323,3.0252
2024-10-11T14:13:02.069Z,0.0289,-0.9798,0.2473,-0.0149,0.0663,-0.0727,0.0352,0.0396,0.0073,2.9096,1.3323,3.0252
2024-10-11T14:13:02.080Z,0.0277,-0.9828,0.2493,-0.0149,0.0663,-0.0727,0.0307,0.0347,0.0071,2.9096,1.3323,3.0252
2024-10-11T14:13:02.089Z,0.0275,-0.9837,0.2484,-0.0112,0.1263,-0.1281,0.0307,0.0347,0.0071,2.9081,1.3313,3.0275
2024-10-11T14:13:02.100Z,0.0282,-0.9828,0.2496,-0.0112,0.1263,-0.1281,0.0265,0.0296,0.0059,2.9081,1.3313,3.0275
2024-10-11T14:13:02.110Z,0.0288,-0.9837,0.2505,-0.0112,0.1263,-0.1281,0.0235,0.0251,0.0078,2.9081,1.3313,3.0275
2024-10-11T14:13:02.119Z,0.0289,-0.9847,0.2488,-0.0203,0.1297,-0.1322,0.0235,0.0251,0.0078,2.9069,1.3305,3.0294
2024-10-11T14:13:02.129Z,0.0289,-0.9830,0.2477,-0.0203,0.1297,-0.1322,0.0251,0.0257,0.0067,2.9069,1.3305,3.0294
2024-10-11T14:13:02.140Z,0.0289,-0.9847,0.2504,-0.0203,0.1297,-0.1322,0.0211,0.0206,0.0065,2.9069,1.3305,3.0294
2024-10-11T14:13:02.150Z,0.0325,-0.9840,0.2500,-0.0426,0.1279,-0.1271,0.0193,0.0203,0.0076,2.9057,1.3298,3.0310
2024-10-11T14:13:02.159Z,0.0342,-0.9832,0.2487,-0.0426,0.1279,-0.1271,0.0193,0.0203,0.0076,2.9057,1.3298,3.0310
2024-10-11T14:13:02.170Z,0.0347,-0.9871,0.2469,-0.0426,0.1279,-0.1271,0.0162,0.0183,0.0082,2.9057,1.3298,3.0310
2024-10-11T14:13:02.180Z,0.0350,-0.9844,0.2459,-0.0854,0.1458,-0.0920,0.0175,0.0156,0.0113,2.9043,1.3293,3.0326
2024-10-11T14:13:02.190Z,0.0375,-0.9848,0.2442,-0.0854,0.1458,-0.0920,0.0135,0.0165,0.0122,2.9043,1.3293,3.0326
2024-10-11T14:13:02.200Z,0.0364,-0.9844,0.2466,-0.0854,0.1458,-0.0920,0.0140,0.0175,0.0152,2.9043,1.3293,3.0326
2024-10-11T14:13:02.209Z,0.0381,-0.9821,0.2493,-0.1070,0.1186,-0.1024,0.0139,0.0156,0.0154,2.9026,1.3288,3.0345
2024-10-11T14:13:02.220Z,0.0374,-0.9799,0.2515,-0.1070,0.1186,-0.1024,0.0144,0.0152,0.0173,2.9026,1.3288,3.0345
2024-10-11T14:13:02.230Z,0.0345,-0.9770,0.2509,-0.1070,0.1186,-0.1024,0.0108,0.0121,0.0198,2.9026,1.3288,3.0345
2024-10-11T14:13:02.239Z,0.0338,-0.9747,0.2514,-0.0904,0.0507,-0.1233,0.0063,0.0133,0.0177,2.9004,1.3284,3.0369
2024-10-11T14:13:02.250Z,0.0312,-0.9709,0.2512,-0.0904,0.0507,-0.1233,0.0043,0.0129,0.0187,2.9004,1.3284,3.0369
2024-10-11T14:13:02.259Z,0.0307,-0.9693,0.2504,-0.0904,0.0507,-0.1233,0.0028,0.0101,0.0216,2.9004,1.3284,3.0369
2024-10-11T14:13:02.268Z,0.0300,-0.9690,0.2536,-0.0628,-0.0085,-0.1206,0.0028,0.0101,0.0216,2.8980,1.3283,3.0392
2024-10-11T14:13:02.280Z,0.0254,-0.9683,0.2547,-0.0628,-0.0085,-0.1206,-0.0053,0.0093,0.0165,2.8980,1.3283,3.0392
2024-10-11T14:13:02.290Z,0.0251,-0.9688,0.2519,-0.0628,-0.0085,-0.1206,-0.0036,0.0067,0.0183,2.8980,1.3283,3.0392
2024-10-11T14:13:02.300Z,0.0246,-0.9703,0.2478,-0.0060,-0.0033,-0.0989,-0.0046,0.0035,0.0158,2.8957,1.3283,3.0414
2024-10-11T14:13:02.310Z,0.0286,-0.9726,0.2449,-0.0060,-0.0033,-0.0989,-0.0061,0.0059,0.0185,2.8957,1.3283,3.0414
2024-10-11T14:13:02.320Z,0.0273,-0.9735,0.2414,-0.0060,-0.0033,-0.0989,-0.0053,0.0047,0.0155,2.8957,1.3283,3.0414
2024-10-11T14:13:02.329Z,0.0295,-0.9728,0.2357,-0.0366,0.0208,-0.0033,-0.0021,0.0028,0.0158,2.8936,1.3285,3.0433
2024-10-11T14:13:02.339Z,0.0281,-0.9850,0.2351,-0.0366,0.0208,-0.0033,-0.0028,0.0035,0.0174,2.8936,1.3285,3.0433
2024-10-11T14:13:02.349Z,0.0256,-1.0062,0.2288,-0.0366,0.0208,-0.0033,-0.0023,0.0006,0.0167,2.8936,1.3285,3.0433
2024-10-11T14:13:02.359Z,0.0305,-1.0204,0.2288,-0.0575,0.4327,0.0995,0.0033,0.0003,0.0183,2.8913,1.3285,3.0453
2024-10-11T14:13:02.370Z,0.0312,-1.0167,0.2264,-0.0575,0.4327,0.0995,0.0033,0.0003,0.0183,2.8913,1.3285,3.0453
2024-10-11T14:13:02.380Z,0.0357,-1.0186,0.2336,-0.0575,0.4327,0.0995,0.0065,-0.0024,0.0183,2.8913,1.3285,3.0453
2024-10-11T14:13:02.390Z,0.0359,-1.0166,0.2339,-0.1210,0.4585,0.0775,0.0050,-0.0020,0.0181,2.8889,1.3285,3.0474
2024-10-11T14:13:02.400Z,0.0340,-1.0122,0.2242,-0.1210,0.4585,0.0775,0.0066,-0.0020,0.0191,2.8889,1.3285,3.0474
2024-10-11T14:13:02.410Z,0.0307,-1.0061,0.2312,-0.1230,0.3297,0.0889,0.0069,-0.0034,0.0178,2.8864,1.3283,3.0494
2024-10-11T14:13:02.420Z,0.0383,-1.0019,0.2337,-0.1230,0.3297,0.0889,0.0067,-0.0071,0.0200,2.8864,1.3283,3.0494
2024-10-11T14:13:02.430Z,0.0329,-0.9989,0.2456,-0.1230,0.3297,0.0889,0.0026,-0.0093,0.0176,2.8864,1.3283,3.0494
2024-10-11T14:13:02.440Z,0.0245,-0.9971,0.2537,-0.1230,0.3297,0.0889,-0.0003,-0.0105,0.0151,2.8864,1.3283,3.0494
2024-10-11T14:13:02.450Z,0.0214,-0.9934,0.2512,-0.0067,0.2570,-0.1504,-0.0001,-0.0133,0.0142,2.8842,1.3283,3.0510
2024-10-11T14:13:02.460Z,0.0221,-0.9955,0.2501,-0.0067,0.2570,-0.1504,-0.0002,-0.0168,0.0092,2.8842,1.3283,3.0510
2024-10-11T14:13:02.471Z,0.0209,-1.0075,0.2463,-0.0141,0.4039,-0.0162,-0.0002,-0.0168,0.0092,2.8825,1.3283,3.0519
2024-10-11T14:13:02.479Z,0.0240,-1.0087,0.2400,-0.0141,0.4039,-0.0162,-0.0008,-0.0234,0.0071,2.8825,1.3283,3.0519
2024-10-11T14:13:02.489Z,0.0177,-0.9933,0.2496,-0.0141,0.4039,-0.0162,-0.0058,-0.0275,0.0067,2.8825,1.3283,3.0519
2024-10-11T14:13:02.499Z,0.0142,-0.9728,0.2590,-0.0141,0.4039,-0.0162,-0.0074,-0.0310,0.0040,2.8825,1.3283,3.0519
2024-10-11T14:13:02.509Z,0.0114,-0.9720,0.2517,0.0911,0.0127,-0.2226,-0.0098,-0.0369,0.0004,2.8816,1.3285,3.0517
2024-10-11T14:13:02.521Z,0.0195,-0.9694,0.2517,0.0911,0.0127,-0.2226,-0.0154,-0.0367,-0.0001,2.8816,1.3285,3.0517
2024-10-11T14:13:02.530Z,0.0204,-0.9595,0.2513,0.0058,-0.1233,-0.1760,-0.0163,-0.0405,-0.0026,2.8816,1.3289,3.0503
2024-10-11T14:13:02.539Z,0.0220,-0.9606,0.2522,0.0058,-0.1233,-0.1760,-0.0199,-0.0469,-0.0022,2.8816,1.3289,3.0503
2024-10-11T14:13:02.549Z,0.0162,-0.9629,0.2448,0.0058,-0.1233,-0.1760,-0.0228,-0.0465,-0.0030,2.8816,1.3289,3.0503
2024-10-11T14:13:02.560Z,0.0172,-0.9633,0.2408,0.0248,-0.0587,-0.0035,-0.0206,-0.0493,-0.0036,2.8820,1.3295,3.0482
2024-10-11T14:13:02.569Z,0.0198,-0.9657,0.2348,0.0248,-0.0587,-0.0035,-0.0206,-0.0493,-0.0036,2.8820,1.3295,3.0482
2024-10-11T14:13:02.579Z,0.0239,-0.9681,0.2278,0.0248,-0.0587,-0.0035,-0.0218,-0.0531,-0.0060,2.8820,1.3295,3.0482
2024-10-11T14:13:02.591Z,0.0297,-0.9707,0.2419,-0.0599,0.0310,-0.0456,-0.0246,-0.0558,-0.0058,2.8828,1.3301,3.0457
2024-10-11T14:13:02.599Z,0.0286,-0.9791,0.2388,-0.0599,0.0310,-0.0456,-0.0266,-0.0537,-0.0062,2.8828,1.3301,3.0457
2024-10-11T14:13:02.609Z,0.0228,-0.9739,0.2418,-0.0599,0.0310,-0.0456,-0.0292,-0.0598,-0.0063,2.8828,1.3301,3.0457
2024-10-11T14:13:02.621Z,0.0219,-0.9612,0.2390,-0.0305,-0.1684,0.0325,-0.0292,-0.0598,-0.0063,2.8838,1.3309,3.0428
2024-10-11T14:13:02.629Z,0.0294,-0.9503,0.2286,-0.0305,-0.1684,0.0325,-0.0280,-0.0591,-0.0052,2.8838,1.3309,3.0428
2024-10-11T14:13:02.639Z,0.0278,-0.9505,0.2106,-0.0305,-0.1684,0.0325,-0.0263,-0.0569,-0.0070,2.8838,1.3309,3.0428
2024-10-11T14:13:02.650Z,0.0349,-0.9449,0.2227,-0.0750,-0.3062,0.0928,-0.0262,-0.0581,-0.0060,2.8847,1.3317,3.0399
2024-10-11T14:13:02.659Z,0.0278,-0.9397,0.2287,-0.0750,-0.3062,0.0928,-0.0264,-0.0588,-0.0059,2.8847,1.3317,3.0399
2024-10-11T14:13:02.671Z,0.0271,-0.9426,0.2224,-0.0750,-0.3062,0.0928,-0.0245,-0.0594,-0.0080,2.8847,1.3317,3.0399
2024-10-11T14:13:02.680Z,0.0195,-0.9435,0.2239,0.0423,-0.2859,0.0795,-0.0220,-0.0587,-0.0067,2.8857,1.3324,3.0369
2024-10-11T14:13:02.689Z,0.0255,-0.9429,0.2303,0.0423,-0.2859,0.0795,-0.0231,-0.0602,-0.0078,2.8857,1.3324,3.0369
2024-10-11T14:13:02.699Z,0.0276,-0.9430,0.2256,0.0423,-0.2859,0.0795,-0.0204,-0.0604,-0.0074,2.8857,1.3324,3.0369
2024-10-11T14:13:02.710Z,0.0271,-0.9483,0.2272,-0.0334,-0.2403,0.0740,-0.0194,-0.0612,-0.0078,2.8866,1.3329,3.0339
2024-10-11T14:13:02.721Z,0.0308,-0.9479,0.2267,-0.0334,-0.2403,0.0740,-0.0190,-0.0593,-0.0042,2.8866,1.3329,3.0339
2024-10-11T14:13:02.729Z,0.0339,-0.9577,0.2233,-0.0334,-0.2403,0.0740,-0.0186,-0.0633,-0.0030,2.8866,1.3329,3.0339
2024-10-11T14:13:02.739Z,0.0357,-0.9571,0.2338,-0.0734,-0.1424,-0.0014,-0.0164,-0.0606,-0.0034,2.8873,1.3334,3.0311
2024-10-11T14:13:02.749Z,0.0309,-0.9563,0.2308,-0.0734,-0.1424,-0.0014,-0.0166,-0.0634,-0.0031,2.8873,1.3334,3.0311
2024-10-11T14:13:02.759Z,0.0338,-0.9608,0.2319,-0.0734,-0.1424,-0.0014,-0.0150,-0.0632,-0.0009,2.8873,1.3334,3.0311
2024-10-11T14:13:02.772Z,0.0356,-0.9726,0.2360,-0.0795,0.0515,-0.0764,-0.0192,-0.0591,0.0021,2.8877,1.3340,3.0287
2024-10-11T14:13:02.779Z,0.0330,-0.9783,0.2413,-0.0795,0.0515,-0.0764,-0.0203,-0.0579,0.0036,2.8877,1.3340,3.0287
2024-10-11T14:13:02.789Z,0.0320,-0.9860,0.2357,-0.0795,0.0515,-0.0764,-0.0160,-0.0578,0.0019,2.8877,1.3340,3.0287
2024-10-11T14:13:02.800Z,0.0331,-0.9876,0.2328,-0.0490,0.1530,-0.0173,-0.0198,-0.0559,0.0039,2.8877,1.3345,3.0267
2024-10-11T14:13:02.809Z,0.0291,-0.9864,0.2346,-0.0490,0.1530,-0.0173,-0.0169,-0.0596,0.0040,2.8877,1.3345,3.0267
2024-10-11T14:13:02.821Z,0.0342,-0.9861,0.2425,-0.0490,0.1530,-0.0173,-0.0169,-0.0548,0.0062,2.8877,1.3345,3.0267
2024-10-11T14:13:02.830Z,0.0316,-0.9840,0.2430,-0.0129,0.1033,-0.1450,-0.0208,-0.0528,0.0050,2.8873,1.3351,3.0251
2024-10-11T14:13:02.839Z,0.0278,-0.9811,0.2438,-0.0129,0.1033,-0.1450,-0.0235,-0.0488,0.0074,2.8873,1.3351,3.0251
2024-10-11T14:13:02.849Z,0.0355,-0.9807,0.2438,-0.0129,0.1033,-0.1450,-0.0253,-0.0478,0.0107,2.8873,1.3351,3.0251
2024-10-11T14:13:02.859Z,0.0382,-0.9863,0.2487,-0.0129,0.1033,-0.1450,-0.0266,-0.0442,0.0112,2.8873,1.3351,3.0251
2024-10-11T14:13:02.869Z,0.0430,-0.9865,0.2491,-0.1280,0.1507,-0.1825,-0.0260,-0.0470,0.0141,2.8862,1.3358,3.0243
2024-10-11T14:13:02.879Z,0.0374,-0.9870,0.2464,-0.1280,0.1507,-0.1825,-0.0311,-0.0446,0.0170,2.8862,1.3358,3.0243
2024-10-11T14:13:02.890Z,0.0339,-0.9896,0.2461,-0.0499,0.1509,-0.1705,-0.0296,-0.0454,0.0188,2.8845,1.3366,3.0244
2024-10-11T14:13:02.899Z,0.0313,-0.9839,0.2485,-0.0499,0.1509,-0.1705,-0.0317,-0.0443,0.0203,2.8845,1.3366,3.0244
2024-10-11T14:13:02.909Z,0.0314,-0.9705,0.2512,-0.0499,0.1509,-0.1705,-0.0350,-0.0406,0.0203,2.8845,1.3366,3.0244
2024-10-11T14:13:02.922Z,0.0279,-0.9608,0.2460,0.0018,-0.1412,-0.1532,-0.0371,-0.0397,0.0210,2.8823,1.3377,3.0250
2024-10-11T14:13:02.929Z,0.0254,-0.9599,0.2458,0.0018,-0.1412,-0.1532,-0.0392,-0.0356,0.0201,2.8823,1.3377,3.0250
2024-10-11T14:13:02.939Z,0.0238,-0.9592,0.2404,0.0018,-0.1412,-0.1532,-0.0437,-0.0363,0.0206,2.8823,1.3377,3.0250
2024-10-11T14:13:02.949Z,0.0281,-0.9630,0.2367,0.0149,-0.0924,-0.0667,-0.0396,-0.0363,0.0174,2.8800,1.3389,3.0258
2024-10-11T14:13:02.958Z,0.0208,-0.9650,0.2360,0.0149,-0.0924,-0.0667,-0.0393,-0.0392,0.0205,2.8800,1.3389,3.0258
2024-10-11T14:13:02.969Z,0.0220,-0.9690,0.2277,0.0149,-0.0924,-0.0667,-0.0378,-0.0394,0.0204,2.8800,1.3389,3.0258
2024-10-11T14:13:02.979Z,0.0171,-0.9779,0.2332,0.1007,0.0963,-0.1000,-0.0414,-0.0392,0.0164,2.8779,1.3401,3.0264
2024-10-11T14:13:02.989Z,0.0186,-0.9902,0.2391,0.1007,0.0963,-0.1000,-0.0384,-0.0405,0.0173,2.8779,1.3401,3.0264
2024-10-11T14:13:02.999Z,0.0168,-0.9955,0.2361,0.1007,0.0963,-0.1000,-0.0391,-0.0461,0.0166,2.8779,1.3401,3.0264
2024-10-11T14:13:03.009Z,0.0112,-0.9948,0.2309,0.1212,0.1500,0.0077,-0.0366,-0.0460,0.0147,2.8763,1.3413,3.0264
2024-10-11T14:13:03.021Z,0.0162,-0.9834,0.2297,0.1212,0.1500,0.0077,-0.0389,-0.0456,0.0121,2.8763,1.3413,3.0264
2024-10-11T14:13:03.029Z,0.0115,-0.9733,0.2312,0.1212,0.1500,0.0077,-0.0385,-0.0481,0.0143,2.8763,1.3413,3.0264
2024-10-11T14:13:03.040Z,0.0193,-0.9688,0.2398,0.0683,-0.0372,-0.0808,-0.0401,-0.0493,0.0130,2.8751,1.3425,3.0259
2024-10-11T14:13:03.050Z,0.0140,-0.9707,0.2296,0.0683,-0.0372,-0.0808,-0.0413,-0.0482,0.0108,2.8751,1.3425,3.0259
2024-10-11T14:13:03.058Z,0.0130,-0.9756,0.2308,0.0683,-0.0372,-0.0808,-0.0430,-0.0469,0.0119,2.8751,1.3425,3.0259
2024-10-11T14:13:03.072Z,0.0145,-0.9715,0.2384,0.1086,-0.0215,-0.1750,-0.0424,-0.0434,0.0107,2.8742,1.3437,3.0250
2024-10-11T14:13:03.079Z,0.0162,-0.9734,0.2395,0.1086,-0.0215,-0.1750,-0.0425,-0.0480,0.0079,2.8742,1.3437,3.0250
2024-10-11T14:13:03.089Z,0.0244,-0.9732,0.2405,0.1086,-0.0215,-0.1750,-0.0428,-0.0440,0.0115,2.8742,1.3437,3.0250
2024-10-11T14:13:03.099Z,0.0186,-0.9740,0.2363,0.1005,0.0206,-0.1684,-0.0433,-0.0479,0.0101,2.8734,1.3450,3.0241
2024-10-11T14:13:03.109Z,0.0173,-0.9792,0.2409,0.1005,0.0206,-0.1684,-0.0407,-0.0486,0.0107,2.8734,1.3450,3.0241
2024-10-11T14:13:03.119Z,0.0235,-0.9889,0.2427,0.1005,0.0206,-0.1684,-0.0438,-0.0454,0.0110,2.8734,1.3450,3.0241
2024-10-11T14:13:03.129Z,0.0227,-0.9864,0.2373,0.0449,0.0895,-0.1751,-0.0454,-0.0480,0.0131,2.8725,1.3464,3.0234
2024-10-11T14:13:03.139Z,0.0211,-0.9805,0.2318,0.0449,0.0895,-0.1751,-0.0450,-0.0502,0.0111,2.8725,1.3464,3.0234
2024-10-11T14:13:03.149Z,0.0199,-0.9719,0.2407,0.0449,0.0895,-0.1751,-0.0497,-0.0426,0.0112,2.8725,1.3464,3.0234
2024-10-11T14:13:03.159Z,0.0208,-0.9700,0.2406,0.0309,-0.0158,-0.2068,-0.0494,-0.0418,0.0113,2.8716,1.3478,3.0227
2024-10-11T14:13:03.170Z,0.0233,-0.9783,0.2357,0.0309,-0.0158,-0.2068,-0.0475,-0.0419,0.0126,2.8716,1.3478,3.0227
2024-10-11T14:13:03.179Z,0.0173,-0.9799,0.2291,0.0309,-0.0158,-0.2068,-0.0506,-0.0391,0.0127,2.8716,1.3478,3.0227
2024-10-11T14:13:03.190Z,0.0244,-0.9848,0.2269,0.0254,0.1050,-0.0970,-0.0506,-0.0391,0.0127,2.8706,1.3493,3.0222
2024-10-11T14:13:03.199Z,0.0191,-0.9890,0.2285,0.0254,0.1050,-0.0970,-0.0472,-0.0368,0.0121,2.8706,1.3493,3.0222
2024-10-11T14:13:03.209Z,0.0191,-0.9980,0.2201,0.0254,0.1050,-0.0970,-0.0464,-0.0383,0.0118,2.8706,1.3493,3.0222
2024-10-11T14:13:03.220Z,0.0171,-0.9960,0.2150,0.1046,0.1755,0.0119,-0.0459,-0.0377,0.0108,2.8698,1.3507,3.0216
2024-10-11T14:13:03.229Z,0.0141,-0.9941,0.2209,0.1046,0.1755,0.0119,-0.0448,-0.0401,0.0112,2.8698,1.3507,3.0216
2024-10-11T14:13:03.239Z,0.0147,-0.9949,0.2207,0.1046,0.1755,0.0119,-0.0445,-0.0402,0.0071,2.8698,1.3507,3.0216
2024-10-11T14:13:03.250Z,0.0150,-0.9967,0.2248,0.1053,0.1474,-0.0487,-0.0452,-0.0380,0.0102,2.8693,1.3521,3.0207
2024-10-11T14:13:03.259Z,0.0161,-0.9865,0.2232,0.1053,0.1474,-0.0487,-0.0443,-0.0398,0.0090,2.8693,1.3521,3.0207
2024-10-11T14:13:03.271Z,0.0157,-0.9787,0.2219,0.1053,0.1474,-0.0487,-0.0456,-0.0396,0.0086,2.8693,1.3521,3.0207
2024-10-11T14:13:03.279Z,0.0204,-0.9733,0.2331,0.0069,-0.0552,-0.1647,-0.0432,-0.0361,0.0106,2.8688,1.3534,3.0198
2024-10-11T14:13:03.289Z,0.0294,-0.9720,0.2257,0.0069,-0.0552,-0.1647,-0.0452,-0.0354,0.0100,2.8688,1.3534,3.0198
2024-10-11T14:13:03.299Z,0.0246,-0.9748,0.2109,0.0069,-0.0552,-0.1647,-0.0439,-0.0344,0.0112,2.8688,1.3534,3.0198
2024-10-11T14:13:03.309Z,0.0163,-0.9699,0.2150,0.1128,-0.0924,-0.0000,-0.0449,-0.0318,0.0100,2.8679,1.3548,3.0194
2024-10-11T14:13:03.320Z,0.0138,-0.9634,0.2131,0.1128,-0.0924,-0.0000,-0.0457,-0.0285,0.0105,2.8679,1.3548,3.0194
2024-10-11T14:13:03.329Z,0.0129,-0.9585,0.2142,0.1128,-0.0924,-0.0000,-0.0458,-0.0346,0.0099,2.8679,1.3548,3.0194
2024-10-11T14:13:03.339Z,0.0171,-0.9510,0.2180,0.0987,-0.2790,-0.0674,-0.0463,-0.0346,0.0050,2.8673,1.3562,3.0188
2024-10-11T14:13:03.349Z,0.0139,-0.9462,0.2181,0.0987,-0.2790,-0.0674,-0.0457,-0.0336,0.0103,2.8673,1.3562,3.0188
2024-10-11T14:13:03.359Z,0.0152,-0.9506,0.2214,0.0987,-0.2790,-0.0674,-0.0451,-0.0292,0.0092,2.8673,1.3562,3.0188
2024-10-11T14:13:03.370Z,0.0204,-0.9543,0.2155,0.0734,-0.2026,-0.0747,-0.0461,-0.0298,0.0060,2.8669,1.3576,3.0181
2024-10-11T14:13:03.379Z,0.0152,-0.9589,0.2119,0.0734,-0.2026,-0.0747,-0.0468,-0.0292,0.0047,2.8669,1.3576,3.0181
2024-10-11T14:13:03.389Z,0.0139,-0.9667,0.2031,0.0734,-0.2026,-0.0747,-0.0454,-0.0260,0.0060,2.8669,1.3576,3.0181
2024-10-11T14:13:03.399Z,0.0070,-0.9675,0.2093,0.1858,-0.0824,-0.0337,-0.0468,-0.0267,0.0034,2.8667,1.3589,3.0172
2024-10-11T14:13:03.409Z,0.0103,-0.9713,0.2096,0.1858,-0.0824,-0.0337,-0.0434,-0.0270,0.0005,2.8667,1.3589,3.0172
2024-10-11T14:13:03.420Z,0.0096,-0.9752,0.2063,0.1858,-0.0824,-0.0337,-0.0431,-0.0262,-0.0013,2.8667,1.3589,3.0172
2024-10-11T14:13:03.429Z,0.0106,-0.9722,0.2034,0.1501,-0.0969,-0.0416,-0.0436,-0.0286,0.0005,2.8672,1.3602,3.0156
2024-10-11T14:13:03.440Z,0.0076,-0.9649,0.2087,0.1501,-0.0969,-0.0416,-0.0413,-0.0290,-0.0016,2.8672,1.3602,3.0156
2024-10-11T14:13:03.449Z,0.0093,-0.9603,0.2104,0.1501,-0.0969,-0.0416,-0.0427,-0.0269,-0.0051,2.8672,1.3602,3.0156
2024-10-11T14:13:03.460Z,0.0148,-0.9601,0.2043,0.0836,-0.1595,0.0075,-0.0437,-0.0241,-0.0016,2.8682,1.3615,3.0136
2024-10-11T14:13:03.471Z,0.0195,-0.9674,0.2072,0.0836,-0.1595,0.0075,-0.0413,-0.0236,-0.0026,2.8682,1.3615,3.0136
2024-10-11T14:13:03.479Z,0.0190,-0.9723,0.2046,0.0836,-0.1595,0.0075,-0.0402,-0.0204,-0.0028,2.8682,1.3615,3.0136
2024-10-11T14:13:03.490Z,0.0204,-0.9812,0.2081,0.0870,0.0176,-0.0385,-0.0429,-0.0182,-0.0009,2.8691,1.3627,3.0118
2024-10-11T14:13:03.500Z,0.0152,-0.9790,0.2170,0.0870,0.0176,-0.0385,-0.0399,-0.0180,-0.0039,2.8691,1.3627,3.0118
2024-10-11T14:13:03.509Z,0.0098,-0.9824,0.2126,0.0870,0.0176,-0.0385,-0.0408,-0.0179,-0.0043,2.8691,1.3627,3.0118
2024-10-11T14:13:03.521Z,0.0051,-0.9835,0.2108,0.2064,0.0127,-0.0606,-0.0405,-0.0103,-0.0067,2.8705,1.3638,3.0097
2024-10-11T14:13:03.529Z,0.0118,-0.9756,0.2071,0.2064,0.0127,-0.0606,-0.0398,-0.0127,-0.0080,2.8705,1.3638,3.0097
2024-10-11T14:13:03.539Z,0.0196,-0.9711,0.1979,0.2064,0.0127,-0.0606,-0.0359,-0.0082,-0.0066,2.8705,1.3638,3.0097
2024-10-11T14:13:03.549Z,0.0173,-0.9662,0.1910,0.0529,-0.1464,0.1597,-0.0360,-0.0031,-0.0065,2.8719,1.3648,3.0077
2024-10-11T14:13:03.559Z,0.0234,-0.9608,0.1896,0.0529,-0.1464,0.1597,-0.0359,-0.0024,-0.0053,2.8719,1.3648,3.0077
2024-10-11T14:13:03.570Z,0.0171,-0.9576,0.1894,0.0529,-0.1464,0.1597,-0.0276,-0.0001,-0.0047,2.8719,1.3648,3.0077
2024-10-11T14:13:03.579Z,0.0224,-0.9654,0.1902,0.0588,-0.0966,0.1761,-0.0271,0.0066,-0.0041,2.8729,1.3657,3.0065
2024-10-11T14:13:03.589Z,0.0197,-0.9707,0.1779,0.0588,-0.0966,0.1761,-0.0231,0.0086,-0.0055,2.8729,1.3657,3.0065
2024-10-11T14:13:03.599Z,0.0197,-0.9776,0.1798,0.0588,-0.0966,0.1761,-0.0188,0.0097,-0.0068,2.8729,1.3657,3.0065
2024-10-11T14:13:03.609Z,0.0222,-0.9797,0.1760,0.0310,0.0118,0.2440,-0.0146,0.0117,-0.0066,2.8737,1.3663,3.0058
2024-10-11T14:13:03.621Z,0.0252,-0.9803,0.1754,0.0310,0.0118,0.2440,-0.0147,0.0160,-0.0032,2.8737,1.3663,3.0058
2024-10-11T14:13:03.629Z,0.0249,-0.9793,0.1828,0.0310,0.0118,0.2440,-0.0087,0.0178,-0.0003,2.8737,1.3663,3.0058
2024-10-11T14:13:03.640Z,0.0244,-0.9862,0.1680,0.0260,0.0663,0.3298,-0.0054,0.0198,-0.0013,2.8740,1.3666,3.0058
2024-10-11T14:13:03.649Z,0.0234,-0.9834,0.1710,0.0260,0.0663,0.3298,-0.0005,0.0230,-0.0002,2.8740,1.3666,3.0058
2024-10-11T14:13:03.659Z,0.0288,-0.9748,0.1717,0.0260,0.0663,0.3298,-0.0014,0.0255,0.0025,2.8740,1.3666,3.0058
2024-10-11T14:13:03.671Z,0.0287,-0.9676,0.1789,0.0168,-0.1509,0.1935,0.0015,0.0297,0.0038,2.8735,1.3666,3.0068
2024-10-11T14:13:03.679Z,0.0258,-0.9607,0.1829,0.0168,-0.1509,0.1935,0.0014,0.0362,0.0044,2.8735,1.3666,3.0068
2024-10-11T14:13:03.689Z,0.0284,-0.9578,0.1850,0.0168,-0.1509,0.1935,0.0030,0.0387,0.0040,2.8735,1.3666,3.0068
2024-10-11T14:13:03.699Z,0.0298,-0.9586,0.1867,-0.0357,-0.1771,0.1200,0.0043,0.0396,0.0079,2.8725,1.3667,3.0086
2024-10-11T14:13:03.710Z,0.0288,-0.9630,0.1884,-0.0357,-0.1771,0.1200,0.0038,0.0389,0.0072,2.8725,1.3667,3.0086
2024-10-11T14:13:03.721Z,0.0250,-0.9618,0.1905,-0.0357,-0.1771,0.1200,0.0055,0.0433,0.0062,2.8725,1.3667,3.0086
2024-10-11T14:13:03.729Z,0.0225,-0.9592,0.1944,0.0317,-0.2098,0.0734,0.0067,0.0435,0.0086,2.8710,1.3666,3.0110
2024-10-11T14:13:03.739Z,0.0243,-0.9575,0.1910,0.0317,-0.2098,0.0734,0.0071,0.0420,0.0091,2.8710,1.3666,3.0110
2024-10-11T14:13:03.749Z,0.0211,-0.9543,0.1938,0.0317,-0.2098,0.0734,0.0065,0.0458,0.0095,2.8710,1.3666,3.0110
2024-10-11T14:13:03.759Z,0.0224,-0.9531,0.1951,-0.0045,-0.2042,0.1066,0.0059,0.0488,0.0109,2.8693,1.3665,3.0138
2024-10-11T14:13:03.771Z,0.0253,-0.9618,0.1889,-0.0045,-0.2042,0.1066,0.0061,0.0492,0.0115,2.8693,1.3665,3.0138
2024-10-11T14:13:03.779Z,0.0196,-0.9595,0.1979,-0.0045,-0.2042,0.1066,0.0078,0.0489,0.0111,2.8693,1.3665,3.0138
2024-10-11T14:13:03.790Z,0.0278,-0.9589,0.2013,0.0003,-0.1903,-0.0380,0.0062,0.0525,0.0126,2.8675,1.3663,3.0168
2024-10-11T14:13:03.799Z,0.0216,-0.9621,0.2039,0.0003,-0.1903,-0.0380,0.0088,0.0519,0.0124,2.8675,1.3663,3.0168
2024-10-11T14:13:03.809Z,0.0314,-0.9722,0.2019,0.0003,-0.1903,-0.0380,0.0040,0.0512,0.0148,2.8675,1.3663,3.0168
2024-10-11T14:13:03.819Z,0.0241,-0.9806,0.1973,0.0419,0.0307,0.0548,0.0085,0.0535,0.0138,2.8652,1.3662,3.0203
2024-10-11T14:13:03.829Z,0.0207,-0.9859,0.1997,0.0419,0.0307,0.0548,0.0069,0.0544,0.0143,2.8652,1.3662,3.0203
2024-10-11T14:13:03.839Z,0.0143,-0.9931,0.1951,0.0419,0.0307,0.0548,0.0064,0.0528,0.0094,2.8652,1.3662,3.0203
2024-10-11T14:13:03.849Z,0.0145,-0.9893,0.2020,0.0609,0.0998,0.0099,0.0056,0.0539,0.0118,2.8632,1.3661,3.0236
2024-10-11T14:13:03.859Z,0.0161,-0.9881,0.2031,0.0609,0.0998,0.0099,0.0053,0.0510,0.0115,2.8632,1.3661,3.0236
2024-10-11T14:13:03.869Z,0.0070,-0.9923,0.2076,0.0609,0.0998,0.0099,0.0032,0.0461,0.0071,2.8632,1.3661,3.0236
2024-10-11T14:13:03.879Z,0.0044,-0.9898,0.2195,0.1915,0.1445,-0.1444,0.0060,0.0394,0.0045,2.8619,1.3660,3.0259
2024-10-11T14:13:03.890Z,0.0046,-1.0004,0.2098,0.1915,0.1445,-0.1444,0.0035,0.0382,0.0018,2.8619,1.3660,3.0259
2024-10-11T14:13:03.899Z,0.0083,-1.0098,0.2082,0.1915,0.1445,-0.1444,0.0026,0.0373,-0.0021,2.8619,1.3660,3.0259
2024-10-11T14:13:03.909Z,0.0078,-1.0072,0.2051,0.1342,0.2384,-0.0336,0.0059,0.0354,-0.0028,2.8617,1.3659,3.0270
2024-10-11T14:13:03.919Z,0.0072,-1.0006,0.2081,0.1342,0.2384,-0.0336,0.0054,0.0338,-0.0067,2.8617,1.3659,3.0270
2024-10-11T14:13:03.929Z,0.0049,-0.9951,0.2043,0.1342,0.2384,-0.0336,0.0037,0.0302,-0.0064,2.8617,1.3659,3.0270
2024-10-11T14:13:03.940Z,0.0049,-0.9947,0.2065,0.2019,0.1232,-0.0142,0.0026,0.0291,-0.0108,2.8624,1.3657,3.0270
2024-10-11T14:13:03.949Z,0.0065,-0.9857,0.2033,0.2019,0.1232,-0.0142,0.0030,0.0242,-0.0106,2.8624,1.3657,3.0270
2024-10-11T14:13:03.959Z,0.0134,-0.9808,0.2072,0.2019,0.1232,-0.0142,0.0006,0.0246,-0.0107,2.8624,1.3657,3.0270
2024-10-11T14:13:03.969Z,0.0094,-0.9778,0.1987,0.1144,-0.0104,-0.0130,0.0042,0.0228,-0.0143,2.8638,1.3655,3.0261
2024-10-11T14:13:03.979Z,0.0145,-0.9764,0.2045,0.1144,-0.0104,-0.0130,0.0042,0.0243,-0.0149,2.8638,1.3655,3.0261
2024-10-11T14:13:03.988Z,0.0154,-0.9785,0.2026,0.1144,-0.0104,-0.0130,0.0038,0.0271,-0.0164,2.8638,1.3655,3.0261
2024-10-11T14:13:03.999Z,0.0116,-0.9833,0.1983,0.0945,0.0425,0.0347,0.0051,0.0283,-0.0197,2.8656,1.3654,3.0249
2024-10-11T14:13:04.009Z,0.0184,-0.9884,0.2007,0.0945,0.0425,0.0347,0.0078,0.0264,-0.0153,2.8656,1.3654,3.0249
2024-10-11T14:13:04.019Z,0.0200,-0.9956,0.1888,0.0945,0.0425,0.0347,0.0077,0.0296,-0.0182,2.8656,1.3654,3.0249
2024-10-11T14:13:04.029Z,0.0151,-0.9927,0.2022,0.0827,0.1290,0.0415,0.0047,0.0249,-0.0158,2.8677,1.3651,3.0234
2024-10-11T14:13:04.038Z,0.0171,-0.9898,0.1987,0.0827,0.1290,0.0415,0.0046,0.0286,-0.0174,2.8677,1.3651,3.0234
2024-10-11T14:13:04.049Z,0.0151,-0.9838,0.2070,0.0827,0.1290,0.0415,0.0046,0.0273,-0.0157,2.8677,1.3651,3.0234
2024-10-11T14:13:04.059Z,0.0244,-0.9833,0.2012,-0.0273,0.0207,-0.0358,0.0023,0.0301,-0.0183,2.8698,1.3649,3.0219
2024-10-11T14:13:04.069Z,0.0232,-0.9784,0.2057,-0.0273,0.0207,-0.0358,0.0027,0.0266,-0.0179,2.8698,1.3649,3.0219
2024-10-11T14:13:04.079Z,0.0155,-0.9785,0.2085,-0.0273,0.0207,-0.0358,0.0006,0.0264,-0.0180,2.8698,1.3649,3.0219
2024-10-11T14:13:04.089Z,0.0125,-0.9737,0.2099,0.1379,-0.0711,-0.0920,-0.0042,0.0259,-0.0207,2.8722,1.3649,3.0201
2024-10-11T14:13:04.099Z,0.0162,-0.9736,0.2199,0.1379,-0.0711,-0.0920,-0.0097,0.0259,-0.0198,2.8722,1.3649,3.0201
2024-10-11T14:13:04.109Z,0.0226,-0.9753,0.2208,0.1379,-0.0711,-0.0920,-0.0112,0.0275,-0.0192,2.8722,1.3649,3.0201
2024-10-11T14:13:04.119Z,0.0267,-0.9817,0.2210,-0.0033,0.0514,-0.1634,-0.0143,0.0289,-0.0188,2.8749,1.3651,3.0181
2024-10-11T14:13:04.129Z,0.0205,-0.9840,0.2210,-0.0033,0.0514,-0.1634,-0.0169,0.0305,-0.0173,2.8749,1.3651,3.0181
2024-10-11T14:13:04.139Z,0.0165,-0.9849,0.2178,-0.0033,0.0514,-0.1634,-0.0165,0.0299,-0.0198,2.8749,1.3651,3.0181
2024-10-11T14:13:04.150Z,0.0218,-0.9830,0.2175,0.0655,0.0150,-0.1736,-0.0186,0.0291,-0.0181,2.8775,1.3655,3.0160
2024-10-11T14:13:04.159Z,0.0191,-0.9808,0.2174,0.0655,0.0150,-0.1736,-0.0189,0.0285,-0.0158,2.8775,1.3655,3.0160
2024-10-11T14:13:04.169Z,0.0219,-0.9809,0.2093,0.0655,0.0150,-0.1736,-0.0194,0.0285,-0.0145,2.8775,1.3655,3.0160
2024-10-11T14:13:04.179Z,0.0264,-0.9774,0.2100,-0.0460,-0.0108,-0.0301,-0.0224,0.0341,-0.0158,2.8799,1.3660,3.0145
2024-10-11T14:13:04.189Z,0.0285,-0.9771,0.2112,-0.0460,-0.0108,-0.0301,-0.0240,0.0358,-0.0126,2.8799,1.3660,3.0145
2024-10-11T14:13:04.201Z,0.0184,-0.9788,0.2086,-0.0460,-0.0108,-0.0301,-0.0242,0.0416,-0.0146,2.8799,1.3660,3.0145
2024-10-11T14:13:04.209Z,0.0184,-0.9788,0.2086,0.1146,0.0243,-0.0715,-0.0252,0.0431,-0.0136,2.8820,1.3666,3.0132
2024-10-11T14:13:04.221Z,0.0255,-0.9911,0.2087,0.1146,0.0243,-0.0715,-0.0253,0.0446,-0.0138,2.8820,1.3666,3.0132
2024-10-11T14:13:04.229Z,0.0255,-0.9911,0.2087,0.1146,0.0243,-0.0715,-0.0208,0.0477,-0.0154,2.8820,1.3666,3.0132
2024-10-11T14:13:04.239Z,0.0235,-0.9999,0.2024,0.0400,0.2286,-0.0502,-0.0253,0.0483,-0.0154,2.8843,1.3672,3.0121
2024-10-11T14:13:04.250Z,0.0211,-1.0020,0.2089,0.0400,0.2286,-0.0502,-0.0224,0.0510,-0.0125,2.8843,1.3672,3.0121
2024-10-11T14:13:04.259Z,0.0211,-1.0020,0.2089,0.0400,0.2286,-0.0502,-0.0211,0.0544,-0.0150,2.8843,1.3672,3.0121
2024-10-11T14:13:04.270Z,0.0164,-1.0003,0.2092,0.0978,0.2123,-0.0440,-0.0250,0.0526,-0.0126,2.8867,1.3677,3.0110
2024-10-11T14:13:04.280Z,0.0094,-0.9990,0.2118,0.0978,0.2123,-0.0440,-0.0225,0.0542,-0.0177,2.8867,1.3677,3.0110
2024-10-11T14:13:04.289Z,0.0094,-0.9990,0.2118,0.0978,0.2123,-0.0440,-0.0274,0.0526,-0.0190,2.8867,1.3677,3.0110
2024-10-11T14:13:04.300Z,0.0086,-0.9960,0.2160,0.1893,0.1866,-0.1851,-0.0298,0.0517,-0.0225,2.8898,1.3684,3.0094
2024-10-11T14:13:04.309Z,0.0086,-0.9960,0.2160,0.1893,0.1866,-0.1851,-0.0325,0.0542,-0.0224,2.8898,1.3684,3.0094
2024-10-11T14:13:04.320Z,0.0186,-0.9872,0.2099,0.1893,0.1866,-0.1851,-0.0357,0.0559,-0.0245,2.8898,1.3684,3.0094
2024-10-11T14:13:04.330Z,0.0211,-0.9887,0.2106,0.0447,0.0844,-0.0805,-0.0345,0.0565,-0.0233,2.8937,1.3693,3.0070
2024-10-11T14:13:04.340Z,0.0211,-0.9887,0.2106,0.0447,0.0844,-0.0805,-0.0340,0.0596,-0.0212,2.8937,1.3693,3.0070
2024-10-11T14:13:04.350Z,0.0210,-0.9824,0.2048,0.0447,0.0844,-0.0805,-0.0375,0.0631,-0.0222,2.8937,1.3693,3.0070
2024-10-11T14:13:04.359Z,0.0210,-0.9824,0.2048,0.0680,-0.0132,-0.0420,-0.0345,0.0639,-0.0219,2.8976,1.3702,3.0047
2024-10-11T14:13:04.370Z,0.0214,-0.9739,0.2077,0.0680,-0.0132,-0.0420,-0.0389,0.0640,-0.0226,2.8976,1.3702,3.0047
2024-10-11T14:13:04.380Z,0.0163,-0.9688,0.2124,0.0680,-0.0132,-0.0420,-0.0396,0.0644,-0.0219,2.8976,1.3702,3.0047
2024-10-11T14:13:04.389Z,0.0163,-0.9688,0.2124,0.1239,-0.1077,-0.1175,-0.0376,0.0637,-0.0196,2.9015,1.3713,3.0027
2024-10-11T14:13:04.400Z,0.0195,-0.9704,0.2133,0.1239,-0.1077,-0.1175,-0.0401,0.0652,-0.0245,2.9015,1.3713,3.0027
2024-10-11T14:13:04.410Z,0.0215,-0.9719,0.2104,0.1239,-0.1077,-0.1175,-0.0393,0.0640,-0.0205,2.9015,1.3713,3.0027
2024-10-11T14:13:04.420Z,0.0231,-0.9746,0.2045,0.0520,-0.0397,-0.1393,-0.0421,0.0699,-0.0210,2.9054,1.3724,3.0005
2024-10-11T14:13:04.430Z,0.0301,-0.9698,0.2025,0.0520,-0.0397,-0.1393,-0.0417,0.0709,-0.0172,2.9054,1.3724,3.0005
2024-10-11T14:13:04.440Z,0.0336,-0.9659,0.2016,0.0520,-0.0397,-0.1393,-0.0432,0.0716,-0.0182,2.9054,1.3724,3.0005
2024-10-11T14:13:04.450Z,0.0271,-0.9637,0.1991,-0.0132,-0.1585,-0.0838,-0.0451,0.0744,-0.0171,2.9088,1.3735,2.9991
2024-10-11T14:13:04.460Z,0.0209,-0.9669,0.2041,-0.0132,-0.1585,-0.0838,-0.0428,0.0723,-0.0144,2.9088,1.3735,2.9991
2024-10-11T14:13:04.470Z,0.0237,-0.9644,0.2027,-0.0132,-0.1585,-0.0838,-0.0438,0.0734,-0.0129,2.9088,1.3735,2.9991
2024-10-11T14:13:04.480Z,0.0280,-0.9686,0.2020,-0.0208,-0.1358,-0.1048,-0.0477,0.0758,-0.0152,2.9116,1.3747,2.9983
2024-10-11T14:13:04.491Z,0.0235,-0.9682,0.2071,-0.0208,-0.1358,-0.1048,-0.0473,0.0773,-0.0154,2.9116,1.3747,2.9983
2024-10-11T14:13:04.500Z,0.0187,-0.9722,0.2010,-0.0208,-0.1358,-0.1048,-0.0504,0.0799,-0.0143,2.9116,1.3747,2.9983
2024-10-11T14:13:04.510Z,0.0155,-0.9763,0.2038,0.1283,-0.0692,-0.1134,-0.0499,0.0784,-0.0118,2.9145,1.3761,2.9975
2024-10-11T14:13:04.520Z,0.0313,-0.9764,0.2070,0.1283,-0.0692,-0.1134,-0.0502,0.0746,-0.0119,2.9145,1.3761,2.9975
2024-10-11T14:13:04.530Z,0.0310,-0.9810,0.2106,0.1283,-0.0692,-0.1134,-0.0474,0.0771,-0.0111,2.9145,1.3761,2.9975
2024-10-11T14:13:04.539Z,0.0310,-0.9810,0.2106,-0.0247,0.0393,-0.1787,-0.0443,0.0761,-0.0100,2.9171,1.3774,2.9971
2024-10-11T14:13:04.549Z,0.0292,-0.9831,0.1959,-0.0247,0.0393,-0.1787,-0.0479,0.0852,-0.0069,2.9171,1.3774,2.9971
2024-10-11T14:13:04.559Z,0.0339,-0.9750,0.1964,-0.0247,0.0393,-0.1787,-0.0472,0.0889,-0.0071,2.9171,1.3774,2.9971
2024-10-11T14:13:04.569Z,0.0356,-0.9709,0.1991,-0.0856,-0.1019,-0.1044,-0.0477,0.0906,-0.0051,2.9190,1.3788,2.9975
2024-10-11T14:13:04.580Z,0.0271,-0.9741,0.1869,-0.0856,-0.1019,-0.1044,-0.0445,0.0913,-0.0057,2.9190,1.3788,2.9975
2024-10-11T14:13:04.590Z,0.0247,-0.9711,0.1855,-0.0856,-0.1019,-0.1044,-0.0423,0.0924,-0.0030,2.9190,1.3788,2.9975
2024-10-11T14:13:04.600Z,0.0276,-0.9691,0.1849,0.0142,-0.1376,0.0339,-0.0391,0.0891,-0.0033,2.9204,1.3800,2.9986
2024-10-11T14:13:04.610Z,0.0206,-0.9711,0.1906,0.0142,-0.1376,0.0339,-0.0377,0.0900,-0.0045,2.9204,1.3800,2.9986
2024-10-11T14:13:04.620Z,0.0250,-0.9763,0.1895,0.0142,-0.1376,0.0339,-0.0354,0.0896,-0.0067,2.9204,1.3800,2.9986
2024-10-11T14:13:04.630Z,0.0271,-0.9800,0.1902,-0.0184,-0.0229,-0.0312,-0.0317,0.0937,-0.0032,2.9218,1.3810,2.9997
2024-10-11T14:13:04.641Z,0.0322,-0.9879,0.1901,-0.0184,-0.0229,-0.0312,-0.0341,0.0949,-0.0035,2.9218,1.3810,2.9997
2024-10-11T14:13:04.650Z,0.0377,-0.9929,0.1926,-0.0184,-0.0229,-0.0312,-0.0317,0.1028,-0.0047,2.9218,1.3810,2.9997
2024-10-11T14:13:04.659Z,0.0309,-0.9944,0.1988,-0.0873,0.1063,-0.1104,-0.0333,0.1013,-0.0018,2.9228,1.3819,3.0014
2024-10-11T14:13:04.670Z,0.0283,-0.9931,0.1939,-0.0873,0.1063,-0.1104,-0.0317,0.0968,-0.0024,2.9228,1.3819,3.0014
2024-10-11T14:13:04.680Z,0.0250,-0.9866,0.2014,-0.0873,0.1063,-0.1104,-0.0308,0.0950,-0.0020,2.9228,1.3819,3.0014
2024-10-11T14:13:04.690Z,0.0253,-0.9820,0.2036,0.0020,0.0090,-0.1764,-0.0357,0.0903,-0.0034,2.9237,1.3828,3.0032
2024-10-11T14:13:04.700Z,0.0162,-0.9804,0.2046,0.0020,0.0090,-0.1764,-0.0313,0.0875,-0.0015,2.9237,1.3828,3.0032
2024-10-11T14:13:04.709Z,0.0169,-0.9793,0.2060,0.0020,0.0090,-0.1764,-0.0384,0.0842,-0.0071,2.9237,1.3828,3.0032
2024-10-11T14:13:04.719Z,0.0181,-0.9754,0.2138,0.0829,-0.0512,-0.2680,-0.0412,0.0907,-0.0083,2.9251,1.3838,3.0042
2024-10-11T14:13:04.730Z,0.0252,-0.9794,0.2107,0.0829,-0.0512,-0.2680,-0.0430,0.0865,-0.0094,2.9251,1.3838,3.0042
2024-10-11T14:13:04.740Z,0.0153,-0.9815,0.2082,0.0829,-0.0512,-0.2680,-0.0375,0.0808,-0.0096,2.9251,1.3838,3.0042
2024-10-11T14:13:04.749Z,0.0082,-0.9898,0.1998,0.1513,0.0375,-0.2163,-0.0401,0.0775,-0.0141,2.9274,1.3850,3.0042
2024-10-11T14:13:04.759Z,0.0062,-0.9887,0.2023,0.1513,0.0375,-0.2163,-0.0393,0.0743,-0.0148,2.9274,1.3850,3.0042
2024-10-11T14:13:04.769Z,0.0093,-0.9881,0.1995,0.1513,0.0375,-0.2163,-0.0440,0.0735,-0.0198,2.9274,1.3850,3.0042
2024-10-11T14:13:04.779Z,0.0091,-0.9798,0.2014,0.1449,0.0245,-0.1925,-0.0448,0.0740,-0.0232,2.9311,1.3861,3.0026
2024-10-11T14:13:04.790Z,0.0091,-0.9798,0.2014,0.1449,0.0245,-0.1925,-0.0454,0.0758,-0.0224,2.9311,1.3861,3.0026
2024-10-11T14:13:04.799Z,0.0090,-0.9732,0.1906,0.1449,0.0245,-0.1925,-0.0472,0.0736,-0.0286,2.9311,1.3861,3.0026
2024-10-11T14:13:04.809Z,0.0141,-0.9720,0.1917,0.1558,-0.1110,-0.1376,-0.0440,0.0689,-0.0311,2.9363,1.3873,2.9992
2024-10-11T14:13:04.820Z,0.0209,-0.9735,0.1897,0.1558,-0.1110,-0.1376,-0.0407,0.0664,-0.0310,2.9363,1.3873,2.9992
2024-10-11T14:13:04.829Z,0.0232,-0.9725,0.1858,0.1558,-0.1110,-0.1376,-0.0429,0.0679,-0.0321,2.9363,1.3873,2.9992
2024-10-11T14:13:04.840Z,0.0296,-0.9734,0.1908,-0.0274,-0.1037,-0.0894,-0.0428,0.0699,-0.0298,2.9422,1.3884,2.9953
2024-10-11T14:13:04.849Z,0.0306,-0.9732,0.1816,-0.0274,-0.1037,-0.0894,-0.0419,0.0751,-0.0295,2.9422,1.3884,2.9953
2024-10-11T14:13:04.860Z,0.0319,-0.9767,0.1832,-0.0274,-0.1037,-0.0894,-0.0442,0.0760,-0.0298,2.9422,1.3884,2.9953
2024-10-11T14:13:04.869Z,0.0223,-0.9792,0.1839,0.0121,-0.0618,-0.0488,-0.0428,0.0772,-0.0293,2.9477,1.3895,2.9918
2024-10-11T14:13:04.879Z,0.0254,-0.9796,0.1817,0.0121,-0.0618,-0.0488,-0.0416,0.0747,-0.0296,2.9477,1.3895,2.9918
2024-10-11T14:13:04.891Z,0.0329,-0.9787,0.1857,0.0121,-0.0618,-0.0488,-0.0385,0.0724,-0.0285,2.9477,1.3895,2.9918
2024-10-11T14:13:04.899Z,0.0334,-0.9779,0.1838,-0.0777,-0.0441,-0.0444,-0.0373,0.0686,-0.0268,2.9531,1.3905,2.9884
2024-10-11T14:13:04.909Z,0.0230,-0.9770,0.1862,-0.0777,-0.0441,-0.0444,-0.0349,0.0684,-0.0271,2.9531,1.3905,2.9884
2024-10-11T14:13:04.919Z,0.0327,-0.9851,0.1791,-0.0777,-0.0441,-0.0444,-0.0389,0.0704,-0.0273,2.9531,1.3905,2.9884
2024-10-11T14:13:04.929Z,0.0323,-0.9868,0.1782,-0.0570,0.0308,-0.0196,-0.0387,0.0759,-0.0243,2.9584,1.3915,2.9852
2024-10-11T14:13:04.941Z,0.0358,-0.9866,0.1694,-0.0570,0.0308,-0.0196,-0.0396,0.0804,-0.0253,2.9584,1.3915,2.9852
2024-10-11T14:13:04.949Z,0.0355,-0.9862,0.1652,-0.0570,0.0308,-0.0196,-0.0379,0.0780,-0.0243,2.9584,1.3915,2.9852
2024-10-11T14:13:04.958Z,0.0355,-0.9862,0.1652,-0.0802,0.0043,0.1207,-0.0326,0.0770,-0.0212,2.9630,1.3924,2.9827
2024-10-11T14:13:04.969Z,0.0435,-0.9787,0.1611,-0.0802,0.0043,0.1207,-0.0310,0.0720,-0.0199,2.9630,1.3924,2.9827
2024-10-11T14:13:04.979Z,0.0404,-0.9740,0.1606,-0.0802,0.0043,0.1207,-0.0283,0.0694,-0.0178,2.9630,1.3924,2.9827
2024-10-11T14:13:04.989Z,0.0404,-0.9740,0.1606,-0.1178,-0.0987,0.1117,-0.0286,0.0714,-0.0142,2.9664,1.3932,2.9814
2024-10-11T14:13:05.000Z,0.0391,-0.9755,0.1579,-0.1178,-0.0987,0.1117,-0.0277,0.0771,-0.0124,2.9664,1.3932,2.9814
2024-10-11T14:13:05.010Z,0.0383,-0.9792,0.1590,-0.1178,-0.0987,0.1117,-0.0254,0.0813,-0.0105,2.9664,1.3932,2.9814
2024-10-11T14:13:05.019Z,0.0426,-0.9782,0.1548,-0.1391,-0.0744,0.1418,-0.0224,0.0758,-0.0078,2.9688,1.3939,2.9809
2024-10-11T14:13:05.029Z,0.0370,-0.9779,0.1574,-0.1391,-0.0744,0.1418,-0.0179,0.0750,-0.0086,2.9688,1.3939,2.9809
2024-10-11T14:13:05.041Z,0.0475,-0.9764,0.1570,-0.1391,-0.0744,0.1418,-0.0146,0.0703,-0.0053,2.9688,1.3939,2.9809
2024-10-11T14:13:05.049Z,0.0476,-0.9850,0.1502,-0.2179,-0.0259,0.1987,-0.0133,0.0743,-0.0020,2.9701,1.3943,2.9817
2024-10-11T14:13:05.059Z,0.0437,-0.9830,0.1575,-0.2179,-0.0259,0.1987,-0.0099,0.0754,0.0017,2.9701,1.3943,2.9817
2024-10-11T14:13:05.069Z,0.0473,-0.9850,0.1547,-0.2179,-0.0259,0.1987,-0.0076,0.0729,0.0033,2.9701,1.3943,2.9817
2024-10-11T14:13:05.079Z,0.0421,-0.9807,0.1633,-0.1487,0.0077,0.0985,-0.0069,0.0808,0.0057,2.9697,1.3945,2.9841
2024-10-11T14:13:05.090Z,0.0544,-0.9748,0.1765,-0.1487,0.0077,0.0985,-0.0068,0.0772,0.0086,2.9697,1.3945,2.9841
2024-10-11T14:13:05.099Z,0.0426,-0.9693,0.1727,-0.1487,0.0077,0.0985,-0.0074,0.0782,0.0111,2.9697,1.3945,2.9841
2024-10-11T14:13:05.109Z,0.0352,-0.9750,0.1743,-0.1139,-0.1334,-0.0063,-0.0071,0.0699,0.0102,2.9678,1.3948,2.9880
2024-10-11T14:13:05.119Z,0.0235,-0.9751,0.1723,-0.1139,-0.1334,-0.0063,-0.0042,0.0652,0.0093,2.9678,1.3948,2.9880
2024-10-11T14:13:05.129Z,0.0248,-0.9785,0.1752,-0.1139,-0.1334,-0.0063,-0.0050,0.0621,0.0102,2.9678,1.3948,2.9880
2024-10-11T14:13:05.139Z,0.0197,-0.9780,0.1773,0.0333,-0.0660,-0.0447,-0.0059,0.0626,0.0099,2.9659,1.3950,2.9915
2024-10-11T14:13:05.149Z,0.0253,-0.9828,0.1699,0.0333,-0.0660,-0.0447,-0.0040,0.0585,0.0091,2.9659,1.3950,2.9915
2024-10-11T14:13:05.159Z,0.0240,-0.9860,0.1690,0.0333,-0.0660,-0.0447,-0.0079,0.0583,0.0081,2.9659,1.3950,2.9915
2024-10-11T14:13:05.169Z,0.0326,-0.9915,0.1674,-0.0277,0.0251,0.0413,-0.0046,0.0551,0.0072,2.9644,1.3951,2.9946
2024-10-11T14:13:05.179Z,0.0256,-0.9908,0.1632,-0.0277,0.0251,0.0413,-0.0008,0.0474,0.0079,2.9644,1.3951,2.9946
2024-10-11T14:13:05.189Z,0.0237,-0.9876,0.1650,-0.0277,0.0251,0.0413,0.0042,0.0364,0.0080,2.9644,1.3951,2.9946
2024-10-11T14:13:05.199Z,0.0301,-0.9787,0.1655,-0.0228,-0.0126,0.1302,0.0027,0.0389,0.0066,2.9630,1.3951,2.9971
2024-10-11T14:13:05.209Z,0.0275,-0.9697,0.1656,-0.0228,-0.0126,0.1302,0.0009,0.0408,0.0065,2.9630,1.3951,2.9971
2024-10-11T14:13:05.219Z,0.0279,-0.9656,0.1738,-0.0228,-0.0126,0.1302,-0.0005,0.0421,0.0059,2.9630,1.3951,2.9971
2024-10-11T14:13:05.229Z,0.0231,-0.9655,0.1656,0.0072,-0.1957,0.0485,-0.0032,0.0384,0.0051,2.9618,1.3951,2.9991
2024-10-11T14:13:05.240Z,0.0219,-0.9722,0.1660,0.0072,-0.1957,0.0485,0.0004,0.0341,0.0036,2.9618,1.3951,2.9991
2024-10-11T14:13:05.249Z,0.0289,-0.9668,0.1653,0.0072,-0.1957,0.0485,0.0002,0.0272,0.0025,2.9618,1.3951,2.9991
2024-10-11T14:13:05.259Z,0.0302,-0.9628,0.1647,-0.0660,-0.1912,0.0832,0.0054,0.0258,0.0029,2.9612,1.3951,3.0004
2024-10-11T14:13:05.269Z,0.0302,-0.9732,0.1642,-0.0660,-0.1912,0.0832,0.0050,0.0236,0.0039,2.9612,1.3951,3.0004
2024-10-11T14:13:05.279Z,0.0300,-0.9767,0.1643,-0.0660,-0.1912,0.0832,0.0086,0.0267,0.0077,2.9612,1.3951,3.0004
2024-10-11T14:13:05.289Z,0.0388,-0.9775,0.1666,-0.0979,-0.0836,0.0621,0.0081,0.0312,0.0060,2.9601,1.3950,3.0021
2024-10-11T14:13:05.299Z,0.0306,-0.9762,0.1730,-0.0979,-0.0836,0.0621,0.0041,0.0366,0.0056,2.9601,1.3950,3.0021
2024-10-11T14:13:05.309Z,0.0228,-0.9755,0.1834,-0.0979,-0.0836,0.0621,0.0033,0.0379,0.0069,2.9601,1.3950,3.0021
2024-10-11T14:13:05.319Z,0.0141,-0.9710,0.1776,0.0387,-0.0859,-0.1230,0.0031,0.0369,0.0012,2.9591,1.3948,3.0038
2024-10-11T14:13:05.329Z,0.0149,-0.9672,0.1805,0.0387,-0.0859,-0.1230,0.0054,0.0359,0.0026,2.9591,1.3948,3.0038
2024-10-11T14:13:05.339Z,0.0100,-0.9750,0.1687,0.0387,-0.0859,-0.1230,0.0055,0.0375,0.0006,2.9591,1.3948,3.0038
2024-10-11T14:13:05.349Z,0.0144,-0.9800,0.1662,0.1481,-0.0979,0.0410,0.0080,0.0347,0.0018,2.9584,1.3947,3.0056
2024-10-11T14:13:05.359Z,0.0195,-0.9863,0.1581,0.1481,-0.0979,0.0410,0.0090,0.0436,0.0033,2.9584,1.3947,3.0056
2024-10-11T14:13:05.369Z,0.0327,-0.9863,0.1550,0.1481,-0.0979,0.0410,0.0090,0.0475,0.0057,2.9584,1.3947,3.0056
2024-10-11T14:13:05.379Z,0.0444,-0.9884,0.1569,-0.1792,0.0317,0.1871,0.0112,0.0427,0.0062,2.9576,1.3944,3.0074
2024-10-11T14:13:05.390Z,0.0425,-0.9900,0.1585,-0.1792,0.0317,0.1871,0.0098,0.0416,0.0045,2.9576,1.3944,3.0074
2024-10-11T14:13:05.399Z,0.0497,-0.9897,0.1547,-0.1792,0.0317,0.1871,0.0144,0.0354,0.0074,2.9576,1.3944,3.0074
2024-10-11T14:13:05.409Z,0.0424,-0.9835,0.1611,-0.2108,0.0109,0.1622,0.0171,0.0287,0.0102,2.9558,1.3940,3.0099
2024-10-11T14:13:05.419Z,0.0397,-0.9824,0.1675,-0.2108,0.0109,0.1622,0.0167,0.0227,0.0085,2.9558,1.3940,3.0099
2024-10-11T14:13:05.429Z,0.0309,-0.9817,0.1665,-0.2108,0.0109,0.1622,0.0188,0.0215,0.0089,2.9558,1.3940,3.0099
2024-10-11T14:13:05.440Z,0.0278,-0.9805,0.1669,-0.0636,-0.0262,0.0957,0.0197,0.0174,0.0074,2.9537,1.3935,3.0123
2024-10-11T14:13:05.449Z,0.0318,-0.9811,0.1609,-0.0636,-0.0262,0.0957,0.0197,0.0106,0.0067,2.9537,1.3935,3.0123
2024-10-11T14:13:05.459Z,0.0354,-0.9832,0.1700,-0.0636,-0.0262,0.0957,0.0209,0.0083,0.0068,2.9537,1.3935,3.0123
2024-10-11T14:13:05.469Z,0.0328,-0.9846,0.1670,-0.0985,-0.0089,0.0713,0.0218,0.0053,0.0068,2.9523,1.3930,3.0137
2024-10-11T14:13:05.480Z,0.0372,-0.9833,0.1723,-0.0985,-0.0089,0.0713,0.0212,-0.0048,0.0067,2.9523,1.3930,3.0137
2024-10-11T14:13:05.489Z,0.0349,-0.9842,0.1741,-0.0985,-0.0089,0.0713,0.0227,-0.0045,0.0076,2.9523,1.3930,3.0137
2024-10-11T14:13:05.499Z,0.0439,-0.9855,0.1797,-0.1736,0.0111,-0.0073,0.0222,-0.0045,0.0085,2.9508,1.3924,3.0148
2024-10-11T14:13:05.509Z,0.0388,-0.9846,0.1829,-0.1736,0.0111,-0.0073,0.0192,-0.0083,0.0101,2.9508,1.3924,3.0148
2024-10-11T14:13:05.519Z,0.0347,-0.9893,0.1850,-0.1736,0.0111,-0.0073,0.0162,-0.0140,0.0090,2.9508,1.3924,3.0148
2024-10-11T14:13:05.529Z,0.0303,-0.9916,0.1897,-0.0927,0.0722,-0.0762,0.0141,-0.0182,0.0076,2.9491,1.3919,3.0159
2024-10-11T14:13:05.540Z,0.0295,-0.9950,0.1908,-0.0927,0.0722,-0.0762,0.0143,-0.0227,0.0053,2.9491,1.3919,3.0159
2024-10-11T14:13:05.549Z,0.0274,-0.9989,0.1906,-0.0927,0.0722,-0.0762,0.0164,-0.0322,0.0032,2.9491,1.3919,3.0159
2024-10-11T14:13:05.559Z,0.0263,-1.0008,0.1879,-0.0280,0.1616,-0.1191,0.0113,-0.0329,0.0036,2.9480,1.3916,3.0159
2024-10-11T14:13:05.569Z,0.0318,-1.0033,0.1903,-0.0280,0.1616,-0.1191,0.0096,-0.0335,0.0058,2.9480,1.3916,3.0159
2024-10-11T14:13:05.579Z,0.0369,-1.0073,0.1894,-0.0280,0.1616,-0.1191,0.0100,-0.0418,0.0037,2.9480,1.3916,3.0159
2024-10-11T14:13:05.590Z,0.0327,-1.0058,0.1890,-0.1314,0.2370,-0.1375,0.0073,-0.0445,-0.0003,2.9473,1.3913,3.0153
2024-10-11T14:13:05.599Z,0.0254,-1.0005,0.1916,-0.1314,0.2370,-0.1375,0.0063,-0.0462,0.0023,2.9473,1.3913,3.0153
2024-10-11T14:13:05.609Z,0.0164,-0.9934,0.1968,-0.1314,0.2370,-0.1375,0.0034,-0.0496,-0.0012,2.9473,1.3913,3.0153
2024-10-11T14:13:05.619Z,0.0186,-0.9941,0.1942,0.0660,0.0998,-0.1790,0.0043,-0.0556,-0.0043,2.9473,1.3912,3.0137
2024-10-11T14:13:05.629Z,0.0111,-0.9942,0.2049,0.0660,0.0998,-0.1790,-0.0006,-0.0579,-0.0074,2.9473,1.3912,3.0137
2024-10-11T14:13:05.640Z,0.0149,-0.9956,0.2111,0.0660,0.0998,-0.1790,-0.0045,-0.0626,-0.0113,2.9473,1.3912,3.0137
2024-10-11T14:13:05.648Z,0.0100,-1.0005,0.2057,0.1022,0.1279,-0.3183,-0.0086,-0.0655,-0.0111,2.9488,1.3912,3.0101
2024-10-11T14:13:05.659Z,0.0231,-1.0007,0.2056,0.1022,0.1279,-0.3183,-0.0107,-0.0706,-0.0164,2.9488,1.3912,3.0101
2024-10-11T14:13:05.669Z,0.0261,-1.0010,0.2019,0.1022,0.1279,-0.3183,-0.0129,-0.0694,-0.0148,2.9488,1.3912,3.0101
2024-10-11T14:13:05.679Z,0.0251,-0.9996,0.2044,-0.0004,0.1588,-0.2609,-0.0149,-0.0746,-0.0142,2.9513,1.3915,3.0052
2024-10-11T14:13:05.691Z,0.0322,-0.9995,0.2061,-0.0004,0.1588,-0.2609,-0.0155,-0.0768,-0.0118,2.9513,1.3915,3.0052
2024-10-11T14:13:05.699Z,0.0385,-0.9991,0.2048,-0.0004,0.1588,-0.2609,-0.0228,-0.0722,-0.0114,2.9513,1.3915,3.0052
2024-10-11T14:13:05.709Z,0.0399,-0.9985,0.2053,-0.1559,0.1434,-0.2646,-0.0249,-0.0722,-0.0108,2.9536,1.3920,3.0006
2024-10-11T14:13:05.719Z,0.0283,-0.9973,0.2012,-0.1559,0.1434,-0.2646,-0.0255,-0.0680,-0.0102,2.9536,1.3920,3.0006
2024-10-11T14:13:05.729Z,0.0326,-0.9874,0.2013,-0.1559,0.1434,-0.2646,-0.0307,-0.0705,-0.0103,2.9536,1.3920,3.0006
2024-10-11T14:13:05.740Z,0.0278,-0.9826,0.2009,-0.0319,-0.0101,-0.2541,-0.0328,-0.0639,-0.0107,2.9556,1.3928,2.9962
2024-10-11T14:13:05.749Z,0.0350,-0.9851,0.1966,-0.0319,-0.0101,-0.2541,-0.0360,-0.0666,-0.0072,2.9556,1.3928,2.9962
2024-10-11T14:13:05.759Z,0.0278,-0.9901,0.1949,-0.0319,-0.0101,-0.2541,-0.0369,-0.0660,-0.0064,2.9556,1.3928,2.9962
2024-10-11T14:13:05.769Z,0.0334,-0.9957,0.1901,-0.0329,0.0915,-0.1551,-0.0389,-0.0609,-0.0060,2.9573,1.3938,2.9923
2024-10-11T14:13:05.779Z,0.0328,-0.9981,0.1848,-0.0329,0.0915,-0.1551,-0.0387,-0.0579,-0.0059,2.9573,1.3938,2.9923
2024-10-11T14:13:05.790Z,0.0363,-0.9953,0.1825,-0.0329,0.0915,-0.1551,-0.0327,-0.0638,-0.0009,2.9573,1.3938,2.9923
2024-10-11T14:13:05.799Z,0.0361,-0.9931,0.1814,-0.1045,0.0963,-0.0745,-0.0357,-0.0615,0.0001,2.9585,1.3948,2.9891
2024-10-11T14:13:05.808Z,0.0406,-0.9902,0.1791,-0.1045,0.0963,-0.0745,-0.0337,-0.0547,0.0017,2.9585,1.3948,2.9891
2024-10-11T14:13:05.819Z,0.0470,-0.9865,0.1727,-0.1045,0.0963,-0.0745,-0.0337,-0.0528,0.0058,2.9585,1.3948,2.9891
2024-10-11T14:13:05.829Z,0.0426,-0.9801,0.1694,-0.1804,-0.0163,-0.0039,-0.0324,-0.0503,0.0101,2.9584,1.3958,2.9874
2024-10-11T14:13:05.840Z,0.0370,-0.9761,0.1735,-0.1804,-0.0163,-0.0039,-0.0299,-0.0502,0.0105,2.9584,1.3958,2.9874
2024-10-11T14:13:05.849Z,0.0314,-0.9724,0.1727,-0.1804,-0.0163,-0.0039,-0.0333,-0.0510,0.0112,2.9584,1.3958,2.9874
2024-10-11T14:13:05.859Z,0.0313,-0.9684,0.1747,-0.0639,-0.1481,-0.0461,-0.0328,-0.0498,0.0099,2.9573,1.3968,2.9867
2024-10-11T14:13:05.868Z,0.0306,-0.9732,0.1688,-0.0639,-0.1481,-0.0461,-0.0314,-0.0499,0.0124,2.9573,1.3968,2.9867
2024-10-11T14:13:05.879Z,0.0324,-0.9750,0.1701,-0.0639,-0.1481,-0.0461,-0.0329,-0.0489,0.0125,2.9573,1.3968,2.9867
2024-10-11T14:13:05.890Z,0.0319,-0.9770,0.1678,-0.0449,-0.0958,0.0113,-0.0316,-0.0511,0.0157,2.9557,1.3978,2.9865
2024-10-11T14:13:05.899Z,0.0371,-0.9771,0.1666,-0.0449,-0.0958,0.0113,-0.0329,-0.0484,0.0148,2.9557,1.3978,2.9865
2024-10-11T14:13:05.910Z,0.0314,-0.9770,0.1667,-0.0449,-0.0958,0.0113,-0.0300,-0.0508,0.0143,2.9557,1.3978,2.9865
2024-10-11T14:13:05.920Z,0.0326,-0.9788,0.1674,-0.0366,-0.0760,0.0094,-0.0276,-0.0534,0.0177,2.9535,1.3987,2.9868
2024-10-11T14:13:05.929Z,0.0366,-0.9780,0.1697,-0.0366,-0.0760,0.0094,-0.0261,-0.0528,0.0160,2.9535,1.3987,2.9868
2024-10-11T14:13:05.941Z,0.0348,-0.9794,0.1665,-0.0366,-0.0760,0.0094,-0.0283,-0.0504,0.0190,2.9535,1.3987,2.9868
2024-10-11T14:13:05.949Z,0.0344,-0.9801,0.1693,-0.0995,-0.0630,0.0149,-0.0237,-0.0495,0.0208,2.9508,1.3995,2.9877
2024-10-11T14:13:05.959Z,0.0266,-0.9822,0.1716,-0.0995,-0.0630,0.0149,-0.0252,-0.0520,0.0196,2.9508,1.3995,2.9877
2024-10-11T14:13:05.969Z,0.0225,-0.9802,0.1734,-0.0995,-0.0630,0.0149,-0.0244,-0.0534,0.0189,2.9508,1.3995,2.9877
2024-10-11T14:13:05.979Z,0.0212,-0.9811,0.1722,0.0361,-0.0538,-0.0576,-0.0247,-0.0551,0.0183,2.9479,1.4003,2.9886
2024-10-11T14:13:05.990Z,0.0209,-0.9854,0.1687,0.0361,-0.0538,-0.0576,-0.0173,-0.0642,0.0184,2.9479,1.4003,2.9886
2024-10-11T14:13:05.999Z,0.0179,-0.9890,0.1681,0.0361,-0.0538,-0.0576,-0.0179,-0.0703,0.0163,2.9479,1.4003,2.9886
2024-10-11T14:13:06.009Z,0.0195,-0.9858,0.1781,0.0832,0.0095,-0.0795,-0.0210,-0.0673,0.0153,2.9452,1.4009,2.9891
2024-10-11T14:13:06.019Z,0.0229,-0.9850,0.1761,0.0832,0.0095,-0.0795,-0.0183,-0.0668,0.0171,2.9452,1.4009,2.9891
2024-10-11T14:13:06.029Z,0.0181,-0.9875,0.1716,0.0832,0.0095,-0.0795,-0.0198,-0.0704,0.0109,2.9452,1.4009,2.9891
2024-10-11T14:13:06.041Z,0.0083,-0.9866,0.1764,0.1368,0.0180,-0.0713,-0.0228,-0.0692,0.0091,2.9435,1.4016,2.9884
2024-10-11T14:13:06.049Z,0.0116,-0.9843,0.1743,0.1368,0.0180,-0.0713,-0.0226,-0.0710,0.0099,2.9435,1.4016,2.9884
2024-10-11T14:13:06.059Z,0.0140,-0.9839,0.1768,0.1368,0.0180,-0.0713,-0.0220,-0.0803,0.0052,2.9435,1.4016,2.9884
2024-10-11T14:13:06.069Z,0.0128,-0.9837,0.1782,0.1190,-0.0126,-0.1085,-0.0213,-0.0811,0.0039,2.9427,1.4023,2.9866
2024-10-11T14:13:06.079Z,0.0108,-0.9841,0.1778,0.1190,-0.0126,-0.1085,-0.0254,-0.0794,0.0037,2.9427,1.4023,2.9866
2024-10-11T14:13:06.090Z,0.0145,-0.9806,0.1762,0.1190,-0.0126,-0.1085,-0.0262,-0.0815,0.0013,2.9427,1.4023,2.9866
2024-10-11T14:13:06.099Z,0.0142,-0.9802,0.1756,0.1109,-0.0632,-0.1119,-0.0273,-0.0816,0.0019,2.9427,1.4030,2.9839
2024-10-11T14:13:06.109Z,0.0213,-0.9812,0.1775,0.1109,-0.0632,-0.1119,-0.0301,-0.0772,0.0005,2.9427,1.4030,2.9839
2024-10-11T14:13:06.119Z,0.0235,-0.9821,0.1722,0.1109,-0.0632,-0.1119,-0.0280,-0.0785,0.0026,2.9427,1.4030,2.9839
2024-10-11T14:13:06.129Z,0.0223,-0.9787,0.1711,0.0463,-0.0380,-0.0693,-0.0237,-0.0774,0.0027,2.9429,1.4038,2.9811
2024-10-11T14:13:06.140Z,0.0214,-0.9751,0.1669,0.0463,-0.0380,-0.0693,-0.0272,-0.0774,0.0025,2.9429,1.4038,2.9811
2024-10-11T14:13:06.149Z,0.0165,-0.9751,0.1582,0.0463,-0.0380,-0.0693,-0.0314,-0.0726,0.0074,2.9429,1.4038,2.9811
2024-10-11T14:13:06.159Z,0.0147,-0.9778,0.1537,0.1145,-0.0952,0.0628,-0.0256,-0.0733,0.0037,2.9428,1.4046,2.9788
2024-10-11T14:13:06.169Z,0.0163,-0.9785,0.1560,0.1145,-0.0952,0.0628,-0.0259,-0.0651,0.0043,2.9428,1.4046,2.9788
2024-10-11T14:13:06.179Z,0.0204,-0.9842,0.1502,0.1145,-0.0952,0.0628,-0.0242,-0.0581,0.0018,2.9428,1.4046,2.9788
2024-10-11T14:13:06.189Z,0.0221,-0.9871,0.1491,0.0467,-0.0028,0.1069,-0.0192,-0.0617,0.0038,2.9428,1.4052,2.9766
2024-10-11T14:13:06.199Z,0.0188,-0.9848,0.1516,0.0467,-0.0028,0.1069,-0.0179,-0.0676,0.0027,2.9428,1.4052,2.9766
2024-10-11T14:13:06.209Z,0.0179,-0.9824,0.1515,0.0467,-0.0028,0.1069,-0.0156,-0.0653,0.0030,2.9428,1.4052,2.9766
2024-10-11T14:13:06.219Z,0.0249,-0.9801,0.1591,0.0638,-0.0456,0.0659,-0.0149,-0.0639,0.0056,2.9424,1.4057,2.9749
2024-10-11T14:13:06.229Z,0.0319,-0.9751,0.1587,0.0638,-0.0456,0.0659,-0.0126,-0.0618,0.0066,2.9424,1.4057,2.9749
2024-10-11T14:13:06.239Z,0.0324,-0.9742,0.1547,0.0638,-0.0456,0.0659,-0.0164,-0.0527,0.0046,2.9424,1.4057,2.9749
2024-10-11T14:13:06.249Z,0.0324,-0.9725,0.1546,-0.0542,-0.1360,0.0922,-0.0162,-0.0479,0.0100,2.9412,1.4061,2.9741
2024-10-11T14:13:06.259Z,0.0251,-0.9683,0.1563,-0.0542,-0.1360,0.0922,-0.0124,-0.0459,0.0115,2.9412,1.4061,2.9741
2024-10-11T14:13:06.269Z,0.0226,-0.9700,0.1525,-0.0542,-0.1360,0.0922,-0.0105,-0.0463,0.0088,2.9412,1.4061,2.9741
2024-10-11T14:13:06.279Z,0.0146,-0.9777,0.1496,0.0807,-0.1217,0.1195,-0.0105,-0.0457,0.0130,2.9393,1.4064,2.9743
2024-10-11T14:13:06.289Z,0.0178,-0.9843,0.1482,0.0807,-0.1217,0.1195,-0.0080,-0.0436,0.0110,2.9393,1.4064,2.9743
2024-10-11T14:13:06.299Z,0.0198,-0.9867,0.1496,0.0807,-0.1217,0.1195,-0.0029,-0.0460,0.0082,2.9393,1.4064,2.9743
2024-10-11T14:13:06.310Z,0.0253,-0.9880,0.1498,0.0599,0.0119,0.1272,-0.0001,-0.0455,0.0139,2.9374,1.4066,2.9745
2024-10-11T14:13:06.319Z,0.0235,-0.9830,0.1534,0.0599,0.0119,0.1272,0.0000,-0.0452,0.0131,2.9374,1.4066,2.9745
2024-10-11T14:13:06.329Z,0.0174,-0.9811,0.1595,0.0599,0.0119,0.1272,0.0018,-0.0434,0.0105,2.9374,1.4066,2.9745
2024-10-11T14:13:06.339Z,0.0203,-0.9838,0.1593,0.0772,-0.0307,0.0176,0.0014,-0.0409,0.0122,2.9352,1.4066,2.9752
2024-10-11T14:13:06.349Z,0.0164,-0.9832,0.1625,0.0772,-0.0307,0.0176,-0.0014,-0.0406,0.0115,2.9352,1.4066,2.9752
2024-10-11T14:13:06.358Z,0.0168,-0.9844,0.1606,0.0772,-0.0307,0.0176,-0.0016,-0.0414,0.0108,2.9352,1.4066,2.9752
2024-10-11T14:13:06.368Z,0.0125,-0.9850,0.1572,0.1159,-0.0161,0.0139,0.0004,-0.0418,0.0083,2.9331,1.4067,2.9758
2024-10-11T14:13:06.379Z,0.0142,-0.9866,0.1601,0.1159,-0.0161,0.0139,-0.0012,-0.0404,0.0081,2.9331,1.4067,2.9758
2024-10-11T14:13:06.389Z,0.0176,-0.9848,0.1656,0.1159,-0.0161,0.0139,-0.0030,-0.0356,0.0093,2.9331,1.4067,2.9758
2024-10-11T14:13:06.399Z,0.0186,-0.9926,0.1703,0.0750,0.0117,-0.0729,-0.0011,-0.0407,0.0070,2.9313,1.4067,2.9760
2024-10-11T14:13:06.409Z,0.0174,-0.9985,0.1685,0.0750,0.0117,-0.0729,-0.0000,-0.0396,0.0081,2.9313,1.4067,2.9760
2024-10-11T14:13:06.419Z,0.0259,-1.0023,0.1680,0.0750,0.0117,-0.0729,0.0003,-0.0400,0.0075,2.9313,1.4067,2.9760
2024-10-11T14:13:06.429Z,0.0223,-0.9980,0.1737,0.0133,0.1281,-0.1085,-0.0004,-0.0382,0.0075,2.9298,1.4067,2.9762
2024-10-11T14:13:06.439Z,0.0197,-0.9976,0.1745,0.0133,0.1281,-0.1085,-0.0041,-0.0358,0.0058,2.9298,1.4067,2.9762
2024-10-11T14:13:06.448Z,0.0121,-0.9927,0.1799,0.0133,0.1281,-0.1085,-0.0030,-0.0327,0.0055,2.9298,1.4067,2.9762
2024-10-11T14:13:06.459Z,0.0090,-0.9966,0.1816,0.1865,0.0620,-0.2104,-0.0082,-0.0315,0.0062,2.9283,1.4069,2.9764
2024-10-11T14:13:06.470Z,0.0089,-0.9976,0.1816,0.1865,0.0620,-0.2104,-0.0117,-0.0355,0.0045,2.9283,1.4069,2.9764
2024-10-11T14:13:06.479Z,0.0101,-0.9953,0.1837,0.1865,0.0620,-0.2104,-0.0117,-0.0355,0.0045,2.9283,1.4069,2.9764
2024-10-11T14:13:06.491Z,0.0080,-0.9926,0.1812,0.1738,0.0728,-0.2221,-0.0166,-0.0293,0.0009,2.9277,1.4073,2.9757
2024-10-11T14:13:06.500Z,0.0126,-0.9926,0.1790,0.1738,0.0728,-0.2221,-0.0187,-0.0267,0.0004,2.9277,1.4073,2.9757
2024-10-11T14:13:06.509Z,0.0210,-0.9899,0.1809,0.1738,0.0728,-0.2221,-0.0187,-0.0267,0.0004,2.9277,1.4073,2.9757
2024-10-11T14:13:06.520Z,0.0243,-0.9875,0.1806,0.0315,0.0025,-0.2254,-0.0241,-0.0177,0.0045,2.9279,1.4078,2.9744
2024-10-11T14:13:06.530Z,0.0235,-0.9917,0.1715,0.0315,0.0025,-0.2254,-0.0230,-0.0167,0.0022,2.9279,1.4078,2.9744
2024-10-11T14:13:06.538Z,0.0305,-0.9929,0.1682,0.0315,0.0025,-0.2254,-0.0230,-0.0167,0.0022,2.9279,1.4078,2.9744
2024-10-11T14:13:06.550Z,0.0332,-0.9908,0.1756,-0.0586,0.0548,-0.1216,-0.0251,-0.0136,0.0080,2.9276,1.4085,2.9739
2024-10-11T14:13:06.560Z,0.0282,-0.9901,0.1780,-0.0586,0.0548,-0.1216,-0.0251,-0.0136,0.0080,2.9276,1.4085,2.9739
2024-10-11T14:13:06.570Z,0.0237,-0.9919,0.1711,-0.0586,0.0548,-0.1216,-0.0282,-0.0183,0.0073,2.9276,1.4085,2.9739
2024-10-11T14:13:06.579Z,0.0208,-0.9906,0.1719,0.0584,0.0467,-0.1163,-0.0258,-0.0158,0.0092,2.9266,1.4094,2.9742
2024-10-11T14:13:06.591Z,0.0252,-0.9890,0.1626,0.0584,0.0467,-0.1163,-0.0304,-0.0093,0.0110,2.9266,1.4094,2.9742
2024-10-11T14:13:06.600Z,0.0282,-0.9864,0.1655,0.0584,0.0467,-0.1163,-0.0309,-0.0077,0.0111,2.9266,1.4094,2.9742
2024-10-11T14:13:06.609Z,0.0338,-0.9822,0.1658,-0.0495,-0.0294,-0.0936,-0.0309,-0.0077,0.0111,2.9252,1.4103,2.9751
2024-10-11T14:13:06.620Z,0.0294,-0.9818,0.1650,-0.0495,-0.0294,-0.0936,-0.0337,-0.0030,0.0161,2.9252,1.4103,2.9751
2024-10-11T14:13:06.630Z,0.0244,-0.9817,0.1684,-0.0495,-0.0294,-0.0936,-0.0352,-0.0076,0.0137,2.9252,1.4103,2.9751
2024-10-11T14:13:06.640Z,0.0235,-0.9838,0.1719,0.0117,-0.0438,-0.1160,-0.0341,-0.0034,0.0151,2.9234,1.4112,2.9764
2024-10-11T14:13:06.650Z,0.0217,-0.9848,0.1610,0.0117,-0.0438,-0.1160,-0.0329,-0.0027,0.0137,2.9234,1.4112,2.9764
2024-10-11T14:13:06.659Z,0.0285,-0.9861,0.1544,0.0117,-0.0438,-0.1160,-0.0329,-0.0027,0.0137,2.9234,1.4112,2.9764
2024-10-11T14:13:06.669Z,0.0366,-0.9830,0.1536,-0.0757,-0.0165,0.0370,-0.0298,-0.0013,0.0184,2.9211,1.4123,2.9783
2024-10-11T14:13:06.680Z,0.0343,-0.9821,0.1553,-0.0757,-0.0165,0.0370,-0.0303,0.0002,0.0186,2.9211,1.4123,2.9783
2024-10-11T14:13:06.689Z,0.0329,-0.9833,0.1448,-0.0757,-0.0165,0.0370,-0.0303,0.0002,0.0186,2.9211,1.4123,2.9783
2024-10-11T14:13:06.700Z,0.0276,-0.9859,0.1432,-0.0503,-0.0349,0.1153,-0.0239,0.0052,0.0205,2.9184,1.4132,2.9809
2024-10-11T14:13:06.710Z,0.0296,-0.9853,0.1435,-0.0503,-0.0349,0.1153,-0.0240,0.0049,0.0212,2.9184,1.4132,2.9809
2024-10-11T14:13:06.719Z,0.0284,-0.9855,0.1340,-0.0503,-0.0349,0.1153,-0.0241,0.0030,0.0221,2.9184,1.4132,2.9809
2024-10-11T14:13:06.730Z,0.0221,-0.9820,0.1359,-0.0179,-0.0319,0.1842,-0.0196,-0.0010,0.0179,2.9148,1.4140,2.9842
2024-10-11T14:13:06.740Z,0.0233,-0.9794,0.1287,-0.0179,-0.0319,0.1842,-0.0151,0.0003,0.0195,2.9148,1.4140,2.9842
2024-10-11T14:13:06.750Z,0.0168,-0.9782,0.1315,-0.0179,-0.0319,0.1842,-0.0131,-0.0041,0.0182,2.9148,1.4140,2.9842
2024-10-11T14:13:06.760Z,0.0160,-0.9820,0.1326,0.0884,-0.0853,0.2033,-0.0131,-0.0041,0.0182,2.9115,1.4145,2.9872
2024-10-11T14:13:06.770Z,0.0155,-0.9832,0.1350,0.0884,-0.0853,0.2033,-0.0052,-0.0139,0.0133,2.9115,1.4145,2.9872
2024-10-11T14:13:06.780Z,0.0139,-0.9801,0.1335,0.0938,-0.0838,0.1708,-0.0052,-0.0139,0.0133,2.9088,1.4149,2.9894
2024-10-11T14:13:06.790Z,0.0132,-0.9785,0.1407,0.0938,-0.0838,0.1708,-0.0028,-0.0142,0.0100,2.9088,1.4149,2.9894
2024-10-11T14:13:06.800Z,0.0150,-0.9785,0.1445,0.0938,-0.0838,0.1708,-0.0008,-0.0127,0.0082,2.9088,1.4149,2.9894
2024-10-11T14:13:06.810Z,0.0083,-0.9871,0.1393,0.0938,-0.0838,0.1708,-0.0043,-0.0126,0.0074,2.9088,1.4149,2.9894
2024-10-11T14:13:06.820Z,0.0073,-0.9873,0.1346,0.1694,0.0155,0.1736,0.0016,-0.0179,0.0042,2.9070,1.4150,2.9905
2024-10-11T14:13:06.830Z,0.0062,-0.9908,0.1379,0.1694,0.0155,0.1736,0.0020,-0.0175,0.0035,2.9070,1.4150,2.9905
2024-10-11T14:13:06.839Z,0.0123,-0.9896,0.1425,0.1694,0.0155,0.1736,0.0039,-0.0230,0.0008,2.9070,1.4150,2.9905
2024-10-11T14:13:06.850Z,0.0057,-0.9868,0.1469,0.1321,0.0176,0.0848,0.0045,-0.0279,-0.0035,2.9061,1.4150,2.9906
2024-10-11T14:13:06.860Z,0.0040,-0.9851,0.1532,0.1321,0.0176,0.0848,0.0021,-0.0300,-0.0050,2.9061,1.4150,2.9906
2024-10-11T14:13:06.871Z,0.0066,-0.9853,0.1541,0.1819,-0.0211,-0.0572,0.0009,-0.0310,-0.0061,2.9065,1.4150,2.9891
2024-10-11T14:13:06.880Z,0.0012,-0.9869,0.1618,0.1819,-0.0211,-0.0572,0.0012,-0.0359,-0.0101,2.9065,1.4150,2.9891
2024-10-11T14:13:06.889Z,0.0039,-0.9847,0.1596,0.1819,-0.0211,-0.0572,0.0019,-0.0376,-0.0143,2.9065,1.4150,2.9891
2024-10-11T14:13:06.899Z,0.0016,-0.9853,0.1605,0.1819,-0.0211,-0.0572,-0.0010,-0.0379,-0.0153,2.9065,1.4150,2.9891
2024-10-11T14:13:06.909Z,0.0111,-0.9843,0.1591,0.1880,-0.0417,-0.0442,-0.0026,-0.0405,-0.0150,2.9084,1.4150,2.9859
2024-10-11T14:13:06.919Z,0.0139,-0.9812,0.1601,0.1880,-0.0417,-0.0442,-0.0010,-0.0408,-0.0162,2.9084,1.4150,2.9859
2024-10-11T14:13:06.930Z,0.0199,-0.9854,0.1575,-0.0017,0.0020,-0.0174,-0.0031,-0.0428,-0.0171,2.9109,1.4150,2.9820
2024-10-11T14:13:06.939Z,0.0277,-0.9905,0.1561,-0.0017,0.0020,-0.0174,-0.0025,-0.0415,-0.0143,2.9109,1.4150,2.9820
2024-10-11T14:13:06.949Z,0.0267,-0.9912,0.1566,-0.0017,0.0020,-0.0174,-0.0024,-0.0402,-0.0132,2.9109,1.4150,2.9820
2024-10-11T14:13:06.959Z,0.0277,-0.9917,0.1553,-0.0017,0.0020,-0.0174,-0.0025,-0.0400,-0.0117,2.9109,1.4150,2.9820
2024-10-11T14:13:06.969Z,0.0254,-0.9881,0.1584,-0.0142,0.0143,-0.0173,-0.0033,-0.0355,-0.0127,2.9127,1.4150,2.9787
2024-10-11T14:13:06.979Z,0.0218,-0.9857,0.1571,-0.0142,0.0143,-0.0173,-0.0017,-0.0369,-0.0125,2.9127,1.4150,2.9787
2024-10-11T14:13:06.990Z,0.0207,-0.9867,0.1569,0.0472,-0.0140,0.0018,-0.0017,-0.0369,-0.0125,2.9145,1.4150,2.9756
2024-10-11T14:13:07.000Z,0.0201,-0.9845,0.1533,0.0472,-0.0140,0.0018,-0.0046,-0.0358,-0.0105,2.9145,1.4150,2.9756
2024-10-11T14:13:07.010Z,0.0198,-0.9842,0.1521,0.0472,-0.0140,0.0018,-0.0020,-0.0387,-0.0111,2.9145,1.4150,2.9756
2024-10-11T14:13:07.021Z,0.0204,-0.9816,0.1540,0.0407,-0.0364,-0.0111,-0.0007,-0.0366,-0.0092,2.9164,1.4151,2.9724
2024-10-11T14:13:07.029Z,0.0225,-0.9854,0.1496,0.0407,-0.0364,-0.0111,-0.0017,-0.0357,-0.0092,2.9164,1.4151,2.9724
2024-10-11T14:13:07.039Z,0.0251,-0.9838,0.1515,0.0407,-0.0364,-0.0111,-0.0023,-0.0274,-0.0082,2.9164,1.4151,2.9724
2024-10-11T14:13:07.049Z,0.0223,-0.9850,0.1524,0.0407,-0.0364,-0.0111,-0.0047,-0.0239,-0.0085,2.9164,1.4151,2.9724
2024-10-11T14:13:07.060Z,0.0267,-0.9888,0.1528,0.0320,-0.0117,-0.0151,-0.0025,-0.0242,-0.0042,2.9179,1.4151,2.9698
2024-10-11T14:13:07.069Z,0.0290,-0.9869,0.1546,0.0320,-0.0117,-0.0151,-0.0036,-0.0190,-0.0041,2.9179,1.4151,2.9698
2024-10-11T14:13:07.081Z,0.0317,-0.9836,0.1514,-0.0392,-0.0471,0.0223,-0.0002,-0.0177,-0.0017,2.9182,1.4151,2.9686
2024-10-11T14:13:07.089Z,0.0291,-0.9825,0.1514,-0.0392,-0.0471,0.0223,-0.0007,-0.0166,-0.0044,2.9182,1.4151,2.9686
2024-10-11T14:13:07.099Z,0.0247,-0.9819,0.1537,-0.0392,-0.0471,0.0223,-0.0012,-0.0180,-0.0012,2.9182,1.4151,2.9686
2024-10-11T14:13:07.111Z,0.0247,-0.9825,0.1445,0.0237,-0.0443,0.1111,-0.0012,-0.0180,-0.0012,2.9181,1.4152,2.9679
2024-10-11T14:13:07.119Z,0.0237,-0.9846,0.1393,0.0237,-0.0443,0.1111,0.0007,-0.0090,-0.0012,2.9181,1.4152,2.9679
2024-10-11T14:13:07.129Z,0.0228,-0.9842,0.1435,0.0237,-0.0443,0.1111,0.0020,-0.0089,-0.0005,2.9181,1.4152,2.9679
2024-10-11T14:13:07.140Z,0.0243,-0.9869,0.1448,0.0317,-0.0130,0.0601,0.0046,-0.0087,0.0010,2.9176,1.4151,2.9678
2024-10-11T14:13:07.149Z,0.0259,-0.9865,0.1484,0.0317,-0.0130,0.0601,0.0058,-0.0083,0.0045,2.9176,1.4151,2.9678
2024-10-11T14:13:07.161Z,0.0254,-0.9875,0.1458,0.0317,-0.0130,0.0601,0.0042,-0.0105,0.0024,2.9176,1.4151,2.9678
2024-10-11T14:13:07.171Z,0.0205,-0.9859,0.1566,0.1051,-0.0007,-0.0287,0.0040,-0.0097,-0.0002,2.9168,1.4150,2.9681
2024-10-11T14:13:07.179Z,0.0152,-0.9887,0.1569,0.1051,-0.0007,-0.0287,0.0032,-0.0044,0.0020,2.9168,1.4150,2.9681
2024-10-11T14:13:07.189Z,0.0133,-0.9915,0.1539,0.1051,-0.0007,-0.0287,0.0022,-0.0072,0.0025,2.9168,1.4150,2.9681
2024-10-11T14:13:07.200Z,0.0105,-0.9903,0.1598,0.1229,0.0176,-0.0663,0.0022,-0.0072,0.0025,2.9165,1.4149,2.9680
2024-10-11T14:13:07.211Z,0.0164,-0.9906,0.1581,0.1229,0.0176,-0.0663,-0.0014,-0.0032,-0.0025,2.9165,1.4149,2.9680
2024-10-11T14:13:07.219Z,0.0146,-0.9908,0.1640,0.1229,0.0176,-0.0663,0.0001,-0.0006,-0.0041,2.9165,1.4149,2.9680
2024-10-11T14:13:07.231Z,0.0172,-0.9945,0.1592,0.0760,0.0588,-0.0319,0.0020,-0.0019,-0.0032,2.9166,1.4149,2.9675
2024-10-11T14:13:07.240Z,0.0172,-0.9953,0.1543,0.0760,0.0588,-0.0319,0.0005,-0.0026,-0.0028,2.9166,1.4149,2.9675
2024-10-11T14:13:07.249Z,0.0168,-0.9988,0.1572,0.0760,0.0588,-0.0319,-0.0036,-0.0006,-0.0031,2.9166,1.4149,2.9675
2024-10-11T14:13:07.262Z,0.0205,-0.9984,0.1671,0.0902,0.0993,-0.1193,-0.0046,0.0022,-0.0036,2.9169,1.4149,2.9670
2024-10-11T14:13:07.269Z,0.0157,-0.9969,0.1659,0.0902,0.0993,-0.1193,-0.0057,0.0079,-0.0058,2.9169,1.4149,2.9670
2024-10-11T14:13:07.279Z,0.0139,-1.0010,0.1678,0.0902,0.0993,-0.1193,-0.0072,0.0102,-0.0060,2.9169,1.4149,2.9670
2024-10-11T14:13:07.290Z,0.0098,-1.0031,0.1740,0.2230,0.1488,-0.2416,-0.0122,0.0089,-0.0123,2.9182,1.4151,2.9657
2024-10-11T14:13:07.299Z,0.0021,-1.0033,0.1759,0.2230,0.1488,-0.2416,-0.0097,0.0046,-0.0142,2.9182,1.4151,2.9657
2024-10-11T14:13:07.310Z,0.0096,-1.0042,0.1705,0.2230,0.1488,-0.2416,-0.0130,0.0045,-0.0128,2.9182,1.4151,2.9657
2024-10-11T14:13:07.320Z,0.0059,-1.0046,0.1688,0.1869,0.1676,-0.1698,-0.0158,0.0074,-0.0135,2.9209,1.4154,2.9629
2024-10-11T14:13:07.329Z,0.0133,-1.0066,0.1729,0.1869,0.1676,-0.1698,-0.0196,0.0077,-0.0149,2.9209,1.4154,2.9629
2024-10-11T14:13:07.339Z,0.0175,-1.0007,0.1658,0.1869,0.1676,-0.1698,-0.0214,0.0122,-0.0161,2.9209,1.4154,2.9629
2024-10-11T14:13:07.349Z,0.0293,-1.0027,0.1702,-0.0337,0.1451,-0.1219,-0.0211,0.0152,-0.0141,2.9241,1.4158,2.9598
2024-10-11T14:13:07.359Z,0.0315,-1.0000,0.1642,-0.0337,0.1451,-0.1219,-0.0241,0.0148,-0.0127,2.9241,1.4158,2.9598
2024-10-11T14:13:07.369Z,0.0307,-1.0002,0.1684,-0.0337,0.1451,-0.1219,-0.0253,0.0130,-0.0134,2.9241,1.4158,2.9598
2024-10-11T14:13:07.379Z,0.0264,-0.9940,0.1708,0.0351,0.0669,-0.2094,-0.0278,0.0149,-0.0111,2.9269,1.4165,2.9572
2024-10-11T14:13:07.389Z,0.0237,-0.9952,0.1691,0.0351,0.0669,-0.2094,-0.0297,0.0179,-0.0098,2.9269,1.4165,2.9572
2024-10-11T14:13:07.399Z,0.0286,-0.9883,0.1670,0.0351,0.0669,-0.2094,-0.0331,0.0204,-0.0077,2.9269,1.4165,2.9572
2024-10-11T14:13:07.411Z,0.0294,-0.9926,0.1589,-0.0301,0.0084,-0.0807,-0.0331,0.0204,-0.0077,2.9297,1.4173,2.9547
2024-10-11T14:13:07.419Z,0.0352,-0.9856,0.1586,-0.0301,0.0084,-0.0807,-0.0331,0.0196,-0.0083,2.9297,1.4173,2.9547
2024-10-11T14:13:07.429Z,0.0329,-0.9851,0.1567,-0.0301,0.0084,-0.0807,-0.0342,0.0196,-0.0071,2.9297,1.4173,2.9547
2024-10-11T14:13:07.440Z,0.0312,-0.9822,0.1613,-0.0366,-0.0428,-0.1263,-0.0352,0.0192,-0.0045,2.9320,1.4182,2.9528
2024-10-11T14:13:07.449Z,0.0293,-0.9848,0.1627,-0.0366,-0.0428,-0.1263,-0.0343,0.0232,-0.0068,2.9320,1.4182,2.9528
2024-10-11T14:13:07.460Z,0.0235,-0.9842,0.1610,-0.0366,-0.0428,-0.1263,-0.0344,0.0213,-0.0055,2.9320,1.4182,2.9528
2024-10-11T14:13:07.469Z,0.0270,-0.9865,0.1549,0.0229,-0.0215,-0.0557,-0.0367,0.0262,-0.0048,2.9342,1.4192,2.9510
2024-10-11T14:13:07.479Z,0.0235,-0.9840,0.1527,0.0229,-0.0215,-0.0557,-0.0370,0.0268,-0.0057,2.9342,1.4192,2.9510
2024-10-11T14:13:07.489Z,0.0221,-0.9779,0.1482,0.0229,-0.0215,-0.0557,-0.0390,0.0339,-0.0042,2.9342,1.4192,2.9510
2024-10-11T14:13:07.500Z,0.0212,-0.9799,0.1484,0.0707,-0.1067,0.0251,-0.0352,0.0326,-0.0054,2.9362,1.4202,2.9495
2024-10-11T14:13:07.510Z,0.0254,-0.9760,0.1442,0.0707,-0.1067,0.0251,-0.0341,0.0319,-0.0029,2.9362,1.4202,2.9495
2024-10-11T14:13:07.519Z,0.0298,-0.9747,0.1391,0.0707,-0.1067,0.0251,-0.0287,0.0296,-0.0023,2.9362,1.4202,2.9495
2024-10-11T14:13:07.530Z,0.0315,-0.9781,0.1359,-0.0293,-0.0705,0.1648,-0.0309,0.0353,-0.0028,2.9376,1.4210,2.9488
2024-10-11T14:13:07.538Z,0.0273,-0.9825,0.1292,-0.0293,-0.0705,0.1648,-0.0264,0.0338,0.0012,2.9376,1.4210,2.9488
2024-10-11T14:13:07.548Z,0.0349,-0.9818,0.1361,-0.0293,-0.0705,0.1648,-0.0279,0.0415,0.0032,2.9376,1.4210,2.9488
2024-10-11T14:13:07.560Z,0.0332,-0.9848,0.1364,-0.0001,-0.0573,0.0858,-0.0252,0.0445,0.0015,2.9383,1.4217,2.9490
2024-10-11T14:13:07.569Z,0.0267,-0.9840,0.1393,-0.0001,-0.0573,0.0858,-0.0241,0.0383,-0.0020,2.9383,1.4217,2.9490
2024-10-11T14:13:07.579Z,0.0276,-0.9850,0.1345,-0.0001,-0.0573,0.0858,-0.0182,0.0329,0.0001,2.9383,1.4217,2.9490
2024-10-11T14:13:07.589Z,0.0223,-0.9841,0.1342,0.0406,-0.0768,0.0881,-0.0177,0.0266,0.0001,2.9388,1.4222,2.9492
2024-10-11T14:13:07.599Z,0.0244,-0.9788,0.1372,0.0406,-0.0768,0.0881,-0.0148,0.0264,-0.0032,2.9388,1.4222,2.9492
2024-10-11T14:13:07.609Z,0.0184,-0.9783,0.1408,0.0406,-0.0768,0.0881,-0.0162,0.0284,-0.0038,2.9388,1.4222,2.9492
2024-10-11T14:13:07.620Z,0.0195,-0.9750,0.1407,0.0596,-0.1390,0.0342,-0.0131,0.0311,-0.0043,2.9398,1.4227,2.9488
2024-10-11T14:13:07.629Z,0.0263,-0.9774,0.1414,0.0596,-0.1390,0.0342,-0.0120,0.0341,-0.0030,2.9398,1.4227,2.9488
2024-10-11T14:13:07.639Z,0.0213,-0.9783,0.1428,0.0596,-0.1390,0.0342,-0.0118,0.0261,-0.0052,2.9398,1.4227,2.9488
2024-10-11T14:13:07.650Z,0.0244,-0.9828,0.1386,0.0636,-0.0485,0.0667,-0.0082,0.0232,-0.0050,2.9412,1.4230,2.9479
2024-10-11T14:13:07.660Z,0.0190,-0.9834,0.1388,0.0636,-0.0485,0.0667,-0.0056,0.0217,-0.0073,2.9412,1.4230,2.9479
2024-10-11T14:13:07.669Z,0.0212,-0.9872,0.1405,0.0636,-0.0485,0.0667,-0.0021,0.0186,-0.0086,2.9412,1.4230,2.9479
2024-10-11T14:13:07.680Z,0.0241,-0.9848,0.1476,0.0905,-0.0498,-0.0599,-0.0023,0.0101,-0.0076,2.9426,1.4232,2.9468
2024-10-11T14:13:07.689Z,0.0158,-0.9839,0.1469,0.0905,-0.0498,-0.0599,-0.0050,0.0109,-0.0115,2.9426,1.4232,2.9468
2024-10-11T14:13:07.699Z,0.0181,-0.9830,0.1517,0.0905,-0.0498,-0.0599,-0.0069,0.0092,-0.0133,2.9426,1.4232,2.9468
2024-10-11T14:13:07.713Z,0.0182,-0.9859,0.1494,0.0942,-0.0384,-0.0808,-0.0017,0.0063,-0.0121,2.9448,1.4232,2.9446
2024-10-11T14:13:07.719Z,0.0185,-0.9833,0.1534,0.0942,-0.0384,-0.0808,-0.0054,-0.0010,-0.0137,2.9448,1.4232,2.9446
2024-10-11T14:13:07.729Z,0.0226,-0.9861,0.1550,0.0942,-0.0384,-0.0808,-0.0050,-0.0040,-0.0182,2.9448,1.4232,2.9446
2024-10-11T14:13:07.739Z,0.0250,-0.9868,0.1553,0.0103,-0.0223,-0.1174,-0.0045,-0.0060,-0.0160,2.9476,1.4233,2.9415
2024-10-11T14:13:07.748Z,0.0328,-0.9883,0.1563,0.0103,-0.0223,-0.1174,-0.0066,-0.0046,-0.0145,2.9476,1.4233,2.9415
2024-10-11T14:13:07.759Z,0.0365,-0.9908,0.1650,0.0103,-0.0223,-0.1174,-0.0101,-0.0028,-0.0126,2.9476,1.4233,2.9415
2024-10-11T14:13:07.769Z,0.0377,-0.9913,0.1695,-0.1034,0.0181,-0.2264,-0.0083,0.0017,-0.0142,2.9502,1.4234,2.9386
2024-10-11T14:13:07.779Z,0.0410,-0.9896,0.1605,-0.1034,0.0181,-0.2264,-0.0102,0.0032,-0.0086,2.9502,1.4234,2.9386
2024-10-11T14:13:07.789Z,0.0417,-0.9878,0.1603,-0.1034,0.0181,-0.2264,-0.0124,0.0021,-0.0100,2.9502,1.4234,2.9386
2024-10-11T14:13:07.799Z,0.0417,-0.9868,0.1596,-0.1152,-0.0312,-0.1315,-0.0127,0.0075,-0.0051,2.9520,1.4236,2.9366
2024-10-11T14:13:07.809Z,0.0395,-0.9856,0.1598,-0.1152,-0.0312,-0.1315,-0.0126,0.0065,-0.0053,2.9520,1.4236,2.9366
2024-10-11T14:13:07.819Z,0.0380,-0.9863,0.1534,-0.1152,-0.0312,-0.1315,-0.0132,0.0053,-0.0029,2.9520,1.4236,2.9366
2024-10-11T14:13:07.830Z,0.0403,-0.9893,0.1571,-0.1150,0.0049,-0.1027,-0.0132,0.0053,-0.0029,2.9527,1.4239,2.9360
2024-10-11T14:13:07.839Z,0.0443,-0.9880,0.1557,-0.1150,0.0049,-0.1027,-0.0149,0.0125,0.0018,2.9527,1.4239,2.9360
2024-10-11T14:13:07.849Z,0.0390,-0.9865,0.1555,-0.1150,0.0049,-0.1027,-0.0157,0.0141,0.0035,2.9527,1.4239,2.9360
2024-10-11T14:13:07.860Z,0.0347,-0.9880,0.1534,-0.0610,-0.0127,-0.1119,-0.0161,0.0160,0.0036,2.9526,1.4243,2.9363
2024-10-11T14:13:07.869Z,0.0367,-0.9897,0.1573,-0.0610,-0.0127,-0.1119,-0.0165,0.0163,0.0065,2.9526,1.4243,2.9363
2024-10-11T14:13:07.879Z,0.0405,-0.9895,0.1538,-0.0610,-0.0127,-0.1119,-0.0152,0.0237,0.0072,2.9526,1.4243,2.9363
2024-10-11T14:13:07.890Z,0.0425,-0.9895,0.1496,-0.1114,-0.0141,-0.0437,-0.0172,0.0279,0.0095,2.9518,1.4248,2.9376
2024-10-11T14:13:07.900Z,0.0393,-0.9848,0.1480,-0.1114,-0.0141,-0.0437,-0.0184,0.0306,0.0083,2.9518,1.4248,2.9376
2024-10-11T14:13:07.911Z,0.0355,-0.9807,0.1446,-0.1114,-0.0141,-0.0437,-0.0175,0.0318,0.0133,2.9518,1.4248,2.9376
2024-10-11T14:13:07.919Z,0.0323,-0.9779,0.1445,-0.0175,-0.0827,-0.0104,-0.0167,0.0314,0.0083,2.9504,1.4252,2.9396
2024-10-11T14:13:07.929Z,0.0304,-0.9831,0.1386,-0.0175,-0.0827,-0.0104,-0.0129,0.0292,0.0105,2.9504,1.4252,2.9396
2024-10-11T14:13:07.939Z,0.0342,-0.9877,0.1398,-0.0175,-0.0827,-0.0104,-0.0118,0.0309,0.0112,2.9504,1.4252,2.9396
2024-10-11T14:13:07.949Z,0.0416,-0.9895,0.1399,-0.1669,0.0006,-0.0230,-0.0134,0.0282,0.0157,2.9482,1.4255,2.9423
2024-10-11T14:13:07.960Z,0.0469,-0.9894,0.1414,-0.1669,0.0006,-0.0230,-0.0101,0.0287,0.0194,2.9482,1.4255,2.9423
2024-10-11T14:13:07.969Z,0.0407,-0.9891,0.1475,-0.1669,0.0006,-0.0230,-0.0116,0.0330,0.0182,2.9482,1.4255,2.9423
2024-10-11T14:13:07.979Z,0.0334,-0.9883,0.1466,-0.0326,0.0053,-0.0701,-0.0103,0.0317,0.0182,2.9454,1.4259,2.9457
2024-10-11T14:13:07.989Z,0.0308,-0.9898,0.1489,-0.0326,0.0053,-0.0701,-0.0105,0.0302,0.0152,2.9454,1.4259,2.9457
2024-10-11T14:13:07.999Z,0.0323,-0.9895,0.1490,-0.0326,0.0053,-0.0701,-0.0119,0.0282,0.0154,2.9454,1.4259,2.9457
2024-10-11T14:13:08.010Z,0.0278,-0.9930,0.1443,0.0131,0.0377,-0.0165,-0.0075,0.0246,0.0138,2.9425,1.4262,2.9490
2024-10-11T14:13:08.019Z,0.0222,-0.9913,0.1429,0.0131,0.0377,-0.0165,-0.0119,0.0220,0.0112,2.9425,1.4262,2.9490
2024-10-11T14:13:08.029Z,0.0191,-0.9861,0.1468,0.0131,0.0377,-0.0165,-0.0088,0.0169,0.0124,2.9425,1.4262,2.9490
2024-10-11T14:13:08.039Z,0.0298,-0.9889,0.1481,-0.0337,0.0138,-0.0767,-0.0097,0.0174,0.0103,2.9409,1.4265,2.9510
2024-10-11T14:13:08.049Z,0.0299,-0.9947,0.1483,-0.0337,0.0138,-0.0767,-0.0093,0.0185,0.0116,2.9409,1.4265,2.9510
2024-10-11T14:13:08.059Z,0.0339,-0.9977,0.1430,-0.0337,0.0138,-0.0767,-0.0062,0.0188,0.0114,2.9409,1.4265,2.9510
2024-10-11T14:13:08.069Z,0.0339,-0.9993,0.1489,-0.0541,0.0827,-0.0680,-0.0102,0.0146,0.0116,2.9385,1.4267,2.9535
2024-10-11T14:13:08.079Z,0.0313,-0.9970,0.1507,-0.0541,0.0827,-0.0680,-0.0091,0.0083,0.0115,2.9385,1.4267,2.9535
2024-10-11T14:13:08.089Z,0.0248,-0.9915,0.1475,-0.0541,0.0827,-0.0680,-0.0087,0.0038,0.0092,2.9385,1.4267,2.9535
2024-10-11T14:13:08.100Z,0.0198,-0.9898,0.1514,0.0870,-0.0256,-0.0869,-0.0104,0.0015,0.0079,2.9368,1.4271,2.9551
2024-10-11T14:13:08.111Z,0.0158,-0.9849,0.1523,0.0870,-0.0256,-0.0869,-0.0101,-0.0015,0.0039,2.9368,1.4271,2.9551
2024-10-11T14:13:08.120Z,0.0105,-0.9834,0.1553,0.0870,-0.0256,-0.0869,-0.0107,-0.0029,0.0030,2.9368,1.4271,2.9551
2024-10-11T14:13:08.129Z,0.0138,-0.9819,0.1590,0.1130,-0.0664,-0.1664,-0.0149,-0.0010,0.0035,2.9364,1.4274,2.9553
2024-10-11T14:13:08.139Z,0.0119,-0.9843,0.1566,0.1130,-0.0664,-0.1664,-0.0140,-0.0020,-0.0023,2.9364,1.4274,2.9553
2024-10-11T14:13:08.149Z,0.0137,-0.9884,0.1609,0.1130,-0.0664,-0.1664,-0.0136,-0.0034,-0.0010,2.9364,1.4274,2.9553
2024-10-11T14:13:08.160Z,0.0220,-0.9887,0.1512,0.0506,0.0098,-0.1292,-0.0182,-0.0079,-0.0040,2.9375,1.4278,2.9538
2024-10-11T14:13:08.169Z,0.0186,-0.9938,0.1503,0.0506,0.0098,-0.1292,-0.0180,-0.0030,-0.0045,2.9375,1.4278,2.9538
2024-10-11T14:13:08.178Z,0.0219,-0.9979,0.1482,0.0506,0.0098,-0.1292,-0.0157,-0.0039,-0.0047,2.9375,1.4278,2.9538
2024-10-11T14:13:08.189Z,0.0214,-0.9988,0.1473,0.0688,0.0761,-0.1116,-0.0209,-0.0016,-0.0065,2.9386,1.4283,2.9523
2024-10-11T14:13:08.199Z,0.0217,-0.9969,0.1486,0.0688,0.0761,-0.1116,-0.0212,-0.0001,-0.0044,2.9386,1.4283,2.9523
2024-10-11T14:13:08.210Z,0.0270,-0.9945,0.1431,0.0688,0.0761,-0.1116,-0.0209,-0.0002,-0.0042,2.9386,1.4283,2.9523
2024-10-11T14:13:08.219Z,0.0253,-0.9940,0.1395,0.0295,0.0356,0.0072,-0.0182,-0.0036,-0.0029,2.9398,1.4287,2.9508
2024-10-11T14:13:08.229Z,0.0240,-0.9943,0.1329,0.0295,0.0356,0.0072,-0.0215,0.0012,-0.0039,2.9398,1.4287,2.9508
2024-10-11T14:13:08.239Z,0.0285,-0.9964,0.1373,0.0295,0.0356,0.0072,-0.0209,0.0043,-0.0038,2.9398,1.4287,2.9508
2024-10-11T14:13:08.249Z,0.0312,-0.9941,0.1424,-0.0814,0.0467,-0.0398,-0.0193,0.0077,-0.0025,2.9408,1.4293,2.9498
2024-10-11T14:13:08.261Z,0.0360,-0.9953,0.1429,-0.0814,0.0467,-0.0398,-0.0235,0.0131,0.0022,2.9408,1.4293,2.9498
2024-10-11T14:13:08.269Z,0.0292,-0.9928,0.1401,-0.0814,0.0467,-0.0398,-0.0212,0.0182,-0.0001,2.9408,1.4293,2.9498
2024-10-11T14:13:08.279Z,0.0280,-0.9883,0.1372,0.0196,-0.0289,0.0644,-0.0196,0.0182,0.0016,2.9411,1.4298,2.9497
2024-10-11T14:13:08.289Z,0.0218,-0.9865,0.1348,0.0196,-0.0289,0.0644,-0.0208,0.0158,0.0008,2.9411,1.4298,2.9497
2024-10-11T14:13:08.299Z,0.0203,-0.9845,0.1354,0.0196,-0.0289,0.0644,-0.0198,0.0130,-0.0004,2.9411,1.4298,2.9497
2024-10-11T14:13:08.310Z,0.0251,-0.9829,0.1320,0.0065,-0.0887,0.0486,-0.0166,0.0131,0.0014,2.9415,1.4304,2.9495
2024-10-11T14:13:08.319Z,0.0230,-0.9794,0.1309,0.0065,-0.0887,0.0486,-0.0149,0.0119,0.0028,2.9415,1.4304,2.9495
2024-10-11T14:13:08.330Z,0.0272,-0.9762,0.1290,0.0065,-0.0887,0.0486,-0.0165,0.0157,0.0016,2.9415,1.4304,2.9495
2024-10-11T14:13:08.340Z,0.0205,-0.9732,0.1283,0.0806,-0.1520,0.0322,-0.0174,0.0130,-0.0005,2.9419,1.4309,2.9493
2024-10-11T14:13:08.349Z,0.0194,-0.9783,0.1362,0.0806,-0.1520,0.0322,-0.0154,0.0128,-0.0010,2.9419,1.4309,2.9493
2024-10-11T14:13:08.362Z,0.0237,-0.9802,0.1285,0.0806,-0.1520,0.0322,-0.0117,0.0116,0.0022,2.9419,1.4309,2.9493
2024-10-11T14:13:08.369Z,0.0320,-0.9853,0.1297,-0.0897,-0.0446,0.0996,-0.0102,0.0112,0.0027,2.9418,1.4313,2.9494
2024-10-11T14:13:08.379Z,0.0382,-0.9860,0.1231,-0.0897,-0.0446,0.0996,-0.0070,0.0116,0.0022,2.9418,1.4313,2.9494
2024-10-11T14:13:08.389Z,0.0310,-0.9846,0.1145,-0.0897,-0.0446,0.0996,-0.0046,0.0075,0.0019,2.9418,1.4313,2.9494
2024-10-11T14:13:08.399Z,0.0297,-0.9833,0.1167,-0.0150,-0.0567,0.1841,-0.0011,0.0068,0.0058,2.9410,1.4314,2.9502
2024-10-11T14:13:08.410Z,0.0264,-0.9855,0.1166,-0.0150,-0.0567,0.1841,-0.0009,0.0023,0.0029,2.9410,1.4314,2.9502
2024-10-11T14:13:08.419Z,0.0224,-0.9865,0.1257,-0.0150,-0.0567,0.1841,0.0003,0.0010,0.0026,2.9410,1.4314,2.9502
2024-10-11T14:13:08.429Z,0.0293,-0.9830,0.1262,-0.0186,-0.0871,0.0899,-0.0001,0.0020,0.0012,2.9402,1.4314,2.9507
2024-10-11T14:13:08.439Z,0.0250,-0.9790,0.1313,-0.0186,-0.0871,0.0899,0.0028,-0.0088,0.0036,2.9402,1.4314,2.9507
2024-10-11T14:13:08.449Z,0.0274,-0.9817,0.1299,-0.0186,-0.0871,0.0899,0.0047,-0.0098,0.0015,2.9402,1.4314,2.9507
2024-10-11T14:13:08.461Z,0.0271,-0.9850,0.1319,0.0276,-0.0301,0.0599,0.0040,-0.0130,0.0040,2.9396,1.4314,2.9509
2024-10-11T14:13:08.469Z,0.0242,-0.9883,0.1276,0.0276,-0.0301,0.0599,0.0074,-0.0090,0.0020,2.9396,1.4314,2.9509
2024-10-11T14:13:08.479Z,0.0238,-0.9922,0.1280,0.0276,-0.0301,0.0599,0.0053,-0.0101,-0.0004,2.9396,1.4314,2.9509
2024-10-11T14:13:08.489Z,0.0237,-0.9914,0.1320,0.0299,0.0120,-0.0084,0.0059,-0.0116,0.0020,2.9391,1.4313,2.9508
2024-10-11T14:13:08.499Z,0.0202,-0.9890,0.1365,0.0299,0.0120,-0.0084,0.0092,-0.0187,-0.0007,2.9391,1.4313,2.9508
2024-10-11T14:13:08.510Z,0.0154,-0.9884,0.1387,0.0299,0.0120,-0.0084,0.0083,-0.0234,-0.0014,2.9391,1.4313,2.9508
2024-10-11T14:13:08.519Z,0.0134,-0.9894,0.1419,0.1211,-0.0068,-0.0817,0.0042,-0.0219,-0.0027,2.9391,1.4311,2.9500
2024-10-11T14:13:08.529Z,0.0157,-0.9909,0.1449,0.1211,-0.0068,-0.0817,0.0055,-0.0224,-0.0050,2.9391,1.4311,2.9500
2024-10-11T14:13:08.539Z,0.0182,-0.9899,0.1450,0.1211,-0.0068,-0.0817,0.0028,-0.0244,-0.0084,2.9391,1.4311,2.9500
2024-10-11T14:13:08.549Z,0.0167,-0.9913,0.1526,0.1082,0.0204,-0.1266,-0.0004,-0.0236,-0.0081,2.9399,1.4310,2.9482
2024-10-11T14:13:08.561Z,0.0184,-0.9950,0.1518,0.1082,0.0204,-0.1266,0.0037,-0.0223,-0.0064,2.9399,1.4310,2.9482
2024-10-11T14:13:08.569Z,0.0247,-1.0006,0.1515,0.1082,0.0204,-0.1266,0.0037,-0.0259,-0.0078,2.9399,1.4310,2.9482
2024-10-11T14:13:08.579Z,0.0296,-1.0053,0.1486,-0.0243,0.1500,-0.0831,0.0007,-0.0244,-0.0045,2.9407,1.4309,2.9464
2024-10-11T14:13:08.589Z,0.0287,-1.0029,0.1464,-0.0243,0.1500,-0.0831,0.0027,-0.0255,-0.0044,2.9407,1.4309,2.9464
2024-10-11T14:13:08.598Z,0.0283,-1.0056,0.1362,-0.0243,0.1500,-0.0831,0.0007,-0.0270,-0.0038,2.9407,1.4309,2.9464
2024-10-11T14:13:08.609Z,0.0352,-1.0023,0.1422,-0.0740,0.1122,-0.0595,0.0003,-0.0184,-0.0011,2.9409,1.4309,2.9452
2024-10-11T14:13:08.619Z,0.0325,-1.0020,0.1491,-0.0740,0.1122,-0.0595,-0.0030,-0.0186,-0.0016,2.9409,1.4309,2.9452
2024-10-11T14:13:08.629Z,0.0388,-0.9983,0.1522,-0.0740,0.1122,-0.0595,-0.0042,-0.0116,-0.0015,2.9409,1.4309,2.9452
2024-10-11T14:13:08.639Z,0.0315,-0.9993,0.1571,-0.0042,0.0591,-0.1952,-0.0112,-0.0056,0.0022,2.9404,1.4309,2.9450
2024-10-11T14:13:08.649Z,0.0317,-0.9947,0.1568,-0.0042,0.0591,-0.1952,-0.0129,-0.0027,0.0017,2.9404,1.4309,2.9450
2024-10-11T14:13:08.659Z,0.0309,-0.9953,0.1623,-0.0042,0.0591,-0.1952,-0.0153,-0.0099,0.0031,2.9404,1.4309,2.9450
2024-10-11T14:13:08.669Z,0.0222,-0.9915,0.1595,-0.0405,0.0159,-0.2185,-0.0146,-0.0076,0.0061,2.9398,1.4313,2.9450
2024-10-11T14:13:08.679Z,0.0331,-0.9897,0.1531,-0.0405,0.0159,-0.2185,-0.0185,-0.0035,0.0069,2.9398,1.4313,2.9450
2024-10-11T14:13:08.689Z,0.0298,-0.9865,0.1590,-0.0405,0.0159,-0.2185,-0.0201,-0.0026,0.0070,2.9398,1.4313,2.9450
2024-10-11T14:13:08.699Z,0.0277,-0.9872,0.1480,0.0382,-0.0447,-0.1133,-0.0215,-0.0003,0.0068,2.9393,1.4319,2.9452
2024-10-11T14:13:08.709Z,0.0188,-0.9862,0.1428,0.0382,-0.0447,-0.1133,-0.0233,0.0028,0.0053,2.9393,1.4319,2.9452
2024-10-11T14:13:08.719Z,0.0186,-0.9826,0.1418,0.0382,-0.0447,-0.1133,-0.0210,-0.0010,0.0034,2.9393,1.4319,2.9452
2024-10-11T14:13:08.729Z,0.0178,-0.9837,0.1398,0.0851,-0.0671,-0.0604,-0.0240,0.0026,0.0015,2.9392,1.4325,2.9452
2024-10-11T14:13:08.740Z,0.0233,-0.9846,0.1341,0.0851,-0.0671,-0.0604,-0.0224,0.0020,0.0037,2.9392,1.4325,2.9452
2024-10-11T14:13:08.750Z,0.0208,-0.9868,0.1349,0.0851,-0.0671,-0.0604,-0.0225,0.0037,0.0020,2.9392,1.4325,2.9452
2024-10-11T14:13:08.760Z,0.0191,-0.9880,0.1299,0.0807,-0.0240,0.0503,-0.0211,0.0033,0.0038,2.9392,1.4331,2.9450
2024-10-11T14:13:08.769Z,0.0191,-0.9880,0.1299,0.0807,-0.0240,0.0503,-0.0217,0.0085,0.0026,2.9392,1.4331,2.9450
2024-10-11T14:13:08.778Z,0.0241,-0.9904,0.1250,0.0807,-0.0240,0.0503,-0.0200,0.0111,0.0005,2.9392,1.4331,2.9450
2024-10-11T14:13:08.790Z,0.0212,-0.9873,0.1204,0.0545,-0.0316,0.1213,-0.0172,0.0050,0.0023,2.9390,1.4336,2.9450
2024-10-11T14:13:08.799Z,0.0212,-0.9873,0.1204,0.0545,-0.0316,0.1213,-0.0165,0.0019,0.0002,2.9390,1.4336,2.9450
2024-10-11T14:13:08.811Z,0.0193,-0.9875,0.1300,0.0545,-0.0316,0.1213,-0.0136,0.0003,-0.0017,2.9390,1.4336,2.9450
2024-10-11T14:13:08.820Z,0.0186,-0.9890,0.1272,0.0741,-0.0224,0.0761,-0.0093,0.0003,-0.0014,2.9390,1.4340,2.9449
2024-10-11T14:13:08.828Z,0.0186,-0.9890,0.1272,0.0741,-0.0224,0.0761,-0.0120,-0.0007,-0.0027,2.9390,1.4340,2.9449
2024-10-11T14:13:08.840Z,0.0213,-0.9879,0.1394,0.0741,-0.0224,0.0761,-0.0132,0.0004,-0.0050,2.9390,1.4340,2.9449
2024-10-11T14:13:08.850Z,0.0221,-0.9857,0.1339,0.0513,-0.0301,-0.0365,-0.0155,0.0019,-0.0031,2.9398,1.4343,2.9439
2024-10-11T14:13:08.860Z,0.0260,-0.9849,0.1374,0.0513,-0.0301,-0.0365,-0.0117,0.0028,-0.0021,2.9398,1.4343,2.9439
2024-10-11T14:13:08.870Z,0.0237,-0.9863,0.1271,0.0513,-0.0301,-0.0365,-0.0129,0.0035,-0.0047,2.9398,1.4343,2.9439
2024-10-11T14:13:08.878Z,0.0237,-0.9863,0.1271,0.0445,-0.0312,0.0048,-0.0097,-0.0008,-0.0029,2.9408,1.4347,2.9426
2024-10-11T14:13:08.890Z,0.0178,-0.9920,0.1327,0.0445,-0.0312,0.0048,-0.0099,-0.0039,-0.0064,2.9408,1.4347,2.9426
2024-10-11T14:13:08.900Z,0.0132,-0.9930,0.1330,0.0445,-0.0312,0.0048,-0.0099,-0.0064,-0.0069,2.9408,1.4347,2.9426
2024-10-11T14:13:08.910Z,0.0158,-0.9972,0.1389,0.1255,0.0301,-0.0496,-0.0119,-0.0022,-0.0102,2.9423,1.4350,2.9409
2024-10-11T14:13:08.920Z,0.0143,-1.0030,0.1347,0.1255,0.0301,-0.0496,-0.0081,-0.0036,-0.0080,2.9423,1.4350,2.9409
2024-10-11T14:13:08.929Z,0.0143,-1.0030,0.1347,0.1255,0.0301,-0.0496,-0.0070,-0.0067,-0.0091,2.9423,1.4350,2.9409
2024-10-11T14:13:08.940Z,0.0194,-1.0026,0.1348,0.0581,0.1166,-0.0575,-0.0054,-0.0048,-0.0115,2.9442,1.4351,2.9385
2024-10-11T14:13:08.950Z,0.0177,-0.9991,0.1391,0.0581,0.1166,-0.0575,-0.0097,-0.0087,-0.0134,2.9442,1.4351,2.9385
2024-10-11T14:13:08.960Z,0.0142,-0.9978,0.1403,0.0581,0.1166,-0.0575,-0.0069,-0.0067,-0.0131,2.9442,1.4351,2.9385
2024-10-11T14:13:08.969Z,0.0221,-0.9958,0.1393,0.0906,0.0665,-0.0760,-0.0066,-0.0062,-0.0131,2.9472,1.4353,2.9352
2024-10-11T14:13:08.979Z,0.0221,-0.9958,0.1393,0.0906,0.0665,-0.0760,-0.0101,-0.0046,-0.0146,2.9472,1.4353,2.9352
2024-10-11T14:13:08.989Z,0.0205,-0.9933,0.1386,0.0906,0.0665,-0.0760,-0.0085,-0.0045,-0.0145,2.9472,1.4353,2.9352
2024-10-11T14:13:08.998Z,0.0195,-0.9983,0.1364,0.0859,0.0753,0.0139,-0.0092,0.0012,-0.0136,2.9499,1.4354,2.9321
2024-10-11T14:13:09.010Z,0.0204,-0.9976,0.1317,0.0859,0.0753,0.0139,-0.0062,-0.0013,-0.0135,2.9499,1.4354,2.9321
2024-10-11T14:13:09.020Z,0.0257,-0.9927,0.1391,0.0859,0.0753,0.0139,-0.0054,-0.0034,-0.0135,2.9499,1.4354,2.9321
2024-10-11T14:13:09.029Z,0.0257,-0.9927,0.1391,0.0106,0.0014,-0.0986,-0.0069,-0.0061,-0.0138,2.9528,1.4356,2.9290
2024-10-11T14:13:09.039Z,0.0318,-0.9909,0.1508,0.0106,0.0014,-0.0986,-0.0092,-0.0029,-0.0121,2.9528,1.4356,2.9290
2024-10-11T14:13:09.049Z,0.0288,-0.9878,0.1486,0.0106,0.0014,-0.0986,-0.0141,0.0073,-0.0098,2.9528,1.4356,2.9290
2024-10-11T14:13:09.058Z,0.0288,-0.9878,0.1486,-0.0286,-0.0435,-0.1702,-0.0165,0.0065,-0.0072,2.9550,1.4358,2.9265
2024-10-11T14:13:09.069Z,0.0284,-0.9860,0.1404,-0.0286,-0.0435,-0.1702,-0.0161,0.0091,-0.0073,2.9550,1.4358,2.9265
2024-10-11T14:13:09.080Z,0.0277,-0.9833,0.1381,-0.0286,-0.0435,-0.1702,-0.0162,0.0067,-0.0065,2.9550,1.4358,2.9265
2024-10-11T14:13:09.089Z,0.0302,-0.9845,0.1370,-0.0036,-0.0676,-0.0700,-0.0177,0.0072,-0.0074,2.9570,1.4363,2.9246
2024-10-11T14:13:09.099Z,0.0318,-0.9840,0.1386,-0.0036,-0.0676,-0.0700,-0.0158,0.0029,-0.0051,2.9570,1.4363,2.9246
2024-10-11T14:13:09.110Z,0.0243,-0.9821,0.1365,-0.0036,-0.0676,-0.0700,-0.0181,0.0043,-0.0052,2.9570,1.4363,2.9246
2024-10-11T14:13:09.119Z,0.0195,-0.9809,0.1277,0.0905,-0.0986,-0.0310,-0.0158,0.0067,-0.0051,2.9589,1.4367,2.9226
2024-10-11T14:13:09.130Z,0.0270,-0.9771,0.1321,0.0905,-0.0986,-0.0310,-0.0204,0.0059,-0.0029,2.9589,1.4367,2.9226
2024-10-11T14:13:09.140Z,0.0299,-0.9729,0.1321,0.0905,-0.0986,-0.0310,-0.0167,0.0061,-0.0013,2.9589,1.4367,2.9226
2024-10-11T14:13:09.149Z,0.0272,-0.9757,0.1362,-0.0016,-0.1771,-0.0656,-0.0178,0.0097,-0.0036,2.9603,1.4371,2.9211
2024-10-11T14:13:09.160Z,0.0327,-0.9777,0.1295,-0.0016,-0.1771,-0.0656,-0.0168,0.0070,-0.0000,2.9603,1.4371,2.9211
2024-10-11T14:13:09.170Z,0.0316,-0.9794,0.1224,-0.0016,-0.1771,-0.0656,-0.0150,0.0057,-0.0018,2.9603,1.4371,2.9211
2024-10-11T14:13:09.180Z,0.0316,-0.9794,0.1224,0.0208,-0.1250,0.0658,-0.0139,0.0054,-0.0004,2.9610,1.4375,2.9204
2024-10-11T14:13:09.190Z,0.0219,-0.9797,0.1248,0.0208,-0.1250,0.0658,-0.0127,0.0104,-0.0012,2.9610,1.4375,2.9204
2024-10-11T14:13:09.200Z,0.0191,-0.9811,0.1347,0.0208,-0.1250,0.0658,-0.0156,0.0095,0.0025,2.9610,1.4375,2.9204
2024-10-11T14:13:09.210Z,0.0293,-0.9839,0.1317,0.0740,-0.0820,-0.0346,-0.0137,0.0127,0.0016,2.9611,1.4378,2.9202
2024-10-11T14:13:09.219Z,0.0344,-0.9892,0.1284,0.0740,-0.0820,-0.0346,-0.0133,0.0101,0.0030,2.9611,1.4378,2.9202
2024-10-11T14:13:09.229Z,0.0331,-0.9885,0.1271,0.0740,-0.0820,-0.0346,-0.0082,0.0066,0.0045,2.9611,1.4378,2.9202
2024-10-11T14:13:09.239Z,0.0304,-0.9912,0.1214,-0.0230,-0.0205,0.0452,-0.0075,0.0079,0.0050,2.9605,1.4381,2.9209
2024-10-11T14:13:09.249Z,0.0334,-0.9891,0.1213,-0.0230,-0.0205,0.0452,-0.0031,0.0121,0.0063,2.9605,1.4381,2.9209
2024-10-11T14:13:09.259Z,0.0322,-0.9877,0.1231,-0.0230,-0.0205,0.0452,-0.0046,0.0122,0.0086,2.9605,1.4381,2.9209
2024-10-11T14:13:09.269Z,0.0275,-0.9861,0.1288,-0.0304,-0.0410,0.0141,-0.0009,0.0159,0.0094,2.9590,1.4382,2.9224
2024-10-11T14:13:09.280Z,0.0218,-0.9849,0.1274,-0.0304,-0.0410,0.0141,-0.0026,0.0153,0.0067,2.9590,1.4382,2.9224
2024-10-11T14:13:09.289Z,0.0203,-0.9875,0.1275,-0.0304,-0.0410,0.0141,-0.0017,0.0154,0.0064,2.9590,1.4382,2.9224
2024-10-11T14:13:09.299Z,0.0204,-0.9902,0.1356,0.0653,-0.0141,-0.0105,0.0005,0.0119,0.0068,2.9572,1.4383,2.9244
2024-10-11T14:13:09.309Z,0.0182,-0.9899,0.1391,0.0653,-0.0141,-0.0105,0.0012,0.0093,0.0035,2.9572,1.4383,2.9244
2024-10-11T14:13:09.319Z,0.0179,-0.9928,0.1400,0.0653,-0.0141,-0.0105,-0.0026,0.0101,0.0048,2.9572,1.4383,2.9244
2024-10-11T14:13:09.330Z,0.0243,-0.9977,0.1411,0.0831,0.0336,-0.1263,-0.0015,0.0117,0.0053,2.9561,1.4383,2.9255
2024-10-11T14:13:09.339Z,0.0282,-0.9993,0.1414,0.0831,0.0336,-0.1263,-0.0011,0.0163,0.0023,2.9561,1.4383,2.9255
2024-10-11T14:13:09.349Z,0.0224,-1.0033,0.1411,0.0831,0.0336,-0.1263,-0.0034,0.0170,0.0037,2.9561,1.4383,2.9255
2024-10-11T14:13:09.359Z,0.0253,-0.9977,0.1423,0.0458,0.0954,-0.1208,-0.0031,0.0150,0.0030,2.9551,1.4384,2.9266
2024-10-11T14:13:09.369Z,0.0216,-0.9951,0.1358,0.0458,0.0954,-0.1208,-0.0034,0.0145,0.0041,2.9551,1.4384,2.9266
2024-10-11T14:13:09.380Z,0.0276,-0.9928,0.1413,0.0458,0.0954,-0.1208,-0.0014,0.0136,0.0032,2.9551,1.4384,2.9266
2024-10-11T14:13:09.389Z,0.0232,-0.9939,0.1399,0.0201,0.0152,-0.1076,-0.0041,0.0145,0.0037,2.9537,1.4385,2.9283
2024-10-11T14:13:09.399Z,0.0273,-1.0026,0.1433,0.0201,0.0152,-0.1076,-0.0046,0.0151,0.0036,2.9537,1.4385,2.9283
2024-10-11T14:13:09.410Z,0.0304,-1.0049,0.1450,0.0201,0.0152,-0.1076,-0.0071,0.0255,0.0047,2.9537,1.4385,2.9283
2024-10-11T14:13:09.419Z,0.0255,-1.0097,0.1449,-0.0117,0.1652,-0.1676,-0.0119,0.0256,0.0052,2.9525,1.4386,2.9299
2024-10-11T14:13:09.430Z,0.0243,-1.0070,0.1526,-0.0117,0.1652,-0.1676,-0.0082,0.0248,0.0036,2.9525,1.4386,2.9299
2024-10-11T14:13:09.440Z,0.0240,-1.0085,0.1497,-0.0117,0.1652,-0.1676,-0.0099,0.0197,0.0039,2.9525,1.4386,2.9299
2024-10-11T14:13:09.450Z,0.0287,-1.0055,0.1542,0.0197,0.1570,-0.2344,-0.0165,0.0223,0.0078,2.9514,1.4389,2.9314
2024-10-11T14:13:09.459Z,0.0344,-1.0052,0.1519,0.0197,0.1570,-0.2344,-0.0143,0.0212,0.0054,2.9514,1.4389,2.9314
2024-10-11T14:13:09.469Z,0.0214,-1.0003,0.1524,0.0197,0.1570,-0.2344,-0.0179,0.0282,0.0045,2.9514,1.4389,2.9314
2024-10-11T14:13:09.480Z,0.0168,-0.9984,0.1456,0.0865,0.0803,-0.1999,-0.0218,0.0287,0.0055,2.9505,1.4394,2.9329
2024-10-11T14:13:09.489Z,0.0172,-0.9922,0.1482,0.0865,0.0803,-0.1999,-0.0211,0.0272,0.0056,2.9505,1.4394,2.9329
2024-10-11T14:13:09.499Z,0.0208,-0.9898,0.1471,0.0865,0.0803,-0.1999,-0.0207,0.0301,-0.0006,2.9505,1.4394,2.9329
2024-10-11T14:13:09.509Z,0.0219,-0.9960,0.1492,0.0480,-0.0057,-0.1877,-0.0234,0.0284,-0.0012,2.9510,1.4400,2.9329
2024-10-11T14:13:09.519Z,0.0203,-0.9949,0.1427,0.0480,-0.0057,-0.1877,-0.0219,0.0269,-0.0010,2.9510,1.4400,2.9329
2024-10-11T14:13:09.530Z,0.0208,-0.9940,0.1357,0.0480,-0.0057,-0.1877,-0.0234,0.0264,-0.0011,2.9510,1.4400,2.9329
2024-10-11T14:13:09.539Z,0.0236,-0.9851,0.1348,0.0633,-0.0073,-0.0625,-0.0239,0.0269,-0.0029,2.9521,1.4406,2.9324
2024-10-11T14:13:09.549Z,0.0256,-0.9836,0.1285,0.0633,-0.0073,-0.0625,-0.0244,0.0231,-0.0017,2.9521,1.4406,2.9324
2024-10-11T14:13:09.559Z,0.0243,-0.9764,0.1320,0.0633,-0.0073,-0.0625,-0.0246,0.0249,-0.0032,2.9521,1.4406,2.9324
2024-10-11T14:13:09.569Z,0.0254,-0.9785,0.1262,0.0155,-0.1466,-0.0233,-0.0261,0.0261,-0.0043,2.9534,1.4412,2.9316
2024-10-11T14:13:09.580Z,0.0232,-0.9780,0.1282,0.0155,-0.1466,-0.0233,-0.0250,0.0287,-0.0041,2.9534,1.4412,2.9316
2024-10-11T14:13:09.589Z,0.0242,-0.9762,0.1199,0.0155,-0.1466,-0.0233,-0.0222,0.0253,-0.0051,2.9534,1.4412,2.9316
2024-10-11T14:13:09.599Z,0.0186,-0.9792,0.1159,0.0436,-0.1388,0.0373,-0.0198,0.0192,-0.0060,2.9549,1.4418,2.9307
2024-10-11T14:13:09.609Z,0.0207,-0.9809,0.1155,0.0436,-0.1388,0.0373,-0.0190,0.0167,-0.0067,2.9549,1.4418,2.9307
2024-10-11T14:13:09.619Z,0.0182,-0.9795,0.1165,0.0436,-0.1388,0.0373,-0.0178,0.0197,-0.0066,2.9549,1.4418,2.9307
2024-10-11T14:13:09.631Z,0.0282,-0.9804,0.1152,0.0468,-0.1226,0.0715,-0.0160,0.0196,-0.0091,2.9568,1.4423,2.9292
2024-10-11T14:13:09.640Z,0.0331,-0.9826,0.1110,0.0468,-0.1226,0.0715,-0.0151,0.0227,-0.0046,2.9568,1.4423,2.9292
2024-10-11T14:13:09.650Z,0.0370,-0.9823,0.1079,0.0468,-0.1226,0.0715,-0.0132,0.0257,-0.0038,2.9568,1.4423,2.9292
2024-10-11T14:13:09.659Z,0.0382,-0.9820,0.1055,-0.1330,-0.0916,0.1733,-0.0086,0.0261,-0.0014,2.9580,1.4426,2.9285
2024-10-11T14:13:09.670Z,0.0281,-0.9822,0.1079,-0.1330,-0.0916,0.1733,-0.0081,0.0271,-0.0020,2.9580,1.4426,2.9285
2024-10-11T14:13:09.681Z,0.0249,-0.9829,0.1132,-0.1330,-0.0916,0.1733,-0.0062,0.0259,-0.0031,2.9580,1.4426,2.9285
2024-10-11T14:13:09.689Z,0.0226,-0.9832,0.1177,0.0431,-0.0853,0.0933,-0.0041,0.0232,-0.0009,2.9582,1.4428,2.9288
2024-10-11T14:13:09.699Z,0.0237,-0.9824,0.1191,0.0431,-0.0853,0.0933,-0.0028,0.0213,-0.0007,2.9582,1.4428,2.9288
2024-10-11T14:13:09.709Z,0.0282,-0.9809,0.1266,0.0431,-0.0853,0.0933,-0.0037,0.0202,-0.0037,2.9582,1.4428,2.9288
2024-10-11T14:13:09.719Z,0.0290,-0.9848,0.1239,-0.0084,-0.0841,0.0152,-0.0007,0.0166,-0.0015,2.9587,1.4429,2.9287
2024-10-11T14:13:09.730Z,0.0279,-0.9887,0.1227,-0.0084,-0.0841,0.0152,-0.0020,0.0217,-0.0013,2.9587,1.4429,2.9287
2024-10-11T14:13:09.739Z,0.0285,-0.9886,0.1225,-0.0084,-0.0841,0.0152,-0.0019,0.0168,-0.0010,2.9587,1.4429,2.9287
2024-10-11T14:13:09.749Z,0.0331,-0.9900,0.1266,-0.0465,-0.0232,0.0266,-0.0043,0.0209,-0.0019,2.9595,1.4431,2.9283
2024-10-11T14:13:09.759Z,0.0318,-0.9917,0.1222,-0.0465,-0.0232,0.0266,-0.0036,0.0222,-0.0019,2.9595,1.4431,2.9283
2024-10-11T14:13:09.769Z,0.0312,-0.9970,0.1212,-0.0465,-0.0232,0.0266,-0.0016,0.0195,0.0022,2.9595,1.4431,2.9283
2024-10-11T14:13:09.779Z,0.0296,-0.9965,0.1229,-0.0380,0.0471,0.0331,-0.0019,0.0155,0.0010,2.9594,1.4432,2.9286
2024-10-11T14:13:09.789Z,0.0260,-0.9944,0.1238,-0.0380,0.0471,0.0331,-0.0039,0.0181,0.0014,2.9594,1.4432,2.9286
2024-10-11T14:13:09.799Z,0.0238,-0.9896,0.1297,-0.0380,0.0471,0.0331,-0.0062,0.0167,-0.0014,2.9594,1.4432,2.9286
2024-10-11T14:13:09.809Z,0.0225,-0.9901,0.1337,0.0366,-0.0169,-0.0825,-0.0047,0.0137,0.0001,2.9593,1.4433,2.9288
2024-10-11T14:13:09.819Z,0.0293,-0.9949,0.1373,0.0366,-0.0169,-0.0825,-0.0067,0.0121,0.0001,2.9593,1.4433,2.9288
2024-10-11T14:13:09.830Z,0.0332,-0.9995,0.1320,0.0366,-0.0169,-0.0825,-0.0070,0.0146,-0.0003,2.9593,1.4433,2.9288
2024-10-11T14:13:09.839Z,0.0298,-1.0019,0.1292,-0.0520,0.0844,-0.0831,-0.0088,0.0139,-0.0005,2.9597,1.4435,2.9286
2024-10-11T14:13:09.849Z,0.0272,-1.0061,0.1279,-0.0520,0.0844,-0.0831,-0.0100,0.0146,-0.0007,2.9597,1.4435,2.9286
2024-10-11T14:13:09.859Z,0.0304,-1.0076,0.1287,-0.0520,0.0844,-0.0831,-0.0107,0.0091,0.0020,2.9597,1.4435,2.9286
2024-10-11T14:13:09.869Z,0.0311,-1.0074,0.1292,-0.0456,0.1661,-0.0546,-0.0093,0.0121,0.0001,2.9602,1.4437,2.9282
2024-10-11T14:13:09.881Z,0.0237,-1.0063,0.1370,-0.0456,0.1661,-0.0546,-0.0114,0.0088,-0.0021,2.9602,1.4437,2.9282
2024-10-11T14:13:09.889Z,0.0235,-1.0081,0.1329,-0.0456,0.1661,-0.0546,-0.0134,0.0040,-0.0034,2.9602,1.4437,2.9282
2024-10-11T14:13:09.899Z,0.0231,-1.0069,0.1324,0.0297,0.1673,-0.0936,-0.0118,0.0046,-0.0036,2.9609,1.4439,2.9273
2024-10-11T14:13:09.909Z,0.0287,-1.0078,0.1288,0.0297,0.1673,-0.0936,-0.0125,0.0001,-0.0045,2.9609,1.4439,2.9273
2024-10-11T14:13:09.919Z,0.0313,-1.0083,0.1240,0.0297,0.1673,-0.0936,-0.0114,-0.0006,-0.0051,2.9609,1.4439,2.9273
2024-10-11T14:13:09.929Z,0.0311,-1.0088,0.1246,-0.0343,0.1615,-0.0036,-0.0156,0.0002,-0.0048,2.9622,1.4442,2.9258
2024-10-11T14:13:09.939Z,0.0333,-1.0076,0.1211,-0.0343,0.1615,-0.0036,-0.0170,0.0023,-0.0045,2.9622,1.4442,2.9258
2024-10-11T14:13:09.949Z,0.0303,-1.0004,0.1220,-0.0343,0.1615,-0.0036,-0.0136,0.0044,-0.0041,2.9622,1.4442,2.9258
2024-10-11T14:13:09.959Z,0.0248,-0.9933,0.1165,-0.0067,0.0523,0.0457,-0.0152,0.0017,-0.0038,2.9634,1.4446,2.9243
2024-10-11T14:13:09.969Z,0.0252,-0.9918,0.1195,-0.0067,0.0523,0.0457,-0.0165,0.0052,-0.0049,2.9634,1.4446,2.9243
2024-10-11T14:13:09.979Z,0.0266,-0.9903,0.1305,-0.0067,0.0523,0.0457,-0.0129,0.0031,-0.0046,2.9634,1.4446,2.9243
2024-10-11T14:13:09.989Z,0.0266,-0.9937,0.1300,0.0011,0.0015,-0.0833,-0.0180,0.0017,-0.0018,2.9644,1.4450,2.9231
2024-10-11T14:13:09.998Z,0.0254,-0.9900,0.1277,0.0011,0.0015,-0.0833,-0.0171,0.0016,-0.0031,2.9644,1.4450,2.9231
2024-10-11T14:13:10.009Z,0.0329,-0.9896,0.1263,0.0011,0.0015,-0.0833,-0.0177,0.0001,-0.0021,2.9644,1.4450,2.9231
2024-10-11T14:13:10.019Z,0.0345,-0.9853,0.1223,-0.0603,-0.0359,0.0018,-0.0158,0.0006,-0.0008,2.9659,1.4455,2.9215
2024-10-11T14:13:10.029Z,0.0357,-0.9815,0.1198,-0.0603,-0.0359,0.0018,-0.0174,0.0028,0.0004,2.9659,1.4455,2.9215
2024-10-11T14:13:10.039Z,0.0300,-0.9794,0.1206,-0.0603,-0.0359,0.0018,-0.0166,0.0018,-0.0024,2.9659,1.4455,2.9215
2024-10-11T14:13:10.049Z,0.0262,-0.9777,0.1227,-0.0135,-0.1414,0.0204,-0.0166,0.0032,-0.0022,2.9669,1.4460,2.9203
2024-10-11T14:13:10.059Z,0.0244,-0.9746,0.1244,-0.0135,-0.1414,0.0204,-0.0158,0.0029,-0.0037,2.9669,1.4460,2.9203
2024-10-11T14:13:10.069Z,0.0305,-0.9737,0.1193,-0.0135,-0.1414,0.0204,-0.0176,0.0004,-0.0017,2.9669,1.4460,2.9203
2024-10-11T14:13:10.080Z,0.0259,-0.9756,0.1211,-0.0194,-0.1775,-0.0119,-0.0139,0.0032,-0.0026,2.9680,1.4463,2.9189
2024-10-11T14:13:10.089Z,0.0258,-0.9818,0.1214,-0.0194,-0.1775,-0.0119,-0.0151,0.0018,-0.0034,2.9680,1.4463,2.9189
2024-10-11T14:13:10.100Z,0.0283,-0.9829,0.1236,-0.0194,-0.1775,-0.0119,-0.0153,0.0021,-0.0022,2.9680,1.4463,2.9189
2024-10-11T14:13:10.110Z,0.0300,-0.9896,0.1240,-0.0112,-0.0631,-0.0414,-0.0172,0.0005,-0.0024,2.9695,1.4467,2.9172
2024-10-11T14:13:10.119Z,0.0296,-0.9923,0.1191,-0.0112,-0.0631,-0.0414,-0.0148,0.0001,-0.0018,2.9695,1.4467,2.9172
2024-10-11T14:13:10.129Z,0.0245,-0.9918,0.1222,-0.0112,-0.0631,-0.0414,-0.0151,0.0003,-0.0034,2.9695,1.4467,2.9172
2024-10-11T14:13:10.139Z,0.0247,-0.9907,0.1185,0.0507,-0.0074,-0.0051,-0.0147,-0.0027,-0.0042,2.9707,1.4471,2.9158
2024-10-11T14:13:10.149Z,0.0315,-0.9903,0.1169,0.0507,-0.0074,-0.0051,-0.0131,0.0001,-0.0025,2.9707,1.4471,2.9158
2024-10-11T14:13:10.159Z,0.0319,-0.9908,0.1171,0.0507,-0.0074,-0.0051,-0.0143,0.0050,-0.0029,2.9707,1.4471,2.9158
2024-10-11T14:13:10.169Z,0.0294,-0.9913,0.1204,-0.0205,-0.0036,-0.0126,-0.0117,0.0006,-0.0029,2.9714,1.4474,2.9148
2024-10-11T14:13:10.180Z,0.0278,-0.9904,0.1273,-0.0205,-0.0036,-0.0126,-0.0086,-0.0027,-0.0009,2.9714,1.4474,2.9148
