time,gFx,gFy,gFz,ax,ay,az,wx,wy,wz,yaw,pitch,roll
2024-10-11T14:08:50.016Z,0.0148,-0.9967,0.0657,0.0890,-0.0228,-0.2885,0.0175,0.0171,-0.0411,-2.9411,1.5273,2.5591
2024-10-11T14:08:50.022Z,0.0026,-0.9918,0.0608,0.0890,-0.0228,-0.2885,0.0119,0.0209,-0.0416,-2.9411,1.5273,2.5591
2024-10-11T14:08:50.033Z,0.0268,-0.9736,0.0498,-0.0168,-0.2492,-0.1275,0.0152,0.0097,-0.0420,-2.9240,1.5262,2.5424
2024-10-11T14:08:50.043Z,0.0784,-0.9615,0.0579,-0.0168,-0.2492,-0.1275,0.0124,0.0267,-0.0417,-2.9240,1.5262,2.5424
2024-10-11T14:08:50.053Z,0.0351,-0.9989,0.0780,-0.0168,-0.2492,-0.1275,0.0053,0.0345,-0.0402,-2.9240,1.5262,2.5424
2024-10-11T14:08:50.063Z,0.0197,-0.9893,0.0754,0.0648,-0.0948,-0.3749,-0.0004,0.0366,-0.0435,-2.9071,1.5253,2.5260
2024-10-11T14:08:50.073Z,0.0352,-0.9954,0.0751,0.0648,-0.0948,-0.3749,0.0020,0.0436,-0.0397,-2.9071,1.5253,2.5260
2024-10-11T14:08:50.083Z,0.0352,-0.9895,0.0679,0.0648,-0.0948,-0.3749,0.0024,0.0447,-0.0368,-2.9071,1.5253,2.5260
2024-10-11T14:08:50.093Z,0.0568,-0.9891,0.0536,-0.2887,-0.0967,-0.1593,0.0022,0.0481,-0.0336,-2.8891,1.5245,2.5090
2024-10-11T14:08:50.103Z,0.0564,-0.9824,0.0376,-0.2887,-0.0967,-0.1593,0.0027,0.0530,-0.0343,-2.8891,1.5245,2.5090
2024-10-11T14:08:50.113Z,0.0636,-0.9857,0.0367,-0.2887,-0.0967,-0.1593,0.0043,0.0551,-0.0310,-2.8891,1.5245,2.5090
2024-10-11T14:08:50.123Z,0.0606,-0.9824,0.0399,-0.3174,-0.1618,-0.0237,0.0067,0.0586,-0.0270,-2.8747,1.5238,2.4959
2024-10-11T14:08:50.133Z,0.0622,-0.9828,0.0394,-0.3174,-0.1618,-0.0237,0.0064,0.0607,-0.0228,-2.8747,1.5238,2.4959
2024-10-11T14:08:50.143Z,0.0673,-0.9815,0.0437,-0.3174,-0.1618,-0.0237,0.0061,0.0694,-0.0205,-2.8747,1.5238,2.4959
2024-10-11T14:08:50.153Z,0.0672,-0.9822,0.0451,-0.3763,-0.1631,-0.0716,0.0078,0.0740,-0.0157,-2.8673,1.5232,2.4902
2024-10-11T14:08:50.163Z,0.0596,-0.9826,0.0468,-0.3763,-0.1631,-0.0716,0.0099,0.0808,-0.0140,-2.8673,1.5232,2.4902
2024-10-11T14:08:50.173Z,0.0552,-0.9830,0.0521,-0.3763,-0.1631,-0.0716,0.0086,0.0857,-0.0116,-2.8673,1.5232,2.4902
2024-10-11T14:08:50.183Z,0.0487,-0.9838,0.0567,-0.1915,-0.1472,-0.1814,0.0122,0.0935,-0.0079,-2.8650,1.5227,2.4901
2024-10-11T14:08:50.193Z,0.0457,-0.9876,0.0555,-0.1915,-0.1472,-0.1814,0.0114,0.1015,-0.0053,-2.8650,1.5227,2.4901
2024-10-11T14:08:50.204Z,0.0486,-0.9915,0.0591,-0.1915,-0.1472,-0.1814,0.0125,0.1050,-0.0034,-2.8650,1.5227,2.4901
2024-10-11T14:08:50.213Z,0.0648,-0.9929,0.0548,-0.3503,-0.0581,-0.1583,0.0186,0.1120,0.0026,-2.8684,1.5223,2.4963
2024-10-11T14:08:50.222Z,0.0564,-0.9966,0.0563,-0.3503,-0.0581,-0.1583,0.0185,0.1217,0.0078,-2.8684,1.5223,2.4963
2024-10-11T14:08:50.233Z,0.0593,-0.9973,0.0516,-0.3503,-0.0581,-0.1583,0.0220,0.1275,0.0120,-2.8684,1.5223,2.4963
2024-10-11T14:08:50.243Z,0.0715,-0.9981,0.0471,-0.4196,-0.0066,-0.0755,0.0202,0.1314,0.0150,-2.8796,1.5220,2.5109
2024-10-11T14:08:50.253Z,0.0793,-1.0020,0.0542,-0.4196,-0.0066,-0.0755,0.0247,0.1370,0.0215,-2.8796,1.5220,2.5109
2024-10-11T14:08:50.263Z,0.0732,-1.0007,0.0585,-0.4196,-0.0066,-0.0755,0.0249,0.1403,0.0237,-2.8796,1.5220,2.5109
2024-10-11T14:08:50.273Z,0.0585,-1.0048,0.0554,-0.2998,0.0585,-0.1489,0.0282,0.1391,0.0294,-2.9001,1.5218,2.5352
2024-10-11T14:08:50.283Z,0.0601,-1.0044,0.0477,-0.2998,0.0585,-0.1489,0.0313,0.1408,0.0300,-2.9001,1.5218,2.5352
2024-10-11T14:08:50.293Z,0.0620,-1.0027,0.0406,-0.2998,0.0585,-0.1489,0.0364,0.1419,0.0312,-2.9001,1.5218,2.5352
2024-10-11T14:08:50.303Z,0.0622,-0.9995,0.0394,-0.3471,0.0071,0.0189,0.0369,0.1420,0.0341,-2.9271,1.5215,2.5662
2024-10-11T14:08:50.313Z,0.0654,-0.9955,0.0370,-0.3471,0.0071,0.0189,0.0385,0.1418,0.0340,-2.9271,1.5215,2.5662
2024-10-11T14:08:50.322Z,0.0518,-0.9973,0.0452,-0.3471,0.0071,0.0189,0.0429,0.1437,0.0340,-2.9271,1.5215,2.5662
2024-10-11T14:08:50.333Z,0.0429,-0.9981,0.0497,-0.1698,-0.0068,-0.0681,0.0479,0.1404,0.0369,-2.9586,1.5210,2.6017
2024-10-11T14:08:50.343Z,0.0433,-0.9996,0.0525,-0.1698,-0.0068,-0.0681,0.0429,0.1352,0.0358,-2.9586,1.5210,2.6017
2024-10-11T14:08:50.353Z,0.0397,-0.9991,0.0589,-0.1698,-0.0068,-0.0681,0.0462,0.1336,0.0369,-2.9586,1.5210,2.6017
2024-10-11T14:08:50.363Z,0.0354,-0.9993,0.0627,-0.1085,0.0061,-0.1815,0.0461,0.1311,0.0359,-2.9918,1.5203,2.6386
2024-10-11T14:08:50.372Z,0.0317,-1.0012,0.0669,-0.1085,0.0061,-0.1815,0.0478,0.1278,0.0354,-2.9918,1.5203,2.6386
2024-10-11T14:08:50.383Z,0.0267,-1.0011,0.0655,-0.1085,0.0061,-0.1815,0.0493,0.1288,0.0337,-2.9918,1.5203,2.6386
2024-10-11T14:08:50.393Z,0.0225,-1.0018,0.0557,0.0064,0.0310,-0.0981,0.0501,0.1230,0.0278,-3.0229,1.5195,2.6733
2024-10-11T14:08:50.404Z,0.0166,-1.0026,0.0550,0.0064,0.0310,-0.0981,0.0501,0.1162,0.0268,-3.0229,1.5195,2.6733
2024-10-11T14:08:50.413Z,0.0108,-1.0008,0.0521,0.0064,0.0310,-0.0981,0.0570,0.1099,0.0232,-3.0229,1.5195,2.6733
2024-10-11T14:08:50.422Z,0.0082,-0.9989,0.0488,0.1369,0.0026,-0.0143,0.0583,0.1058,0.0190,-3.0495,1.5185,2.7031
2024-10-11T14:08:50.433Z,0.0001,-0.9986,0.0417,0.1369,0.0026,-0.0143,0.0611,0.0964,0.0145,-3.0495,1.5185,2.7031
2024-10-11T14:08:50.443Z,0.0055,-0.9969,0.0365,0.1369,0.0026,-0.0143,0.0644,0.0937,0.0076,-3.0495,1.5185,2.7031
2024-10-11T14:08:50.453Z,0.0049,-0.9982,0.0432,0.1650,-0.0036,0.0582,0.0657,0.0893,0.0033,-3.0700,1.5170,2.7263
2024-10-11T14:08:50.463Z,0.0022,-1.0002,0.0471,0.1650,-0.0036,0.0582,0.0678,0.0806,0.0041,-3.0700,1.5170,2.7263
2024-10-11T14:08:50.472Z,0.0063,-1.0022,0.0515,0.1650,-0.0036,0.0582,0.0692,0.0788,-0.0005,-3.0700,1.5170,2.7263
2024-10-11T14:08:50.483Z,0.0114,-1.0022,0.0492,0.0985,0.0369,0.0202,0.0700,0.0742,-0.0014,-3.0860,1.5152,2.7445
2024-10-11T14:08:50.493Z,0.0087,-1.0002,0.0523,0.0985,0.0369,0.0202,0.0707,0.0680,-0.0028,-3.0860,1.5152,2.7445
2024-10-11T14:08:50.503Z,0.0090,-0.9994,0.0571,0.0985,0.0369,0.0202,0.0702,0.0648,-0.0068,-3.0860,1.5152,2.7445
2024-10-11T14:08:50.513Z,0.0079,-0.9978,0.0541,0.1340,-0.0055,-0.0070,0.0679,0.0596,-0.0113,-3.0981,1.5132,2.7583
2024-10-11T14:08:50.522Z,0.0048,-0.9974,0.0509,0.1340,-0.0055,-0.0070,0.0662,0.0546,-0.0134,-3.0981,1.5132,2.7583
2024-10-11T14:08:50.532Z,0.0058,-0.9929,0.0531,0.1340,-0.0055,-0.0070,0.0609,0.0528,-0.0161,-3.0981,1.5132,2.7583
2024-10-11T14:08:50.543Z,0.0140,-0.9882,0.0631,0.0768,-0.0980,-0.0764,0.0602,0.0506,-0.0127,-3.1047,1.5113,2.7664
2024-10-11T14:08:50.553Z,0.0250,-0.9855,0.0696,0.0768,-0.0980,-0.0764,0.0619,0.0480,-0.0148,-3.1047,1.5113,2.7664
2024-10-11T14:08:50.563Z,0.0270,-0.9804,0.0682,0.0768,-0.0980,-0.0764,0.0556,0.0474,-0.0151,-3.1047,1.5113,2.7664
2024-10-11T14:08:50.572Z,0.0244,-0.9792,0.0755,-0.0226,-0.1857,-0.1803,0.0555,0.0480,-0.0138,-3.1091,1.5095,2.7720
2024-10-11T14:08:50.583Z,0.0304,-0.9769,0.0839,-0.0226,-0.1857,-0.1803,0.0512,0.0446,-0.0098,-3.1091,1.5095,2.7720
2024-10-11T14:08:50.593Z,0.0398,-0.9750,0.0900,-0.0226,-0.1857,-0.1803,0.0518,0.0370,-0.0087,-3.1091,1.5095,2.7720
2024-10-11T14:08:50.603Z,0.0432,-0.9761,0.0877,-0.2036,-0.2150,-0.2837,0.0489,0.0327,-0.0080,-3.1134,1.5079,2.7773
2024-10-11T14:08:50.613Z,0.0365,-0.9766,0.0854,-0.2036,-0.2150,-0.2837,0.0449,0.0238,-0.0080,-3.1134,1.5079,2.7773
2024-10-11T14:08:50.623Z,0.0391,-0.9777,0.0867,-0.2036,-0.2150,-0.2837,0.0418,0.0193,-0.0064,-3.1134,1.5079,2.7773
2024-10-11T14:08:50.633Z,0.0459,-0.9799,0.0892,-0.2291,-0.1769,-0.2853,0.0365,0.0144,-0.0032,-3.1179,1.5065,2.7822
2024-10-11T14:08:50.644Z,0.0547,-0.9866,0.0899,-0.2291,-0.1769,-0.2853,0.0290,0.0078,0.0014,-3.1179,1.5065,2.7822
2024-10-11T14:08:50.653Z,0.0594,-0.9924,0.0905,-0.2291,-0.1769,-0.2853,0.0248,0.0026,0.0045,-3.1179,1.5065,2.7822
2024-10-11T14:08:50.663Z,0.0591,-1.0014,0.0899,-0.3593,0.0345,-0.2838,0.0195,-0.0022,0.0066,-3.1240,1.5057,2.7882
2024-10-11T14:08:50.672Z,0.0502,-1.0071,0.0804,-0.3593,0.0345,-0.2838,0.0150,0.0010,0.0085,-3.1240,1.5057,2.7882
2024-10-11T14:08:50.683Z,0.0465,-1.0134,0.0716,-0.3593,0.0345,-0.2838,0.0075,-0.0019,0.0084,-3.1240,1.5057,2.7882
2024-10-11T14:08:50.693Z,0.0444,-1.0155,0.0726,-0.2173,0.1735,-0.1099,0.0004,-0.0011,0.0118,-3.1301,1.5054,2.7941
2024-10-11T14:08:50.703Z,0.0396,-1.0173,0.0739,-0.2173,0.1735,-0.1099,-0.0035,-0.0004,0.0100,-3.1301,1.5054,2.7941
2024-10-11T14:08:50.713Z,0.0423,-1.0202,0.0707,-0.2173,0.1735,-0.1099,-0.0091,-0.0014,0.0111,-3.1301,1.5054,2.7941
2024-10-11T14:08:50.723Z,0.0395,-1.0261,0.0632,-0.1716,0.2770,-0.0182,-0.0087,0.0010,0.0108,-3.1337,1.5055,2.7974
2024-10-11T14:08:50.733Z,0.0369,-1.0251,0.0634,-0.1716,0.2770,-0.0182,-0.0130,-0.0000,0.0125,-3.1337,1.5055,2.7974
2024-10-11T14:08:50.743Z,0.0377,-1.0289,0.0648,-0.1716,0.2770,-0.0182,-0.0125,0.0026,0.0117,-3.1337,1.5055,2.7974
2024-10-11T14:08:50.753Z,0.0399,-1.0280,0.0649,-0.1789,0.2948,-0.0380,-0.0145,-0.0005,0.0115,-3.1364,1.5060,2.7999
2024-10-11T14:08:50.763Z,0.0343,-1.0313,0.0596,-0.1789,0.2948,-0.0380,-0.0162,-0.0002,0.0094,-3.1364,1.5060,2.7999
2024-10-11T14:08:50.773Z,0.0279,-1.0325,0.0598,-0.1789,0.2948,-0.0380,-0.0129,-0.0011,0.0119,-3.1364,1.5060,2.7999
2024-10-11T14:08:50.783Z,0.0327,-1.0364,0.0676,-0.1112,0.3774,-0.0685,-0.0168,-0.0088,0.0094,-3.1386,1.5065,2.8017
2024-10-11T14:08:50.793Z,0.0375,-1.0509,0.0735,-0.1112,0.3774,-0.0685,-0.0152,-0.0094,0.0121,-3.1386,1.5065,2.8017
2024-10-11T14:08:50.803Z,0.0393,-1.0732,0.0665,-0.1112,0.3774,-0.0685,-0.0174,-0.0120,0.0118,-3.1386,1.5065,2.8017
2024-10-11T14:08:50.813Z,0.0345,-1.0785,0.0636,-0.1318,0.7900,-0.0344,-0.0203,-0.0153,0.0079,-3.1413,1.5071,2.8038
2024-10-11T14:08:50.823Z,0.0328,-1.0681,0.0745,-0.1318,0.7900,-0.0344,-0.0228,-0.0214,0.0088,-3.1413,1.5071,2.8038
2024-10-11T14:08:50.833Z,0.0312,-1.0606,0.0779,-0.1318,0.7900,-0.0344,-0.0273,-0.0243,0.0080,-3.1413,1.5071,2.8038
2024-10-11T14:08:50.843Z,0.0314,-1.0623,0.0842,-0.1036,0.6310,-0.2444,-0.0382,-0.0264,0.0088,3.1414,1.5079,2.8034
2024-10-11T14:08:50.854Z,0.0347,-1.0567,0.0990,-0.1036,0.6310,-0.2444,-0.0443,-0.0337,0.0087,3.1414,1.5079,2.8034
2024-10-11T14:08:50.863Z,0.0356,-1.0489,0.1065,-0.1036,0.6310,-0.2444,-0.0500,-0.0370,0.0100,3.1414,1.5079,2.8034
2024-10-11T14:08:50.873Z,0.0299,-1.0367,0.1040,-0.0908,0.3783,-0.4505,-0.0539,-0.0443,0.0103,-3.1397,1.5092,2.7999
2024-10-11T14:08:50.883Z,0.0308,-1.0217,0.0933,-0.0908,0.3783,-0.4505,-0.0592,-0.0502,0.0100,-3.1397,1.5092,2.7999
2024-10-11T14:08:50.893Z,0.0392,-1.0101,0.0848,-0.0908,0.3783,-0.4505,-0.0664,-0.0538,0.0117,-3.1397,1.5092,2.7999
2024-10-11T14:08:50.903Z,0.0464,-1.0025,0.0896,-0.2550,0.0420,-0.3274,-0.0675,-0.0591,0.0119,-3.1348,1.5110,2.7933
2024-10-11T14:08:50.913Z,0.0469,-1.0036,0.1049,-0.2550,0.0420,-0.3274,-0.0701,-0.0674,0.0137,-3.1348,1.5110,2.7933
2024-10-11T14:08:50.923Z,0.0335,-1.0207,0.0938,-0.2550,0.0420,-0.3274,-0.0765,-0.0708,0.0179,-3.1348,1.5110,2.7933
2024-10-11T14:08:50.933Z,0.0338,-1.0177,0.0845,-0.1352,0.1900,-0.2988,-0.0773,-0.0767,0.0205,-3.1307,1.5131,2.7869
2024-10-11T14:08:50.943Z,0.0446,-0.9924,0.0833,-0.1352,0.1900,-0.2988,-0.0798,-0.0824,0.0229,-3.1307,1.5131,2.7869
2024-10-11T14:08:50.953Z,0.0467,-0.9772,0.0852,-0.1352,0.1900,-0.2988,-0.0831,-0.0840,0.0246,-3.1307,1.5131,2.7869
2024-10-11T14:08:50.963Z,0.0377,-0.9814,0.0600,-0.1785,-0.1671,-0.0820,-0.0841,-0.0814,0.0265,-3.1273,1.5156,2.7809
2024-10-11T14:08:50.973Z,0.0337,-0.9819,0.0439,-0.1785,-0.1671,-0.0820,-0.0867,-0.0820,0.0267,-3.1273,1.5156,2.7809
2024-10-11T14:08:50.983Z,0.0380,-0.9752,0.0523,-0.1785,-0.1671,-0.0820,-0.0883,-0.0817,0.0287,-3.1273,1.5156,2.7809
2024-10-11T14:08:50.994Z,0.0233,-0.9688,0.0608,-0.1426,-0.2529,-0.0515,-0.0894,-0.0830,0.0291,-3.1258,1.5182,2.7766
2024-10-11T14:08:51.003Z,0.0233,-0.9688,0.0608,-0.1426,-0.2529,-0.0515,-0.0929,-0.0811,0.0289,-3.1258,1.5182,2.7766
2024-10-11T14:08:51.014Z,0.0167,-0.9759,0.0621,-0.1426,-0.2529,-0.0515,-0.0971,-0.0810,0.0301,-3.1258,1.5182,2.7766
2024-10-11T14:08:51.023Z,0.0167,-0.9759,0.0621,0.0120,-0.2240,-0.1555,-0.0971,-0.0819,0.0327,-3.1232,1.5211,2.7714
2024-10-11T14:08:51.034Z,0.0106,-0.9895,0.0391,0.0120,-0.2240,-0.1555,-0.0954,-0.0825,0.0298,-3.1232,1.5211,2.7714
2024-10-11T14:08:51.042Z,0.0106,-0.9895,0.0391,0.0120,-0.2240,-0.1555,-0.0930,-0.0812,0.0311,-3.1232,1.5211,2.7714
2024-10-11T14:08:51.054Z,0.0154,-1.0017,0.0182,0.0176,0.0276,0.2475,-0.0896,-0.0792,0.0312,-3.1203,1.5240,2.7659
2024-10-11T14:08:51.064Z,-0.0011,-0.9782,0.0394,0.0176,0.0276,0.2475,-0.0902,-0.0819,0.0275,-3.1203,1.5240,2.7659
2024-10-11T14:08:51.074Z,-0.0011,-0.9782,0.0394,0.0176,0.0276,0.2475,-0.0918,-0.0806,0.0292,-3.1203,1.5240,2.7659
2024-10-11T14:08:51.084Z,-0.0022,-0.9783,0.0255,0.1896,-0.1947,0.0176,-0.0882,-0.0807,0.0254,-3.1168,1.5268,2.7598
2024-10-11T14:08:51.094Z,-0.0030,-0.9691,0.0252,0.1896,-0.1947,0.0176,-0.0876,-0.0790,0.0227,-3.1168,1.5268,2.7598
2024-10-11T14:08:51.106Z,-0.0030,-0.9691,0.0252,0.1558,-0.3002,0.1710,-0.0853,-0.0802,0.0202,-3.1102,1.5294,2.7505
2024-10-11T14:08:51.113Z,-0.0072,-0.9704,0.0143,0.1558,-0.3002,0.1710,-0.0776,-0.0858,0.0197,-3.1102,1.5294,2.7505
2024-10-11T14:08:51.124Z,-0.0121,-0.9721,0.0181,0.1558,-0.3002,0.1710,-0.0722,-0.0893,0.0162,-3.1102,1.5294,2.7505
2024-10-11T14:08:51.134Z,-0.0103,-0.9769,0.0134,0.1558,-0.3002,0.1710,-0.0692,-0.0923,0.0154,-3.1102,1.5294,2.7505
2024-10-11T14:08:51.143Z,-0.0149,-0.9796,0.0063,0.2520,-0.2188,0.2225,-0.0645,-0.0960,0.0089,-3.1005,1.5315,2.7379
2024-10-11T14:08:51.153Z,-0.0149,-0.9796,0.0063,0.2520,-0.2188,0.2225,-0.0550,-0.0975,0.0079,-3.1005,1.5315,2.7379
2024-10-11T14:08:51.164Z,-0.0071,-0.9899,-0.0048,0.2520,-0.2188,0.2225,-0.0517,-0.0994,0.0054,-3.1005,1.5315,2.7379
2024-10-11T14:08:51.172Z,-0.0071,-0.9899,-0.0048,0.2198,-0.0921,0.3849,-0.0459,-0.1016,0.0050,-3.0898,1.5331,2.7240
2024-10-11T14:08:51.184Z,-0.0098,-0.9961,0.0191,0.2198,-0.0921,0.3849,-0.0393,-0.1077,0.0001,-3.0898,1.5331,2.7240
2024-10-11T14:08:51.194Z,-0.0144,-0.9928,0.0215,0.2198,-0.0921,0.3849,-0.0394,-0.1118,0.0002,-3.0898,1.5331,2.7240
2024-10-11T14:08:51.204Z,-0.0144,-0.9928,0.0215,0.2918,-0.0637,0.1140,-0.0375,-0.1183,-0.0043,-3.0770,1.5343,2.7077
2024-10-11T14:08:51.213Z,-0.0105,-1.0084,0.0200,0.2918,-0.0637,0.1140,-0.0327,-0.1208,-0.0110,-3.0770,1.5343,2.7077
2024-10-11T14:08:51.224Z,-0.0133,-1.0109,0.0294,0.2918,-0.0637,0.1140,-0.0294,-0.1257,-0.0125,-3.0770,1.5343,2.7077
2024-10-11T14:08:51.233Z,-0.0143,-1.0148,0.0313,0.2856,0.1133,0.0264,-0.0304,-0.1281,-0.0169,-3.0584,1.5350,2.6852
2024-10-11T14:08:51.243Z,-0.0157,-1.0142,0.0370,0.2856,0.1133,0.0264,-0.0310,-0.1312,-0.0206,-3.0584,1.5350,2.6852
2024-10-11T14:08:51.257Z,-0.0150,-1.0094,0.0368,0.3098,0.0985,-0.0546,-0.0293,-0.1346,-0.0272,-3.0311,1.5354,2.6537
2024-10-11T14:08:51.263Z,-0.0119,-1.0062,0.0337,0.3098,0.0985,-0.0546,-0.0266,-0.1400,-0.0291,-3.0311,1.5354,2.6537
2024-10-11T14:08:51.274Z,-0.0156,-1.0031,0.0311,0.3098,0.0985,-0.0546,-0.0234,-0.1445,-0.0295,-3.0311,1.5354,2.6537
2024-10-11T14:08:51.284Z,-0.0156,-1.0031,0.0311,0.3761,0.0189,-0.0432,-0.0251,-0.1462,-0.0344,-2.9973,1.5356,2.6154
2024-10-11T14:08:51.294Z,-0.0166,-1.0002,0.0405,0.3761,0.0189,-0.0432,-0.0275,-0.1500,-0.0386,-2.9973,1.5356,2.6154
2024-10-11T14:08:51.306Z,-0.0135,-1.0060,0.0490,0.3761,0.0189,-0.0432,-0.0274,-0.1461,-0.0372,-2.9973,1.5356,2.6154
2024-10-11T14:08:51.313Z,-0.0130,-1.0067,0.0462,0.3761,0.0189,-0.0432,-0.0284,-0.1489,-0.0372,-2.9973,1.5356,2.6154
2024-10-11T14:08:51.324Z,-0.0147,-1.0073,0.0411,0.3129,0.0720,-0.1634,-0.0310,-0.1470,-0.0416,-2.9580,1.5357,2.5714
2024-10-11T14:08:51.333Z,-0.0141,-1.0084,0.0309,0.3129,0.0720,-0.1634,-0.0253,-0.1487,-0.0436,-2.9580,1.5357,2.5714
2024-10-11T14:08:51.343Z,-0.0104,-0.9985,0.0266,0.3129,0.0720,-0.1634,-0.0316,-0.1457,-0.0460,-2.9580,1.5357,2.5714
2024-10-11T14:08:51.354Z,-0.0058,-0.9837,0.0321,0.3014,-0.0083,0.0193,-0.0325,-0.1432,-0.0468,-2.9137,1.5357,2.5226
2024-10-11T14:08:51.363Z,0.0025,-0.9773,0.0369,0.3014,-0.0083,0.0193,-0.0326,-0.1385,-0.0484,-2.9137,1.5357,2.5226
2024-10-11T14:08:51.374Z,0.0155,-0.9768,0.0394,0.3014,-0.0083,0.0193,-0.0339,-0.1321,-0.0456,-2.9137,1.5357,2.5226
2024-10-11T14:08:51.383Z,0.0187,-0.9766,0.0383,0.0612,-0.2216,-0.1172,-0.0359,-0.1262,-0.0404,-2.8670,1.5357,2.4716
2024-10-11T14:08:51.393Z,0.0173,-0.9782,0.0404,0.0612,-0.2216,-0.1172,-0.0369,-0.1186,-0.0361,-2.8670,1.5357,2.4716
2024-10-11T14:08:51.406Z,0.0207,-0.9774,0.0377,0.0226,-0.2160,-0.1113,-0.0360,-0.1163,-0.0365,-2.8241,1.5358,2.4249
2024-10-11T14:08:51.413Z,0.0152,-0.9795,0.0290,0.0226,-0.2160,-0.1113,-0.0359,-0.1103,-0.0339,-2.8241,1.5358,2.4249
2024-10-11T14:08:51.423Z,0.0173,-0.9901,0.0250,0.0226,-0.2160,-0.1113,-0.0306,-0.1053,-0.0330,-2.8241,1.5358,2.4249
2024-10-11T14:08:51.433Z,0.0280,-1.0044,0.0154,0.0226,-0.2160,-0.1113,-0.0288,-0.0978,-0.0314,-2.8241,1.5358,2.4249
2024-10-11T14:08:51.443Z,0.0366,-1.0084,0.0117,-0.0395,0.0489,0.0983,-0.0263,-0.0932,-0.0257,-2.7889,1.5359,2.3863
2024-10-11T14:08:51.454Z,0.0334,-1.0048,-0.0002,-0.0395,0.0489,0.0983,-0.0229,-0.0853,-0.0224,-2.7889,1.5359,2.3863
2024-10-11T14:08:51.463Z,0.0352,-0.9974,0.0068,-0.0395,0.0489,0.0983,-0.0172,-0.0775,-0.0185,-2.7889,1.5359,2.3863
2024-10-11T14:08:51.474Z,0.0366,-0.9864,0.0101,-0.1041,-0.0192,0.1765,-0.0153,-0.0736,-0.0149,-2.7651,1.5359,2.3597
2024-10-11T14:08:51.483Z,0.0351,-0.9891,0.0096,-0.1041,-0.0192,0.1765,-0.0163,-0.0650,-0.0126,-2.7651,1.5359,2.3597
2024-10-11T14:08:51.494Z,0.0351,-0.9891,0.0096,-0.0609,-0.0605,0.1452,-0.0146,-0.0610,-0.0105,-2.7495,1.5359,2.3418
2024-10-11T14:08:51.503Z,0.0323,-0.9917,-0.0001,-0.0609,-0.0605,0.1452,-0.0082,-0.0600,-0.0068,-2.7495,1.5359,2.3418
2024-10-11T14:08:51.513Z,0.0342,-0.9829,-0.0054,-0.0609,-0.0605,0.1452,-0.0045,-0.0595,-0.0027,-2.7495,1.5359,2.3418
2024-10-11T14:08:51.523Z,0.0319,-0.9810,-0.0102,-0.0609,-0.0605,0.1452,0.0014,-0.0543,-0.0006,-2.7495,1.5359,2.3418
2024-10-11T14:08:51.533Z,0.0288,-0.9793,-0.0193,-0.0667,-0.1804,0.3376,0.0068,-0.0484,-0.0009,-2.7468,1.5359,2.3372
2024-10-11T14:08:51.543Z,0.0234,-0.9828,-0.0267,-0.0667,-0.1804,0.3376,0.0134,-0.0430,-0.0002,-2.7468,1.5359,2.3372
2024-10-11T14:08:51.556Z,0.0168,-0.9898,-0.0305,0.0815,-0.0936,0.5409,0.0213,-0.0417,0.0017,-2.7582,1.5356,2.3471
2024-10-11T14:08:51.562Z,0.0228,-0.9916,-0.0325,0.0815,-0.0936,0.5409,0.0324,-0.0362,0.0025,-2.7582,1.5356,2.3471
2024-10-11T14:08:51.573Z,0.0277,-0.9812,-0.0253,0.0815,-0.0936,0.5409,0.0351,-0.0349,0.0029,-2.7582,1.5356,2.3471
2024-10-11T14:08:51.583Z,0.0261,-0.9680,-0.0266,0.0815,-0.0936,0.5409,0.0372,-0.0313,0.0031,-2.7582,1.5356,2.3471
2024-10-11T14:08:51.593Z,0.0168,-0.9605,-0.0045,-0.0110,-0.3080,0.5130,0.0378,-0.0245,0.0051,-2.7824,1.5350,2.3700
2024-10-11T14:08:51.603Z,0.0094,-0.9638,0.0089,-0.0110,-0.3080,0.5130,0.0410,-0.0179,0.0031,-2.7824,1.5350,2.3700
2024-10-11T14:08:51.614Z,0.0091,-0.9696,0.0025,0.1551,-0.2916,0.2387,0.0390,-0.0174,0.0022,-2.8077,1.5342,2.3944
2024-10-11T14:08:51.623Z,0.0109,-0.9725,0.0087,0.1551,-0.2916,0.2387,0.0375,-0.0123,0.0012,-2.8077,1.5342,2.3944
2024-10-11T14:08:51.633Z,0.0179,-0.9767,0.0065,0.1551,-0.2916,0.2387,0.0415,-0.0115,-0.0010,-2.8077,1.5342,2.3944
2024-10-11T14:08:51.642Z,0.0145,-0.9841,0.0175,0.1551,-0.2916,0.2387,0.0407,-0.0058,0.0032,-2.8077,1.5342,2.3944
2024-10-11T14:08:51.653Z,0.0028,-0.9920,0.0161,0.1016,-0.1491,0.1041,0.0419,-0.0037,-0.0004,-2.8318,1.5333,2.4179
2024-10-11T14:08:51.663Z,0.0059,-0.9974,0.0244,0.1016,-0.1491,0.1041,0.0425,-0.0017,0.0007,-2.8318,1.5333,2.4179
2024-10-11T14:08:51.673Z,0.0190,-1.0026,0.0400,0.1016,-0.1491,0.1041,0.0431,0.0078,-0.0027,-2.8318,1.5333,2.4179
2024-10-11T14:08:51.683Z,0.0350,-1.0085,0.0471,0.0567,0.0324,-0.1045,0.0385,0.0115,0.0015,-2.8544,1.5323,2.4402
2024-10-11T14:08:51.693Z,0.0278,-1.0116,0.0453,0.0567,0.0324,-0.1045,0.0359,0.0114,0.0030,-2.8544,1.5323,2.4402
2024-10-11T14:08:51.704Z,0.0278,-1.0116,0.0453,0.0037,0.1306,-0.1265,0.0360,0.0137,0.0024,-2.8754,1.5316,2.4612
2024-10-11T14:08:51.713Z,0.0276,-1.0050,0.0478,0.0037,0.1306,-0.1265,0.0333,0.0164,0.0034,-2.8754,1.5316,2.4612
2024-10-11T14:08:51.723Z,0.0249,-1.0131,0.0428,0.0037,0.1306,-0.1265,0.0324,0.0149,0.0043,-2.8754,1.5316,2.4612
2024-10-11T14:08:51.735Z,0.0160,-1.0251,0.0240,0.0829,0.2537,0.0737,0.0337,0.0124,0.0059,-2.8941,1.5309,2.4802
2024-10-11T14:08:51.742Z,0.0162,-1.0293,0.0160,0.0829,0.2537,0.0737,0.0378,0.0169,0.0039,-2.8941,1.5309,2.4802
2024-10-11T14:08:51.753Z,0.0243,-1.0320,0.0151,0.0829,0.2537,0.0737,0.0386,0.0221,0.0051,-2.8941,1.5309,2.4802
2024-10-11T14:08:51.764Z,0.0341,-1.0320,0.0222,-0.0966,0.3219,0.1017,0.0361,0.0200,0.0077,-2.9153,1.5301,2.5016
2024-10-11T14:08:51.773Z,0.0304,-1.0254,0.0253,-0.0966,0.3219,0.1017,0.0365,0.0183,0.0101,-2.9153,1.5301,2.5016
2024-10-11T14:08:51.783Z,0.0229,-1.0183,0.0233,-0.0966,0.3219,0.1017,0.0355,0.0154,0.0098,-2.9153,1.5301,2.5016
2024-10-11T14:08:51.794Z,0.0245,-1.0183,0.0236,-0.0051,0.1882,0.0990,0.0335,0.0146,0.0092,-2.9361,1.5295,2.5226
2024-10-11T14:08:51.803Z,0.0277,-1.0225,0.0177,-0.0051,0.1882,0.0990,0.0334,0.0122,0.0122,-2.9361,1.5295,2.5226
2024-10-11T14:08:51.813Z,0.0207,-1.0234,0.0210,-0.0051,0.1882,0.0990,0.0306,0.0105,0.0074,-2.9361,1.5295,2.5226
2024-10-11T14:08:51.823Z,0.0131,-1.0222,0.0203,-0.0051,0.1882,0.0990,0.0320,0.0113,0.0084,-2.9361,1.5295,2.5226
2024-10-11T14:08:51.832Z,0.0140,-1.0201,0.0163,0.1041,0.2261,0.1406,0.0322,0.0073,0.0069,-2.9551,1.5288,2.5416
2024-10-11T14:08:51.843Z,0.0193,-1.0163,0.0248,0.1041,0.2261,0.1406,0.0300,0.0024,0.0070,-2.9551,1.5288,2.5416
2024-10-11T14:08:51.854Z,0.0157,-1.0175,0.0153,0.0766,0.1810,0.1983,0.0318,-0.0017,0.0048,-2.9712,1.5282,2.5576
2024-10-11T14:08:51.863Z,0.0170,-1.0193,0.0119,0.0766,0.1810,0.1983,0.0298,0.0003,0.0038,-2.9712,1.5282,2.5576
2024-10-11T14:08:51.873Z,0.0212,-1.0085,0.0267,0.0766,0.1810,0.1983,0.0284,-0.0056,0.0040,-2.9712,1.5282,2.5576
2024-10-11T14:08:51.883Z,0.0161,-0.9954,0.0317,0.0709,-0.0362,0.0452,0.0248,-0.0064,0.0039,-2.9844,1.5276,2.5704
2024-10-11T14:08:51.893Z,0.0103,-0.9868,0.0356,0.0709,-0.0362,0.0452,0.0205,-0.0080,0.0008,-2.9844,1.5276,2.5704
2024-10-11T14:08:51.903Z,0.0070,-0.9825,0.0289,0.0709,-0.0362,0.0452,0.0175,-0.0076,-0.0004,-2.9844,1.5276,2.5704
2024-10-11T14:08:51.913Z,0.0111,-0.9789,0.0257,0.1210,-0.1973,0.1104,0.0195,-0.0118,-0.0078,-2.9906,1.5271,2.5760
2024-10-11T14:08:51.923Z,0.0054,-0.9776,0.0099,0.1210,-0.1973,0.1104,0.0230,-0.0165,-0.0071,-2.9906,1.5271,2.5760
2024-10-11T14:08:51.933Z,0.0052,-0.9744,-0.0013,0.1210,-0.1973,0.1104,0.0209,-0.0271,-0.0116,-2.9906,1.5271,2.5760
2024-10-11T14:08:51.943Z,0.0134,-0.9693,0.0006,0.1016,-0.2913,0.3625,0.0275,-0.0323,-0.0111,-2.9932,1.5263,2.5776
2024-10-11T14:08:51.953Z,0.0171,-0.9725,-0.0172,0.1016,-0.2913,0.3625,0.0313,-0.0345,-0.0146,-2.9932,1.5263,2.5776
2024-10-11T14:08:51.963Z,0.0172,-0.9756,-0.0282,0.1016,-0.2913,0.3625,0.0341,-0.0365,-0.0157,-2.9932,1.5263,2.5776
2024-10-11T14:08:51.974Z,0.0172,-0.9756,-0.0282,0.1109,-0.2154,0.6022,0.0405,-0.0348,-0.0173,-2.9984,1.5251,2.5816
2024-10-11T14:08:51.983Z,0.0106,-0.9768,-0.0081,0.1109,-0.2154,0.6022,0.0457,-0.0311,-0.0184,-2.9984,1.5251,2.5816
2024-10-11T14:08:51.993Z,0.0133,-0.9814,-0.0013,0.1109,-0.2154,0.6022,0.0450,-0.0319,-0.0174,-2.9984,1.5251,2.5816
2024-10-11T14:08:52.004Z,0.0230,-0.9827,0.0169,0.0174,-0.1586,0.2265,0.0459,-0.0293,-0.0182,-3.0047,1.5237,2.5867
2024-10-11T14:08:52.013Z,0.0137,-0.9864,0.0155,0.0174,-0.1586,0.2265,0.0474,-0.0296,-0.0187,-3.0047,1.5237,2.5867
2024-10-11T14:08:52.023Z,0.0047,-0.9994,0.0019,0.0174,-0.1586,0.2265,0.0514,-0.0276,-0.0184,-3.0047,1.5237,2.5867
2024-10-11T14:08:52.034Z,0.0228,-1.0077,0.0059,0.0254,0.0868,0.3474,0.0485,-0.0223,-0.0197,-3.0103,1.5223,2.5913
2024-10-11T14:08:52.043Z,0.0340,-1.0051,0.0196,0.0254,0.0868,0.3474,0.0483,-0.0186,-0.0189,-3.0103,1.5223,2.5913
2024-10-11T14:08:52.053Z,0.0234,-1.0100,0.0271,0.0254,0.0868,0.3474,0.0455,-0.0190,-0.0184,-3.0103,1.5223,2.5913
2024-10-11T14:08:52.063Z,0.0136,-1.0136,0.0400,0.1203,0.1458,0.0267,0.0432,-0.0163,-0.0163,-3.0161,1.5209,2.5963
2024-10-11T14:08:52.074Z,0.0295,-1.0205,0.0542,0.1203,0.1458,0.0267,0.0350,-0.0142,-0.0180,-3.0161,1.5209,2.5963
2024-10-11T14:08:52.083Z,0.0375,-1.0214,0.0522,0.1203,0.1458,0.0267,0.0346,-0.0146,-0.0178,-3.0161,1.5209,2.5963
2024-10-11T14:08:52.093Z,0.0343,-1.0152,0.0609,-0.0777,0.1620,-0.1699,0.0293,-0.0110,-0.0154,-3.0187,1.5198,2.5983
2024-10-11T14:08:52.103Z,0.0308,-0.9975,0.0687,-0.0777,0.1620,-0.1699,0.0183,-0.0067,-0.0150,-3.0187,1.5198,2.5983
2024-10-11T14:08:52.113Z,0.0308,-0.9865,0.0728,-0.0777,0.1620,-0.1699,0.0146,-0.0018,-0.0104,-3.0187,1.5198,2.5983
2024-10-11T14:08:52.124Z,0.0308,-0.9865,0.0728,-0.0748,-0.1562,-0.2444,0.0068,-0.0004,-0.0119,-3.0174,1.5193,2.5966
2024-10-11T14:08:52.132Z,0.0322,-0.9774,0.0731,-0.0748,-0.1562,-0.2444,0.0026,-0.0001,-0.0089,-3.0174,1.5193,2.5966
2024-10-11T14:08:52.143Z,0.0234,-0.9767,0.0801,-0.0748,-0.1562,-0.2444,-0.0023,0.0046,-0.0090,-3.0174,1.5193,2.5966
2024-10-11T14:08:52.153Z,0.0386,-0.9755,0.0781,-0.1148,-0.2270,-0.3361,-0.0112,0.0059,-0.0051,-3.0129,1.5194,2.5919
2024-10-11T14:08:52.163Z,0.0446,-0.9649,0.0809,-0.1148,-0.2270,-0.3361,-0.0153,0.0070,-0.0025,-3.0129,1.5194,2.5919
2024-10-11T14:08:52.174Z,0.0345,-0.9602,0.0735,-0.1148,-0.2270,-0.3361,-0.0201,0.0149,0.0031,-3.0129,1.5194,2.5919
2024-10-11T14:08:52.183Z,0.0362,-0.9572,0.0785,-0.0923,-0.4075,-0.3457,-0.0258,0.0233,0.0026,-3.0072,1.5199,2.5865
2024-10-11T14:08:52.192Z,0.0427,-0.9490,0.0821,-0.0923,-0.4075,-0.3457,-0.0307,0.0283,0.0028,-3.0072,1.5199,2.5865
2024-10-11T14:08:52.203Z,0.0361,-0.9518,0.0812,-0.0923,-0.4075,-0.3457,-0.0347,0.0291,0.0069,-3.0072,1.5199,2.5865
2024-10-11T14:08:52.213Z,0.0332,-0.9601,0.0780,-0.0650,-0.3793,-0.3503,-0.0369,0.0329,0.0101,-3.0015,1.5208,2.5814
2024-10-11T14:08:52.223Z,0.0300,-0.9629,0.0740,-0.0650,-0.3793,-0.3503,-0.0355,0.0330,0.0135,-3.0015,1.5208,2.5814
2024-10-11T14:08:52.232Z,0.0319,-0.9666,0.0699,-0.0650,-0.3793,-0.3503,-0.0409,0.0371,0.0142,-3.0015,1.5208,2.5814
2024-10-11T14:08:52.243Z,0.0326,-0.9835,0.0590,-0.0638,-0.1504,-0.1735,-0.0402,0.0385,0.0150,-2.9970,1.5220,2.5778
2024-10-11T14:08:52.253Z,0.0439,-1.0020,0.0521,-0.0638,-0.1504,-0.1735,-0.0351,0.0413,0.0191,-2.9970,1.5220,2.5778
2024-10-11T14:08:52.263Z,0.0492,-1.0179,0.0441,-0.0638,-0.1504,-0.1735,-0.0314,0.0439,0.0201,-2.9970,1.5220,2.5778
2024-10-11T14:08:52.274Z,0.0515,-1.0341,0.0299,-0.2568,0.3459,0.1036,-0.0250,0.0432,0.0243,-3.0002,1.5230,2.5820
2024-10-11T14:08:52.283Z,0.0512,-1.0444,0.0275,-0.2568,0.3459,0.1036,-0.0199,0.0450,0.0299,-3.0002,1.5230,2.5820
2024-10-11T14:08:52.293Z,0.0418,-1.0460,0.0378,-0.2568,0.3459,0.1036,-0.0133,0.0367,0.0333,-3.0002,1.5230,2.5820
2024-10-11T14:08:52.303Z,0.0395,-1.0488,0.0367,-0.1483,0.4900,0.0347,-0.0116,0.0340,0.0335,-3.0148,1.5237,2.5975
2024-10-11T14:08:52.313Z,0.0403,-1.0462,0.0381,-0.1483,0.4900,0.0347,-0.0034,0.0288,0.0346,-3.0148,1.5237,2.5975
2024-10-11T14:08:52.323Z,0.0358,-1.0470,0.0359,-0.1483,0.4900,0.0347,-0.0026,0.0245,0.0363,-3.0148,1.5237,2.5975
2024-10-11T14:08:52.333Z,0.0312,-1.0540,0.0373,-0.0780,0.5407,0.0304,0.0062,0.0224,0.0370,-3.0363,1.5242,2.6194
2024-10-11T14:08:52.343Z,0.0391,-1.0521,0.0427,-0.0780,0.5407,0.0304,0.0092,0.0172,0.0395,-3.0363,1.5242,2.6194
2024-10-11T14:08:52.353Z,0.0346,-1.0378,0.0494,-0.0780,0.5407,0.0304,0.0139,0.0081,0.0394,-3.0363,1.5242,2.6194
2024-10-11T14:08:52.363Z,0.0275,-1.0268,0.0631,-0.0531,0.2733,-0.2185,0.0172,0.0009,0.0418,-3.0622,1.5244,2.6453
2024-10-11T14:08:52.374Z,0.0212,-1.0205,0.0576,-0.0531,0.2733,-0.2185,0.0108,0.0042,0.0382,-3.0622,1.5244,2.6453
2024-10-11T14:08:52.383Z,0.0165,-1.0174,0.0584,-0.0531,0.2733,-0.2185,0.0124,-0.0018,0.0403,-3.0622,1.5244,2.6453
2024-10-11T14:08:52.394Z,0.0065,-1.0098,0.0636,0.1418,0.1066,-0.2197,0.0110,-0.0054,0.0379,-3.0883,1.5246,2.6708
2024-10-11T14:08:52.403Z,0.0124,-1.0033,0.0661,0.1418,0.1066,-0.2197,0.0074,-0.0076,0.0356,-3.0883,1.5246,2.6708
2024-10-11T14:08:52.413Z,0.0074,-0.9931,0.0648,0.1418,0.1066,-0.2197,0.0049,-0.0135,0.0328,-3.0883,1.5246,2.6708
2024-10-11T14:08:52.424Z,-0.0053,-0.9880,0.0521,0.2485,-0.1075,-0.1058,0.0040,-0.0145,0.0313,-3.1084,1.5249,2.6902
2024-10-11T14:08:52.433Z,-0.0089,-0.9862,0.0481,0.2485,-0.1075,-0.1058,0.0017,-0.0195,0.0262,-3.1084,1.5249,2.6902
2024-10-11T14:08:52.443Z,-0.0045,-0.9908,0.0547,0.2485,-0.1075,-0.1058,-0.0027,-0.0216,0.0246,-3.1084,1.5249,2.6902
2024-10-11T14:08:52.453Z,0.0044,-0.9956,0.0671,0.1465,-0.0332,-0.2536,-0.0066,-0.0218,0.0240,-3.1227,1.5253,2.7037
2024-10-11T14:08:52.463Z,-0.0020,-0.9975,0.0739,0.1465,-0.0332,-0.2536,-0.0084,-0.0212,0.0225,-3.1227,1.5253,2.7037
2024-10-11T14:08:52.473Z,-0.0102,-0.9940,0.0713,0.1465,-0.0332,-0.2536,-0.0153,-0.0138,0.0190,-3.1227,1.5253,2.7037
2024-10-11T14:08:52.483Z,-0.0111,-0.9888,0.0724,0.2929,-0.1000,-0.3103,-0.0207,-0.0116,0.0146,-3.1301,1.5259,2.7103
2024-10-11T14:08:52.493Z,-0.0048,-0.9901,0.0657,0.2929,-0.1000,-0.3103,-0.0247,-0.0190,0.0117,-3.1301,1.5259,2.7103
2024-10-11T14:08:52.503Z,-0.0014,-0.9958,0.0632,0.2929,-0.1000,-0.3103,-0.0304,-0.0279,0.0113,-3.1301,1.5259,2.7103
2024-10-11T14:08:52.513Z,0.0005,-0.9971,0.0576,0.1752,-0.0187,-0.1746,-0.0402,-0.0323,0.0109,-3.1292,1.5269,2.7084
2024-10-11T14:08:52.523Z,0.0003,-1.0024,0.0536,0.1752,-0.0187,-0.1746,-0.0478,-0.0245,0.0084,-3.1292,1.5269,2.7084
2024-10-11T14:08:52.533Z,0.0139,-1.0074,0.0441,0.1752,-0.0187,-0.1746,-0.0483,-0.0165,0.0078,-3.1292,1.5269,2.7084
2024-10-11T14:08:52.543Z,0.0139,-1.0074,0.0441,0.0575,0.1874,0.0618,-0.0526,-0.0132,0.0054,-3.1214,1.5283,2.6999
2024-10-11T14:08:52.553Z,0.0040,-1.0231,0.0229,0.0575,0.1874,0.0618,-0.0514,-0.0085,0.0017,-3.1214,1.5283,2.6999
2024-10-11T14:08:52.563Z,0.0135,-1.0256,0.0261,0.0575,0.1874,0.0618,-0.0503,-0.0117,0.0029,-3.1214,1.5283,2.6999
2024-10-11T14:08:52.574Z,0.0168,-1.0219,0.0279,0.0117,0.2230,0.0888,-0.0518,-0.0136,0.0048,-3.1113,1.5297,2.6892
2024-10-11T14:08:52.583Z,0.0080,-1.0223,0.0318,0.0117,0.2230,0.0888,-0.0489,-0.0149,0.0040,-3.1113,1.5297,2.6892
2024-10-11T14:08:52.592Z,0.0021,-1.0219,0.0308,0.0117,0.2230,0.0888,-0.0492,-0.0168,0.0008,-3.1113,1.5297,2.6892
2024-10-11T14:08:52.603Z,-0.0018,-1.0220,0.0272,0.1931,0.2236,0.0819,-0.0481,-0.0154,0.0006,-3.0990,1.5310,2.6761
2024-10-11T14:08:52.613Z,0.0021,-1.0171,0.0331,0.1931,0.2236,0.0819,-0.0459,-0.0148,0.0014,-3.0990,1.5310,2.6761
2024-10-11T14:08:52.624Z,0.0034,-1.0121,0.0289,0.1931,0.2236,0.0819,-0.0468,-0.0130,-0.0021,-3.0990,1.5310,2.6761
2024-10-11T14:08:52.633Z,-0.0046,-1.0071,0.0413,0.2211,0.0773,-0.0705,-0.0480,-0.0113,-0.0049,-3.0811,1.5323,2.6576
2024-10-11T14:08:52.642Z,-0.0020,-1.0034,0.0500,0.2211,0.0773,-0.0705,-0.0527,-0.0136,-0.0066,-3.0811,1.5323,2.6576
2024-10-11T14:08:52.653Z,-0.0006,-1.0057,0.0548,0.2211,0.0773,-0.0705,-0.0563,-0.0165,-0.0069,-3.0811,1.5323,2.6576
2024-10-11T14:08:52.663Z,-0.0040,-1.0104,0.0587,0.2172,0.1085,-0.2580,-0.0556,-0.0133,-0.0093,-3.0558,1.5337,2.6316
2024-10-11T14:08:52.673Z,-0.0009,-1.0100,0.0604,0.2172,0.1085,-0.2580,-0.0617,-0.0153,-0.0095,-3.0558,1.5337,2.6316
2024-10-11T14:08:52.683Z,-0.0037,-1.0062,0.0608,0.2172,0.1085,-0.2580,-0.0621,-0.0022,-0.0124,-3.0558,1.5337,2.6316
2024-10-11T14:08:52.693Z,-0.0020,-1.0013,0.0640,0.1999,0.0185,-0.3290,-0.0646,-0.0035,-0.0123,-3.0228,1.5352,2.5981
2024-10-11T14:08:52.703Z,-0.0096,-0.9980,0.0651,0.1999,0.0185,-0.3290,-0.0682,-0.0071,-0.0170,-3.0228,1.5352,2.5981
2024-10-11T14:08:52.712Z,-0.0165,-0.9993,0.0525,0.1999,0.0185,-0.3290,-0.0654,-0.0057,-0.0208,-3.0228,1.5352,2.5981
2024-10-11T14:08:52.723Z,-0.0158,-0.9972,0.0522,0.3420,-0.0216,-0.2326,-0.0665,-0.0071,-0.0250,-2.9786,1.5365,2.5534
2024-10-11T14:08:52.733Z,-0.0122,-0.9935,0.0441,0.3420,-0.0216,-0.2326,-0.0642,-0.0120,-0.0280,-2.9786,1.5365,2.5534
2024-10-11T14:08:52.742Z,-0.0117,-0.9896,0.0295,0.3420,-0.0216,-0.2326,-0.0619,-0.0066,-0.0295,-2.9786,1.5365,2.5534
2024-10-11T14:08:52.753Z,-0.0051,-0.9850,0.0197,0.2451,-0.1417,0.0688,-0.0604,-0.0051,-0.0295,-2.9276,1.5376,2.5020
2024-10-11T14:08:52.763Z,0.0021,-0.9798,0.0183,0.2451,-0.1417,0.0688,-0.0581,-0.0006,-0.0322,-2.9276,1.5376,2.5020
2024-10-11T14:08:52.773Z,0.0099,-0.9753,0.0074,0.2451,-0.1417,0.0688,-0.0531,0.0019,-0.0312,-2.9276,1.5376,2.5020
2024-10-11T14:08:52.783Z,0.0070,-0.9760,-0.0055,0.1350,-0.2298,0.3012,-0.0438,0.0086,-0.0313,-2.8779,1.5382,2.4520
2024-10-11T14:08:52.792Z,0.0004,-0.9715,-0.0074,0.1350,-0.2298,0.3012,-0.0388,0.0072,-0.0338,-2.8779,1.5382,2.4520
2024-10-11T14:08:52.803Z,0.0042,-0.9662,-0.0091,0.1350,-0.2298,0.3012,-0.0316,0.0112,-0.0329,-2.8779,1.5382,2.4520
2024-10-11T14:08:52.813Z,0.0113,-0.9624,-0.0204,0.1010,-0.3632,0.4375,-0.0270,0.0106,-0.0306,-2.8380,1.5383,2.4123
2024-10-11T14:08:52.824Z,0.0136,-0.9623,-0.0196,0.1010,-0.3632,0.4375,-0.0189,0.0164,-0.0329,-2.8380,1.5383,2.4123
2024-10-11T14:08:52.834Z,0.0189,-0.9622,-0.0128,0.1010,-0.3632,0.4375,-0.0141,0.0236,-0.0285,-2.8380,1.5383,2.4123
2024-10-11T14:08:52.843Z,0.0257,-0.9662,-0.0163,-0.0321,-0.3260,0.3944,-0.0081,0.0251,-0.0259,-2.8123,1.5380,2.3870
2024-10-11T14:08:52.852Z,0.0229,-0.9723,-0.0010,-0.0321,-0.3260,0.3944,-0.0017,0.0307,-0.0246,-2.8123,1.5380,2.3870
2024-10-11T14:08:52.863Z,0.0392,-0.9797,0.0085,-0.0321,-0.3260,0.3944,0.0030,0.0328,-0.0191,-2.8123,1.5380,2.3870
2024-10-11T14:08:52.873Z,0.0469,-0.9817,0.0172,-0.2349,-0.1744,0.0665,0.0045,0.0367,-0.0166,-2.8019,1.5376,2.3773
2024-10-11T14:08:52.883Z,0.0365,-0.9763,0.0269,-0.2349,-0.1744,0.0665,0.0066,0.0378,-0.0153,-2.8019,1.5376,2.3773
2024-10-11T14:08:52.892Z,0.0304,-0.9758,0.0304,-0.2349,-0.1744,0.0665,0.0090,0.0417,-0.0092,-2.8019,1.5376,2.3773
2024-10-11T14:08:52.903Z,0.0386,-0.9837,0.0321,-0.1507,-0.1539,-0.0779,0.0087,0.0441,-0.0087,-2.7995,1.5373,2.3759
2024-10-11T14:08:52.913Z,0.0365,-0.9903,0.0362,-0.1507,-0.1539,-0.0779,0.0096,0.0463,-0.0068,-2.7995,1.5373,2.3759
2024-10-11T14:08:52.923Z,0.0362,-0.9946,0.0437,-0.1507,-0.1539,-0.0779,0.0103,0.0420,-0.0044,-2.7995,1.5373,2.3759
2024-10-11T14:08:52.933Z,0.0418,-0.9976,0.0522,-0.1817,-0.0179,-0.2720,0.0132,0.0417,-0.0011,-2.8035,1.5371,2.3809
2024-10-11T14:08:52.942Z,0.0396,-0.9968,0.0623,-0.1817,-0.0179,-0.2720,0.0063,0.0383,0.0009,-2.8035,1.5371,2.3809
2024-10-11T14:08:52.953Z,0.0311,-0.9984,0.0673,-0.1817,-0.0179,-0.2720,0.0043,0.0422,0.0032,-2.8035,1.5371,2.3809
2024-10-11T14:08:52.963Z,0.0400,-1.0060,0.0634,-0.1656,0.0649,-0.3802,0.0063,0.0396,0.0032,-2.8087,1.5370,2.3871
2024-10-11T14:08:52.973Z,0.0410,-1.0100,0.0508,-0.1656,0.0649,-0.3802,0.0043,0.0414,0.0048,-2.8087,1.5370,2.3871
2024-10-11T14:08:52.982Z,0.0285,-1.0129,0.0415,-0.1656,0.0649,-0.3802,0.0033,0.0413,0.0064,-2.8087,1.5370,2.3871
2024-10-11T14:08:52.994Z,0.0284,-1.0126,0.0339,-0.0534,0.1293,-0.0884,0.0057,0.0341,0.0061,-2.8163,1.5369,2.3954
2024-10-11T14:08:53.002Z,0.0370,-1.0001,0.0411,-0.0534,0.1293,-0.0884,0.0075,0.0274,0.0069,-2.8163,1.5369,2.3954
2024-10-11T14:08:53.013Z,0.0337,-0.9923,0.0412,-0.0534,0.1293,-0.0884,0.0102,0.0240,0.0071,-2.8163,1.5369,2.3954
2024-10-11T14:08:53.023Z,0.0261,-0.9972,0.0288,-0.0326,-0.0219,-0.0348,0.0072,0.0229,0.0074,-2.8275,1.5368,2.4072
2024-10-11T14:08:53.033Z,0.0203,-1.0025,0.0159,-0.0326,-0.0219,-0.0348,0.0104,0.0203,0.0072,-2.8275,1.5368,2.4072
2024-10-11T14:08:53.042Z,0.0203,-0.9993,0.0096,-0.0326,-0.0219,-0.0348,0.0128,0.0210,0.0076,-2.8275,1.5368,2.4072
2024-10-11T14:08:53.053Z,0.0268,-0.9954,0.0071,-0.0412,-0.0390,0.1834,0.0157,0.0208,0.0076,-2.8426,1.5365,2.4226
2024-10-11T14:08:53.063Z,0.0293,-0.9937,0.0047,-0.0412,-0.0390,0.1834,0.0195,0.0181,0.0074,-2.8426,1.5365,2.4226
2024-10-11T14:08:53.073Z,0.0196,-0.9959,0.0059,-0.0412,-0.0390,0.1834,0.0213,0.0170,0.0059,-2.8426,1.5365,2.4226
2024-10-11T14:08:53.082Z,0.0163,-1.0009,0.0041,0.0598,0.0149,0.2197,0.0257,0.0160,0.0079,-2.8607,1.5361,2.4409
2024-10-11T14:08:53.093Z,0.0193,-1.0018,0.0017,0.0598,0.0149,0.2197,0.0292,0.0141,0.0065,-2.8607,1.5361,2.4409
2024-10-11T14:08:53.102Z,0.0227,-1.0013,0.0063,0.0598,0.0149,0.2197,0.0301,0.0164,0.0051,-2.8607,1.5361,2.4409
2024-10-11T14:08:53.113Z,0.0125,-0.9995,0.0119,0.0947,0.0012,0.1525,0.0319,0.0172,0.0069,-2.8827,1.5355,2.4630
2024-10-11T14:08:53.123Z,0.0161,-1.0003,0.0171,0.0947,0.0012,0.1525,0.0321,0.0140,0.0069,-2.8827,1.5355,2.4630
2024-10-11T14:08:53.133Z,0.0186,-0.9960,0.0343,0.0947,0.0012,0.1525,0.0349,0.0119,0.0048,-2.8827,1.5355,2.4630
2024-10-11T14:08:53.143Z,0.0135,-0.9953,0.0448,0.0835,-0.0393,-0.1608,0.0308,0.0073,0.0026,-2.9016,1.5349,2.4819
2024-10-11T14:08:53.153Z,0.0063,-0.9973,0.0432,0.0835,-0.0393,-0.1608,0.0304,0.0037,0.0020,-2.9016,1.5349,2.4819
2024-10-11T14:08:53.163Z,0.0074,-0.9956,0.0503,0.0835,-0.0393,-0.1608,0.0286,-0.0008,-0.0015,-2.9016,1.5349,2.4819
2024-10-11T14:08:53.173Z,0.0055,-0.9930,0.0510,0.1619,-0.0622,-0.2143,0.0290,-0.0073,-0.0020,-2.9152,1.5343,2.4953
2024-10-11T14:08:53.183Z,0.0006,-0.9965,0.0563,0.1619,-0.0622,-0.2143,0.0260,-0.0012,-0.0055,-2.9152,1.5343,2.4953
2024-10-11T14:08:53.193Z,0.0010,-0.9997,0.0492,0.1619,-0.0622,-0.2143,0.0237,-0.0014,-0.0077,-2.9152,1.5343,2.4953
2024-10-11T14:08:53.204Z,0.0004,-1.0004,0.0435,0.2143,0.0104,-0.1339,0.0239,-0.0095,-0.0160,-2.9216,1.5336,2.5013
2024-10-11T14:08:53.213Z,-0.0007,-0.9974,0.0509,0.2143,0.0104,-0.1339,0.0239,-0.0095,-0.0160,-2.9216,1.5336,2.5013
2024-10-11T14:08:53.223Z,0.0043,-0.9980,0.0483,0.2143,0.0104,-0.1339,0.0233,-0.0129,-0.0187,-2.9216,1.5336,2.5013
2024-10-11T14:08:53.232Z,0.0092,-1.0014,0.0500,0.1322,0.0210,-0.1911,0.0244,-0.0170,-0.0194,-2.9237,1.5327,2.5028
2024-10-11T14:08:53.243Z,0.0052,-1.0067,0.0483,0.1322,0.0210,-0.1911,0.0171,-0.0128,-0.0198,-2.9237,1.5327,2.5028
2024-10-11T14:08:53.253Z,0.0047,-1.0078,0.0424,0.1322,0.0210,-0.1911,0.0174,-0.0106,-0.0228,-2.9237,1.5327,2.5028
2024-10-11T14:08:53.264Z,0.0026,-1.0053,0.0427,0.2034,0.0594,-0.1127,0.0179,-0.0154,-0.0247,-2.9219,1.5318,2.5002
2024-10-11T14:08:53.274Z,0.0079,-1.0054,0.0382,0.2034,0.0594,-0.1127,0.0179,-0.0154,-0.0247,-2.9219,1.5318,2.5002
2024-10-11T14:08:53.283Z,0.0038,-1.0054,0.0302,0.2034,0.0594,-0.1127,0.0157,-0.0102,-0.0283,-2.9219,1.5318,2.5002
2024-10-11T14:08:53.294Z,0.0102,-1.0073,0.0383,0.1367,0.0791,-0.0634,0.0169,-0.0178,-0.0312,-2.9152,1.5309,2.4930
2024-10-11T14:08:53.304Z,0.0174,-1.0060,0.0372,0.1367,0.0791,-0.0634,0.0164,-0.0136,-0.0263,-2.9152,1.5309,2.4930
2024-10-11T14:08:53.314Z,0.0211,-1.0053,0.0390,0.1367,0.0791,-0.0634,0.0157,-0.0102,-0.0262,-2.9152,1.5309,2.4930
2024-10-11T14:08:53.323Z,0.0294,-1.0039,0.0324,-0.0441,0.0460,-0.0016,0.0157,-0.0102,-0.0262,-2.9081,1.5300,2.4853
2024-10-11T14:08:53.334Z,0.0273,-1.0022,0.0255,-0.0441,0.0460,-0.0016,0.0139,-0.0034,-0.0265,-2.9081,1.5300,2.4853
2024-10-11T14:08:53.344Z,0.0142,-1.0010,0.0281,-0.0441,0.0460,-0.0016,0.0161,-0.0028,-0.0248,-2.9081,1.5300,2.4853
2024-10-11T14:08:53.352Z,0.0192,-0.9996,0.0269,0.0630,0.0041,0.0577,0.0161,-0.0028,-0.0248,-2.9016,1.5292,2.4783
2024-10-11T14:08:53.364Z,0.0401,-0.9977,0.0382,0.0630,0.0041,0.0577,0.0158,-0.0073,-0.0182,-2.9016,1.5292,2.4783
2024-10-11T14:08:53.374Z,0.0427,-0.9999,0.0345,0.0630,0.0041,0.0577,0.0158,-0.0073,-0.0182,-2.9016,1.5292,2.4783
2024-10-11T14:08:53.384Z,0.0349,-1.0002,0.0286,-0.0859,0.0112,0.0456,0.0134,0.0067,-0.0141,-2.8989,1.5285,2.4754
2024-10-11T14:08:53.393Z,0.0334,-0.9982,0.0208,-0.0859,0.0112,0.0456,0.0142,0.0120,-0.0132,-2.8989,1.5285,2.4754
2024-10-11T14:08:53.404Z,0.0375,-0.9967,0.0230,-0.0859,0.0112,0.0456,0.0133,0.0167,-0.0110,-2.8989,1.5285,2.4754
2024-10-11T14:08:53.413Z,0.0407,-0.9915,0.0307,-0.1403,-0.0742,0.0296,0.0140,0.0190,-0.0069,-2.9001,1.5280,2.4767
2024-10-11T14:08:53.424Z,0.0389,-0.9892,0.0360,-0.1403,-0.0742,0.0296,0.0140,0.0190,-0.0069,-2.9001,1.5280,2.4767
2024-10-11T14:08:53.432Z,0.0374,-0.9926,0.0340,-0.1403,-0.0742,0.0296,0.0169,0.0185,-0.0061,-2.9001,1.5280,2.4767
2024-10-11T14:08:53.443Z,0.0355,-0.9944,0.0322,-0.0887,-0.0455,0.0196,0.0127,0.0274,-0.0013,-2.9048,1.5276,2.4818
2024-10-11T14:08:53.453Z,0.0322,-0.9964,0.0351,-0.0887,-0.0455,0.0196,0.0129,0.0303,0.0011,-2.9048,1.5276,2.4818
2024-10-11T14:08:53.463Z,0.0345,-0.9963,0.0342,-0.0887,-0.0455,0.0196,0.0111,0.0373,0.0037,-2.9048,1.5276,2.4818
2024-10-11T14:08:53.474Z,0.0304,-0.9996,0.0364,-0.0394,0.0052,-0.0183,0.0062,0.0377,0.0048,-2.9106,1.5273,2.4882
2024-10-11T14:08:53.483Z,0.0317,-0.9974,0.0438,-0.0394,0.0052,-0.0183,0.0066,0.0370,0.0049,-2.9106,1.5273,2.4882
2024-10-11T14:08:53.493Z,0.0266,-1.0055,0.0467,-0.0394,0.0052,-0.0183,0.0066,0.0370,0.0049,-2.9106,1.5273,2.4882
2024-10-11T14:08:53.503Z,0.0140,-1.0163,0.0419,0.1207,0.1689,-0.0701,0.0089,0.0273,0.0020,-2.9154,1.5272,2.4938
2024-10-11T14:08:53.513Z,0.0070,-1.0164,0.0509,0.1207,0.1689,-0.0701,0.0062,0.0229,0.0031,-2.9154,1.5272,2.4938
2024-10-11T14:08:53.526Z,0.0171,-1.0117,0.0528,0.1207,0.1689,-0.0701,-0.0037,0.0287,-0.0002,-2.9154,1.5272,2.4938
2024-10-11T14:08:53.533Z,0.0175,-1.0047,0.0525,0.0864,0.0550,-0.1735,-0.0055,0.0339,-0.0014,-2.9161,1.5271,2.4951
2024-10-11T14:08:53.544Z,0.0252,-1.0014,0.0584,0.0864,0.0550,-0.1735,-0.0082,0.0364,0.0011,-2.9161,1.5271,2.4951
2024-10-11T14:08:53.553Z,0.0285,-1.0060,0.0500,0.0864,0.0550,-0.1735,-0.0080,0.0361,0.0010,-2.9161,1.5271,2.4951
2024-10-11T14:08:53.563Z,0.0263,-1.0111,0.0367,-0.0006,0.1183,-0.0192,-0.0044,0.0321,0.0009,-2.9155,1.5273,2.4950
2024-10-11T14:08:53.574Z,0.0264,-1.0063,0.0241,-0.0006,0.1183,-0.0192,-0.0032,0.0273,0.0024,-2.9155,1.5273,2.4950
2024-10-11T14:08:53.583Z,0.0226,-1.0018,0.0264,-0.0006,0.1183,-0.0192,-0.0010,0.0281,0.0008,-2.9155,1.5273,2.4950
2024-10-11T14:08:53.593Z,0.0294,-1.0004,0.0226,-0.0326,0.0128,0.1183,-0.0047,0.0330,0.0011,-2.9156,1.5274,2.4958
2024-10-11T14:08:53.603Z,0.0255,-0.9983,0.0102,-0.0326,0.0128,0.1183,-0.0011,0.0380,0.0015,-2.9156,1.5274,2.4958
2024-10-11T14:08:53.613Z,0.0296,-0.9996,0.0051,-0.0326,0.0128,0.1183,0.0046,0.0413,0.0036,-2.9156,1.5274,2.4958
2024-10-11T14:08:53.625Z,0.0441,-1.0027,-0.0024,-0.1776,0.0357,0.3644,0.0039,0.0417,0.0052,-2.9193,1.5274,2.5003
2024-10-11T14:08:53.633Z,0.0464,-0.9945,0.0059,-0.1776,0.0357,0.3644,0.0071,0.0434,0.0082,-2.9193,1.5274,2.5003
2024-10-11T14:08:53.643Z,0.0356,-0.9871,0.0117,-0.1776,0.0357,0.3644,0.0062,0.0435,0.0091,-2.9193,1.5274,2.5003
2024-10-11T14:08:53.653Z,0.0414,-0.9841,0.0192,-0.1547,-0.1467,0.1547,0.0081,0.0451,0.0091,-2.9273,1.5274,2.5094
2024-10-11T14:08:53.663Z,0.0369,-0.9824,0.0242,-0.1547,-0.1467,0.1547,0.0088,0.0533,0.0149,-2.9273,1.5274,2.5094
2024-10-11T14:08:53.674Z,0.0409,-0.9892,0.0295,-0.1547,-0.1467,0.1547,0.0088,0.0538,0.0167,-2.9273,1.5274,2.5094
2024-10-11T14:08:53.683Z,0.0502,-0.9917,0.0354,-0.2462,-0.0721,-0.0013,0.0067,0.0582,0.0189,-2.9388,1.5275,2.5222
2024-10-11T14:08:53.694Z,0.0428,-0.9942,0.0374,-0.2462,-0.0721,-0.0013,0.0021,0.0610,0.0210,-2.9388,1.5275,2.5222
2024-10-11T14:08:53.703Z,0.0382,-0.9919,0.0485,-0.2462,-0.0721,-0.0013,0.0022,0.0583,0.0200,-2.9388,1.5275,2.5222
2024-10-11T14:08:53.713Z,0.0371,-0.9947,0.0544,-0.1239,-0.0432,-0.1876,0.0015,0.0577,0.0213,-2.9497,1.5279,2.5346
2024-10-11T14:08:53.725Z,0.0348,-1.0024,0.0613,-0.1239,-0.0432,-0.1876,-0.0016,0.0543,0.0240,-2.9497,1.5279,2.5346
2024-10-11T14:08:53.733Z,0.0328,-1.0022,0.0686,-0.1239,-0.0432,-0.1876,-0.0051,0.0533,0.0243,-2.9497,1.5279,2.5346
2024-10-11T14:08:53.743Z,0.0290,-1.0083,0.0708,-0.0513,0.0902,-0.3508,-0.0150,0.0555,0.0217,-2.9589,1.5284,2.5452
2024-10-11T14:08:53.753Z,0.0238,-1.0131,0.0754,-0.0513,0.0902,-0.3508,-0.0202,0.0516,0.0184,-2.9589,1.5284,2.5452
2024-10-11T14:08:53.763Z,0.0197,-1.0161,0.0832,-0.0513,0.0902,-0.3508,-0.0238,0.0496,0.0208,-2.9589,1.5284,2.5452
2024-10-11T14:08:53.774Z,0.0235,-1.0214,0.0693,-0.0023,0.2181,-0.3412,-0.0248,0.0378,0.0167,-2.9612,1.5291,2.5487
2024-10-11T14:08:53.783Z,0.0272,-1.0231,0.0758,-0.0023,0.2181,-0.3412,-0.0297,0.0335,0.0144,-2.9612,1.5291,2.5487
2024-10-11T14:08:53.793Z,0.0183,-1.0235,0.0751,-0.0023,0.2181,-0.3412,-0.0326,0.0322,0.0143,-2.9612,1.5291,2.5487
2024-10-11T14:08:53.803Z,0.0146,-1.0241,0.0686,0.0804,0.2446,-0.3431,-0.0380,0.0325,0.0150,-2.9577,1.5301,2.5461
2024-10-11T14:08:53.813Z,0.0247,-1.0239,0.0658,0.0804,0.2446,-0.3431,-0.0413,0.0337,0.0109,-2.9577,1.5301,2.5461
2024-10-11T14:08:53.823Z,0.0253,-1.0236,0.0488,0.0804,0.2446,-0.3431,-0.0455,0.0274,0.0093,-2.9577,1.5301,2.5461
2024-10-11T14:08:53.833Z,0.0150,-1.0184,0.0479,0.0726,0.1883,-0.1499,-0.0443,0.0312,0.0095,-2.9495,1.5312,2.5384
2024-10-11T14:08:53.843Z,0.0120,-1.0147,0.0349,0.0726,0.1883,-0.1499,-0.0449,0.0208,0.0102,-2.9495,1.5312,2.5384
2024-10-11T14:08:53.853Z,0.0184,-1.0125,0.0337,0.0726,0.1883,-0.1499,-0.0393,0.0100,0.0071,-2.9495,1.5312,2.5384
2024-10-11T14:08:53.863Z,0.0302,-1.0054,0.0307,-0.0791,0.0601,0.0063,-0.0420,0.0100,0.0038,-2.9370,1.5324,2.5262
2024-10-11T14:08:53.873Z,0.0152,-1.0032,0.0199,-0.0791,0.0601,0.0063,-0.0412,0.0083,0.0012,-2.9370,1.5324,2.5262
2024-10-11T14:08:53.883Z,0.0043,-1.0013,0.0263,-0.0791,0.0601,0.0063,-0.0418,0.0038,-0.0027,-2.9370,1.5324,2.5262
2024-10-11T14:08:53.894Z,0.0050,-0.9985,0.0237,0.1678,-0.0083,0.0640,-0.0407,0.0052,0.0001,-2.9209,1.5334,2.5102
2024-10-11T14:08:53.903Z,0.0168,-0.9965,0.0244,0.1678,-0.0083,0.0640,-0.0440,0.0075,0.0008,-2.9209,1.5334,2.5102
2024-10-11T14:08:53.913Z,0.0302,-0.9942,0.0308,0.1678,-0.0083,0.0640,-0.0418,0.0048,-0.0047,-2.9209,1.5334,2.5102
2024-10-11T14:08:53.923Z,0.0282,-0.9949,0.0282,-0.0598,-0.0435,0.0081,-0.0369,-0.0004,-0.0048,-2.9016,1.5343,2.4908
2024-10-11T14:08:53.933Z,0.0163,-0.9927,0.0281,-0.0598,-0.0435,0.0081,-0.0356,-0.0016,-0.0039,-2.9016,1.5343,2.4908
2024-10-11T14:08:53.943Z,0.0163,-0.9943,0.0257,-0.0598,-0.0435,0.0081,-0.0368,-0.0044,-0.0057,-2.9016,1.5343,2.4908
2024-10-11T14:08:53.953Z,0.0086,-0.9941,0.0299,0.1335,-0.0512,-0.0194,-0.0375,-0.0050,-0.0081,-2.8792,1.5351,2.4682
2024-10-11T14:08:53.963Z,0.0087,-0.9943,0.0347,0.1335,-0.0512,-0.0194,-0.0375,-0.0032,-0.0101,-2.8792,1.5351,2.4682
2024-10-11T14:08:53.973Z,0.0079,-0.9989,0.0309,0.1335,-0.0512,-0.0194,-0.0380,-0.0054,-0.0122,-2.8792,1.5351,2.4682
2024-10-11T14:08:53.983Z,0.0119,-1.0013,0.0288,0.1038,0.0192,-0.0202,-0.0373,-0.0114,-0.0130,-2.8545,1.5358,2.4429
2024-10-11T14:08:53.993Z,0.0161,-1.0002,0.0284,0.1038,0.0192,-0.0202,-0.0352,-0.0172,-0.0151,-2.8545,1.5358,2.4429
2024-10-11T14:08:54.003Z,0.0175,-1.0026,0.0293,0.1038,0.0192,-0.0202,-0.0336,-0.0147,-0.0152,-2.8545,1.5358,2.4429
2024-10-11T14:08:54.013Z,0.0196,-1.0054,0.0306,0.0322,0.0588,-0.0479,-0.0350,-0.0116,-0.0184,-2.8251,1.5364,2.4129
2024-10-11T14:08:54.023Z,0.0167,-1.0136,0.0193,0.0322,0.0588,-0.0479,-0.0368,-0.0087,-0.0168,-2.8251,1.5364,2.4129
2024-10-11T14:08:54.033Z,0.0174,-1.0171,0.0267,0.0322,0.0588,-0.0479,-0.0355,-0.0077,-0.0167,-2.8251,1.5364,2.4129
2024-10-11T14:08:54.043Z,0.0214,-1.0167,0.0265,0.0188,0.1694,-0.0176,-0.0357,-0.0081,-0.0163,-2.7962,1.5368,2.3835
2024-10-11T14:08:54.053Z,0.0255,-1.0122,0.0288,0.0188,0.1694,-0.0176,-0.0369,-0.0109,-0.0178,-2.7962,1.5368,2.3835
2024-10-11T14:08:54.062Z,0.0205,-1.0045,0.0284,0.0188,0.1694,-0.0176,-0.0364,-0.0134,-0.0202,-2.7962,1.5368,2.3835
2024-10-11T14:08:54.072Z,0.0127,-1.0038,0.0229,0.1092,0.0429,0.0070,-0.0366,-0.0148,-0.0220,-2.7639,1.5372,2.3506
2024-10-11T14:08:54.082Z,0.0132,-1.0038,0.0234,0.1092,0.0429,0.0070,-0.0342,-0.0109,-0.0201,-2.7639,1.5372,2.3506
2024-10-11T14:08:54.093Z,0.0260,-1.0042,0.0174,0.1092,0.0429,0.0070,-0.0381,-0.0069,-0.0172,-2.7639,1.5372,2.3506
2024-10-11T14:08:54.103Z,0.0406,-1.0017,0.0178,-0.1588,0.0220,0.0463,-0.0357,-0.0006,-0.0166,-2.7288,1.5376,2.3151
2024-10-11T14:08:54.113Z,0.0319,-0.9951,0.0118,-0.1588,0.0220,0.0463,-0.0390,0.0023,-0.0151,-2.7288,1.5376,2.3151
2024-10-11T14:08:54.123Z,0.0255,-0.9918,0.0105,-0.1588,0.0220,0.0463,-0.0346,-0.0040,-0.0136,-2.7288,1.5376,2.3151
2024-10-11T14:08:54.132Z,0.0356,-0.9942,0.0140,-0.1049,-0.0511,0.0726,-0.0321,-0.0026,-0.0128,-2.6960,1.5380,2.2820
2024-10-11T14:08:54.143Z,0.0368,-0.9947,0.0134,-0.1049,-0.0511,0.0726,-0.0312,-0.0034,-0.0103,-2.6960,1.5380,2.2820
2024-10-11T14:08:54.153Z,0.0388,-0.9922,0.0132,-0.1049,-0.0511,0.0726,-0.0324,0.0008,-0.0101,-2.6960,1.5380,2.2820
2024-10-11T14:08:54.163Z,0.0395,-0.9846,0.0144,-0.1406,-0.1459,0.0594,-0.0336,0.0067,-0.0081,-2.6677,1.5384,2.2535
2024-10-11T14:08:54.174Z,0.0452,-0.9719,0.0181,-0.1406,-0.1459,0.0594,-0.0338,0.0072,-0.0043,-2.6677,1.5384,2.2535
2024-10-11T14:08:54.183Z,0.0487,-0.9631,0.0185,-0.1406,-0.1459,0.0594,-0.0298,0.0142,-0.0043,-2.6677,1.5384,2.2535
2024-10-11T14:08:54.193Z,0.0363,-0.9672,0.0130,-0.1081,-0.3167,0.0635,-0.0294,0.0094,-0.0016,-2.6404,1.5389,2.2263
2024-10-11T14:08:54.203Z,0.0399,-0.9644,0.0096,-0.1081,-0.3167,0.0635,-0.0231,0.0101,0.0006,-2.6404,1.5389,2.2263
2024-10-11T14:08:54.213Z,0.0389,-0.9635,0.0066,-0.1081,-0.3167,0.0635,-0.0232,0.0078,0.0028,-2.6404,1.5389,2.2263
2024-10-11T14:08:54.223Z,0.0457,-0.9617,0.0040,-0.2012,-0.3706,0.1441,-0.0186,0.0092,0.0049,-2.6230,1.5394,2.2090
2024-10-11T14:08:54.233Z,0.0470,-0.9625,0.0056,-0.2012,-0.3706,0.1441,-0.0157,0.0134,0.0086,-2.6230,1.5394,2.2090
2024-10-11T14:08:54.243Z,0.0385,-0.9647,-0.0016,-0.2012,-0.3706,0.1441,-0.0127,0.0152,0.0131,-2.6230,1.5394,2.2090
2024-10-11T14:08:54.253Z,0.0403,-0.9720,-0.0076,-0.1503,-0.2701,0.2532,-0.0079,0.0135,0.0145,-2.6151,1.5399,2.2012
2024-10-11T14:08:54.262Z,0.0375,-0.9749,-0.0096,-0.1503,-0.2701,0.2532,-0.0019,0.0127,0.0137,-2.6151,1.5399,2.2012
2024-10-11T14:08:54.273Z,0.0304,-0.9818,-0.0049,-0.1503,-0.2701,0.2532,0.0014,0.0058,0.0111,-2.6151,1.5399,2.2012
2024-10-11T14:08:54.283Z,0.0225,-0.9848,-0.0008,0.0209,-0.1449,0.1865,0.0029,0.0002,0.0093,-2.6205,1.5402,2.2067
2024-10-11T14:08:54.294Z,0.0173,-0.9892,0.0061,0.0209,-0.1449,0.1865,0.0061,-0.0046,0.0107,-2.6205,1.5402,2.2067
2024-10-11T14:08:54.303Z,0.0215,-0.9934,0.0155,0.0209,-0.1449,0.1865,0.0123,-0.0090,0.0080,-2.6205,1.5402,2.2067
2024-10-11T14:08:54.313Z,0.0223,-1.0006,0.0126,0.0204,0.0104,0.0563,0.0097,-0.0086,0.0111,-2.6290,1.5403,2.2149
2024-10-11T14:08:54.323Z,0.0199,-1.0076,0.0098,0.0204,0.0104,0.0563,0.0116,-0.0098,0.0081,-2.6290,1.5403,2.2149
2024-10-11T14:08:54.333Z,0.0224,-1.0100,0.0173,0.0204,0.0104,0.0563,0.0123,-0.0163,0.0086,-2.6290,1.5403,2.2149
2024-10-11T14:08:54.342Z,0.0242,-1.0125,0.0244,-0.0004,0.1276,-0.0566,0.0123,-0.0163,0.0086,-2.6415,1.5403,2.2268
2024-10-11T14:08:54.353Z,0.0102,-1.0132,0.0322,-0.0004,0.1276,-0.0566,0.0160,-0.0275,0.0003,-2.6415,1.5403,2.2268
2024-10-11T14:08:54.363Z,-0.0010,-1.0136,0.0271,-0.0004,0.1276,-0.0566,0.0209,-0.0351,0.0013,-2.6415,1.5403,2.2268
2024-10-11T14:08:54.373Z,0.0027,-1.0074,0.0276,0.2101,0.0769,-0.0851,0.0172,-0.0334,-0.0022,-2.6530,1.5401,2.2372
2024-10-11T14:08:54.383Z,0.0132,-1.0054,0.0237,0.2101,0.0769,-0.0851,0.0210,-0.0344,-0.0009,-2.6530,1.5401,2.2372
2024-10-11T14:08:54.392Z,0.0259,-1.0050,0.0261,0.2101,0.0769,-0.0851,0.0184,-0.0334,-0.0030,-2.6530,1.5401,2.2372
2024-10-11T14:08:54.403Z,0.0227,-1.0044,0.0213,0.0143,0.0478,-0.0177,0.0178,-0.0322,-0.0028,-2.6668,1.5397,2.2497
2024-10-11T14:08:54.413Z,0.0142,-1.0031,0.0200,0.0143,0.0478,-0.0177,0.0226,-0.0340,-0.0009,-2.6668,1.5397,2.2497
2024-10-11T14:08:54.423Z,0.0172,-0.9983,0.0278,0.0143,0.0478,-0.0177,0.0233,-0.0401,-0.0041,-2.6668,1.5397,2.2497
2024-10-11T14:08:54.433Z,0.0184,-0.9975,0.0188,0.0572,-0.0200,0.0131,0.0261,-0.0406,-0.0029,-2.6829,1.5393,2.2645
2024-10-11T14:08:54.443Z,0.0189,-0.9950,0.0156,0.0572,-0.0200,0.0131,0.0297,-0.0412,-0.0019,-2.6829,1.5393,2.2645
2024-10-11T14:08:54.452Z,0.0195,-0.9918,0.0123,0.0572,-0.0200,0.0131,0.0308,-0.0362,-0.0013,-2.6829,1.5393,2.2645
2024-10-11T14:08:54.463Z,0.0214,-0.9866,0.0076,0.0281,-0.1261,0.1314,0.0287,-0.0348,-0.0013,-2.7035,1.5387,2.2837
2024-10-11T14:08:54.473Z,0.0249,-0.9818,0.0134,0.0281,-0.1261,0.1314,0.0339,-0.0338,-0.0007,-2.7035,1.5387,2.2837
2024-10-11T14:08:54.483Z,0.0248,-0.9780,0.0194,0.0281,-0.1261,0.1314,0.0360,-0.0353,-0.0007,-2.7035,1.5387,2.2837
2024-10-11T14:08:54.493Z,0.0235,-0.9791,0.0218,0.0078,-0.1998,0.0015,0.0354,-0.0367,-0.0012,-2.7279,1.5381,2.3067
2024-10-11T14:08:54.503Z,0.0189,-0.9820,0.0257,0.0078,-0.1998,0.0015,0.0381,-0.0409,0.0006,-2.7279,1.5381,2.3067
2024-10-11T14:08:54.513Z,0.0150,-0.9877,0.0253,0.0078,-0.1998,0.0015,0.0391,-0.0396,-0.0003,-2.7279,1.5381,2.3067
2024-10-11T14:08:54.523Z,0.0136,-0.9931,0.0326,0.1047,-0.0620,-0.0940,0.0355,-0.0357,-0.0012,-2.7531,1.5374,2.3306
2024-10-11T14:08:54.533Z,0.0174,-0.9964,0.0371,0.1047,-0.0620,-0.0940,0.0352,-0.0339,-0.0050,-2.7531,1.5374,2.3306
2024-10-11T14:08:54.543Z,0.0114,-0.9986,0.0422,0.1047,-0.0620,-0.0940,0.0321,-0.0354,-0.0025,-2.7531,1.5374,2.3306
2024-10-11T14:08:54.553Z,0.0072,-1.0023,0.0429,0.1685,0.0285,-0.1850,0.0304,-0.0367,-0.0059,-2.7731,1.5366,2.3491
2024-10-11T14:08:54.563Z,0.0082,-1.0094,0.0374,0.1685,0.0285,-0.1850,0.0314,-0.0413,-0.0043,-2.7731,1.5366,2.3491
2024-10-11T14:08:54.573Z,0.0174,-1.0090,0.0496,0.1685,0.0285,-0.1850,0.0271,-0.0432,-0.0042,-2.7731,1.5366,2.3491
2024-10-11T14:08:54.583Z,0.0261,-1.0033,0.0596,-0.0159,0.0387,-0.3407,0.0189,-0.0420,-0.0037,-2.7884,1.5359,2.3630
2024-10-11T14:08:54.594Z,0.0119,-1.0016,0.0522,-0.0159,0.0387,-0.3407,0.0162,-0.0384,-0.0052,-2.7884,1.5359,2.3630
2024-10-11T14:08:54.603Z,-0.0001,-1.0081,0.0527,-0.0159,0.0387,-0.3407,0.0135,-0.0380,-0.0079,-2.7884,1.5359,2.3630
2024-10-11T14:08:54.613Z,0.0114,-1.0125,0.0476,0.1302,0.1283,-0.2187,0.0112,-0.0368,-0.0101,-2.7957,1.5354,2.3688
2024-10-11T14:08:54.623Z,0.0135,-1.0162,0.0423,0.1302,0.1283,-0.2187,0.0130,-0.0425,-0.0105,-2.7957,1.5354,2.3688
2024-10-11T14:08:54.633Z,0.0071,-1.0193,0.0333,0.1302,0.1283,-0.2187,0.0141,-0.0452,-0.0108,-2.7957,1.5354,2.3688
2024-10-11T14:08:54.643Z,0.0006,-1.0122,0.0322,0.2398,0.1256,-0.0635,0.0130,-0.0487,-0.0133,-2.7980,1.5349,2.3695
2024-10-11T14:08:54.653Z,0.0077,-1.0100,0.0342,0.2398,0.1256,-0.0635,0.0113,-0.0446,-0.0106,-2.7980,1.5349,2.3695
2024-10-11T14:08:54.663Z,0.0249,-1.0119,0.0282,0.2398,0.1256,-0.0635,0.0097,-0.0391,-0.0109,-2.7980,1.5349,2.3695
2024-10-11T14:08:54.673Z,0.0282,-1.0072,0.0222,-0.0279,0.0767,0.0376,0.0081,-0.0308,-0.0036,-2.7985,1.5345,2.3686
2024-10-11T14:08:54.683Z,0.0269,-1.0053,0.0137,-0.0279,0.0767,0.0376,0.0080,-0.0259,-0.0067,-2.7985,1.5345,2.3686
2024-10-11T14:08:54.693Z,0.0343,-1.0021,0.0170,-0.0279,0.0767,0.0376,0.0066,-0.0255,-0.0026,-2.7985,1.5345,2.3686
2024-10-11T14:08:54.703Z,0.0338,-0.9939,0.0241,-0.0814,-0.0532,0.0208,0.0063,-0.0263,-0.0008,-2.8018,1.5342,2.3707
2024-10-11T14:08:54.713Z,0.0295,-0.9914,0.0244,-0.0814,-0.0532,0.0208,0.0074,-0.0264,-0.0016,-2.8018,1.5342,2.3707
2024-10-11T14:08:54.723Z,0.0197,-0.9964,0.0221,-0.0814,-0.0532,0.0208,0.0048,-0.0250,0.0020,-2.8018,1.5342,2.3707
2024-10-11T14:08:54.733Z,0.0190,-1.0011,0.0175,0.0632,0.0178,0.0877,0.0051,-0.0202,-0.0001,-2.8061,1.5341,2.3741
2024-10-11T14:08:54.743Z,0.0103,-0.9982,0.0131,0.0632,0.0178,0.0877,0.0065,-0.0166,-0.0004,-2.8061,1.5341,2.3741
2024-10-11T14:08:54.753Z,0.0097,-0.9953,0.0122,0.0632,0.0178,0.0877,0.0083,-0.0160,0.0001,-2.8061,1.5341,2.3741
2024-10-11T14:08:54.763Z,0.0195,-0.9894,0.0089,0.0584,-0.0975,0.1742,0.0096,-0.0149,0.0012,-2.8109,1.5339,2.3780
2024-10-11T14:08:54.773Z,0.0237,-0.9844,0.0174,0.0584,-0.0975,0.1742,0.0086,-0.0139,0.0038,-2.8109,1.5339,2.3780
2024-10-11T14:08:54.782Z,0.0223,-0.9881,0.0173,0.0584,-0.0975,0.1742,0.0099,-0.0155,0.0061,-2.8109,1.5339,2.3780
2024-10-11T14:08:54.793Z,0.0217,-0.9903,0.0186,0.0357,-0.0881,0.0811,0.0086,-0.0086,0.0053,-2.8181,1.5339,2.3845
2024-10-11T14:08:54.802Z,0.0182,-0.9901,0.0245,0.0357,-0.0881,0.0811,0.0034,-0.0004,0.0046,-2.8181,1.5339,2.3845
2024-10-11T14:08:54.813Z,0.0163,-0.9932,0.0260,0.0357,-0.0881,0.0811,0.0041,-0.0028,0.0088,-2.8181,1.5339,2.3845
2024-10-11T14:08:54.823Z,0.0141,-0.9964,0.0291,0.1087,-0.0288,-0.0207,0.0023,-0.0019,0.0061,-2.8247,1.5339,2.3908
2024-10-11T14:08:54.833Z,0.0121,-0.9976,0.0262,0.1087,-0.0288,-0.0207,0.0046,-0.0028,0.0075,-2.8247,1.5339,2.3908
2024-10-11T14:08:54.843Z,0.0136,-1.0012,0.0237,0.1087,-0.0288,-0.0207,0.0048,-0.0051,0.0082,-2.8247,1.5339,2.3908
2024-10-11T14:08:54.853Z,0.0181,-1.0050,0.0260,0.0669,0.0554,0.0102,0.0067,-0.0036,0.0082,-2.8313,1.5341,2.3971
2024-10-11T14:08:54.862Z,0.0160,-1.0059,0.0269,0.0669,0.0554,0.0102,0.0033,0.0056,0.0121,-2.8313,1.5341,2.3971
2024-10-11T14:08:54.873Z,0.0164,-1.0055,0.0232,0.0669,0.0554,0.0102,0.0024,0.0140,0.0105,-2.8313,1.5341,2.3971
2024-10-11T14:08:54.883Z,0.0146,-1.0056,0.0205,0.0983,0.0613,0.0640,0.0004,0.0174,0.0083,-2.8382,1.5342,2.4039
2024-10-11T14:08:54.893Z,0.0120,-1.0054,0.0214,0.0983,0.0613,0.0640,-0.0009,0.0167,0.0087,-2.8382,1.5342,2.4039
2024-10-11T14:08:54.903Z,0.0142,-1.0054,0.0249,0.0983,0.0613,0.0640,0.0004,0.0163,0.0097,-2.8382,1.5342,2.4039
2024-10-11T14:08:54.912Z,0.0168,-1.0079,0.0355,0.0724,0.0836,-0.0828,-0.0025,0.0174,0.0105,-2.8457,1.5345,2.4117
2024-10-11T14:08:54.923Z,0.0257,-1.0095,0.0471,0.0724,0.0836,-0.0828,-0.0058,0.0212,0.0107,-2.8457,1.5345,2.4117
2024-10-11T14:08:54.933Z,0.0207,-1.0116,0.0445,0.0724,0.0836,-0.0828,-0.0090,0.0256,0.0109,-2.8457,1.5345,2.4117
2024-10-11T14:08:54.943Z,0.0216,-1.0122,0.0399,0.0225,0.1256,-0.1278,-0.0103,0.0321,0.0109,-2.8494,1.5348,2.4159
2024-10-11T14:08:54.953Z,0.0267,-1.0119,0.0394,0.0225,0.1256,-0.1278,-0.0139,0.0330,0.0115,-2.8494,1.5348,2.4159
2024-10-11T14:08:54.962Z,0.0240,-1.0103,0.0385,0.0225,0.1256,-0.1278,-0.0126,0.0326,0.0103,-2.8494,1.5348,2.4159
2024-10-11T14:08:54.973Z,0.0209,-1.0054,0.0386,0.0249,0.0593,-0.1179,-0.0139,0.0296,0.0093,-2.8502,1.5354,2.4174
2024-10-11T14:08:54.983Z,0.0219,-1.0067,0.0361,0.0249,0.0593,-0.1179,-0.0135,0.0290,0.0091,-2.8502,1.5354,2.4174
2024-10-11T14:08:54.993Z,0.0260,-1.0019,0.0410,0.0249,0.0593,-0.1179,-0.0147,0.0312,0.0092,-2.8502,1.5354,2.4174
2024-10-11T14:08:55.003Z,0.0256,-0.9938,0.0377,-0.0245,-0.0551,-0.1134,-0.0186,0.0355,0.0128,-2.8492,1.5359,2.4171
2024-10-11T14:08:55.012Z,0.0293,-0.9905,0.0334,-0.0245,-0.0551,-0.1134,-0.0210,0.0378,0.0123,-2.8492,1.5359,2.4171
2024-10-11T14:08:55.022Z,0.0272,-0.9874,0.0354,-0.0245,-0.0551,-0.1134,-0.0215,0.0377,0.0099,-2.8492,1.5359,2.4171
2024-10-11T14:08:55.032Z,0.0207,-0.9865,0.0325,0.0208,-0.1272,-0.0680,-0.0180,0.0345,0.0079,-2.8457,1.5365,2.4144
2024-10-11T14:08:55.044Z,0.0151,-0.9877,0.0251,0.0208,-0.1272,-0.0680,-0.0171,0.0286,0.0052,-2.8457,1.5365,2.4144
2024-10-11T14:08:55.054Z,0.0116,-0.9878,0.0217,0.0208,-0.1272,-0.0680,-0.0156,0.0255,0.0035,-2.8457,1.5365,2.4144
2024-10-11T14:08:55.062Z,0.0100,-0.9859,0.0202,0.1229,-0.1327,0.0491,-0.0177,0.0260,0.0039,-2.8416,1.5370,2.4111
2024-10-11T14:08:55.072Z,0.0148,-0.9857,0.0279,0.1229,-0.1327,0.0491,-0.0154,0.0302,0.0017,-2.8416,1.5370,2.4111
2024-10-11T14:08:55.083Z,0.0235,-0.9882,0.0368,0.1229,-0.1327,0.0491,-0.0156,0.0305,-0.0012,-2.8416,1.5370,2.4111
2024-10-11T14:08:55.093Z,0.0244,-0.9921,0.0382,-0.0188,-0.0723,-0.1323,-0.0180,0.0265,-0.0018,-2.8336,1.5373,2.4036
2024-10-11T14:08:55.103Z,0.0215,-0.9939,0.0330,-0.0188,-0.0723,-0.1323,-0.0177,0.0234,-0.0035,-2.8336,1.5373,2.4036
2024-10-11T14:08:55.112Z,0.0184,-0.9980,0.0281,-0.0188,-0.0723,-0.1323,-0.0101,0.0248,-0.0053,-2.8336,1.5373,2.4036
2024-10-11T14:08:55.123Z,0.0200,-0.9989,0.0380,0.0254,-0.0055,-0.1338,-0.0141,0.0171,-0.0056,-2.8230,1.5375,2.3936
2024-10-11T14:08:55.133Z,0.0212,-1.0032,0.0400,0.0254,-0.0055,-0.1338,-0.0139,0.0141,-0.0089,-2.8230,1.5375,2.3936
2024-10-11T14:08:55.142Z,0.0230,-1.0117,0.0392,0.0254,-0.0055,-0.1338,-0.0136,0.0130,-0.0083,-2.8230,1.5375,2.3936
2024-10-11T14:08:55.153Z,0.0302,-1.0144,0.0499,-0.0728,0.1465,-0.2547,-0.0131,0.0094,-0.0111,-2.8105,1.5377,2.3812
2024-10-11T14:08:55.162Z,0.0297,-1.0158,0.0454,-0.0728,0.1465,-0.2547,-0.0131,0.0046,-0.0117,-2.8105,1.5377,2.3812
2024-10-11T14:08:55.173Z,0.0254,-1.0131,0.0463,-0.0728,0.1465,-0.2547,-0.0156,0.0015,-0.0143,-2.8105,1.5377,2.3812
2024-10-11T14:08:55.183Z,0.0248,-1.0109,0.0484,-0.0167,0.1124,-0.2432,-0.0165,-0.0058,-0.0135,-2.7952,1.5377,2.3659
2024-10-11T14:08:55.193Z,0.0255,-1.0146,0.0493,-0.0167,0.1124,-0.2432,-0.0174,-0.0049,-0.0105,-2.7952,1.5377,2.3659
2024-10-11T14:08:55.203Z,0.0270,-1.0154,0.0516,-0.0167,0.1124,-0.2432,-0.0186,-0.0140,-0.0135,-2.7952,1.5377,2.3659
2024-10-11T14:08:55.212Z,0.0292,-1.0186,0.0476,-0.0556,0.1878,-0.2400,-0.0198,-0.0144,-0.0148,-2.7779,1.5378,2.3480
2024-10-11T14:08:55.222Z,0.0307,-1.0190,0.0426,-0.0556,0.1878,-0.2400,-0.0162,-0.0188,-0.0148,-2.7779,1.5378,2.3480
2024-10-11T14:08:55.233Z,0.0328,-1.0147,0.0445,-0.0556,0.1878,-0.2400,-0.0155,-0.0221,-0.0124,-2.7779,1.5378,2.3480
2024-10-11T14:08:55.244Z,0.0402,-1.0135,0.0395,-0.1592,0.1377,-0.1648,-0.0158,-0.0246,-0.0109,-2.7606,1.5378,2.3298
2024-10-11T14:08:55.253Z,0.0423,-1.0136,0.0370,-0.1592,0.1377,-0.1648,-0.0112,-0.0293,-0.0110,-2.7606,1.5378,2.3298
2024-10-11T14:08:55.263Z,0.0346,-1.0119,0.0365,-0.1592,0.1377,-0.1648,-0.0151,-0.0336,-0.0105,-2.7606,1.5378,2.3298
2024-10-11T14:08:55.272Z,0.0291,-1.0058,0.0411,-0.0480,0.0625,-0.1837,-0.0167,-0.0384,-0.0094,-2.7473,1.5378,2.3154
2024-10-11T14:08:55.283Z,0.0258,-1.0001,0.0522,-0.0480,0.0625,-0.1837,-0.0173,-0.0413,-0.0095,-2.7473,1.5378,2.3154
2024-10-11T14:08:55.293Z,0.0279,-0.9980,0.0529,-0.0480,0.0625,-0.1837,-0.0166,-0.0433,-0.0104,-2.7473,1.5378,2.3154
2024-10-11T14:08:55.303Z,0.0237,-0.9957,0.0512,0.0080,-0.0366,-0.2874,-0.0155,-0.0454,-0.0094,-2.7330,1.5379,2.2996
2024-10-11T14:08:55.313Z,0.0219,-1.0007,0.0428,0.0080,-0.0366,-0.2874,-0.0149,-0.0445,-0.0087,-2.7330,1.5379,2.2996
2024-10-11T14:08:55.323Z,0.0278,-1.0025,0.0447,0.0080,-0.0366,-0.2874,-0.0177,-0.0461,-0.0056,-2.7330,1.5379,2.2996
2024-10-11T14:08:55.333Z,0.0381,-0.9972,0.0510,-0.1310,-0.0224,-0.2905,-0.0201,-0.0473,-0.0047,-2.7181,1.5380,2.2831
2024-10-11T14:08:55.343Z,0.0358,-0.9956,0.0500,-0.1310,-0.0224,-0.2905,-0.0211,-0.0456,-0.0047,-2.7181,1.5380,2.2831
2024-10-11T14:08:55.353Z,0.0203,-0.9960,0.0569,-0.1310,-0.0224,-0.2905,-0.0222,-0.0501,-0.0029,-2.7181,1.5380,2.2831
2024-10-11T14:08:55.363Z,0.0152,-0.9967,0.0567,0.0954,-0.0276,-0.3519,-0.0213,-0.0541,-0.0032,-2.7033,1.5384,2.2666
2024-10-11T14:08:55.373Z,0.0168,-1.0001,0.0484,0.0954,-0.0276,-0.3519,-0.0238,-0.0509,-0.0041,-2.7033,1.5384,2.2666
2024-10-11T14:08:55.383Z,0.0137,-1.0007,0.0439,0.0954,-0.0276,-0.3519,-0.0223,-0.0491,-0.0025,-2.7033,1.5384,2.2666
2024-10-11T14:08:55.393Z,0.0153,-0.9989,0.0427,0.0951,-0.0062,-0.2216,-0.0235,-0.0514,-0.0022,-2.6878,1.5387,2.2493
2024-10-11T14:08:55.403Z,0.0175,-0.9931,0.0462,0.0951,-0.0062,-0.2216,-0.0224,-0.0464,-0.0058,-2.6878,1.5387,2.2493
2024-10-11T14:08:55.413Z,0.0180,-0.9950,0.0363,0.0951,-0.0062,-0.2216,-0.0220,-0.0491,-0.0026,-2.6878,1.5387,2.2493
2024-10-11T14:08:55.422Z,0.0200,-0.9949,0.0347,0.0492,-0.0455,-0.1493,-0.0209,-0.0505,0.0004,-2.6738,1.5391,2.2336
2024-10-11T14:08:55.433Z,0.0204,-0.9940,0.0367,0.0492,-0.0455,-0.1493,-0.0200,-0.0438,0.0055,-2.6738,1.5391,2.2336
2024-10-11T14:08:55.443Z,0.0264,-0.9969,0.0300,0.0492,-0.0455,-0.1493,-0.0196,-0.0379,0.0048,-2.6738,1.5391,2.2336
2024-10-11T14:08:55.454Z,0.0285,-0.9948,0.0249,-0.0220,-0.0690,-0.0936,-0.0183,-0.0330,0.0105,-2.6627,1.5396,2.2210
2024-10-11T14:08:55.462Z,0.0285,-0.9948,0.0249,-0.0220,-0.0690,-0.0936,-0.0150,-0.0309,0.0127,-2.6627,1.5396,2.2210
2024-10-11T14:08:55.472Z,0.0295,-0.9938,0.0245,-0.0220,-0.0690,-0.0936,-0.0154,-0.0264,0.0138,-2.6627,1.5396,2.2210
2024-10-11T14:08:55.483Z,0.0201,-0.9899,0.0215,0.0424,-0.0948,-0.0297,-0.0127,-0.0264,0.0128,-2.6605,1.5402,2.2177
2024-10-11T14:08:55.495Z,0.0099,-0.9931,0.0083,0.0424,-0.0948,-0.0297,-0.0062,-0.0224,0.0145,-2.6605,1.5402,2.2177
2024-10-11T14:08:55.503Z,0.0084,-0.9920,0.0028,0.0424,-0.0948,-0.0297,-0.0042,-0.0185,0.0182,-2.6605,1.5402,2.2177
2024-10-11T14:08:55.514Z,0.0188,-0.9874,-0.0027,0.0519,-0.1011,0.1753,-0.0021,-0.0121,0.0158,-2.6651,1.5407,2.2214
2024-10-11T14:08:55.523Z,0.0171,-0.9852,-0.0012,0.0519,-0.1011,0.1753,0.0007,-0.0072,0.0195,-2.6651,1.5407,2.2214
2024-10-11T14:08:55.534Z,0.0157,-0.9912,-0.0108,0.0519,-0.1011,0.1753,0.0079,-0.0038,0.0198,-2.6651,1.5407,2.2214
2024-10-11T14:08:55.544Z,0.0157,-0.9912,-0.0108,0.0748,-0.0816,0.2866,0.0101,-0.0009,0.0196,-2.6821,1.5411,2.2379
2024-10-11T14:08:55.554Z,0.0093,-0.9953,-0.0027,0.0748,-0.0816,0.2866,0.0181,-0.0007,0.0200,-2.6821,1.5411,2.2379
2024-10-11T14:08:55.563Z,0.0093,-0.9953,-0.0027,0.0748,-0.0816,0.2866,0.0221,0.0026,0.0214,-2.6821,1.5411,2.2379
2024-10-11T14:08:55.574Z,-0.0009,-0.9976,-0.0007,0.1401,-0.0394,0.2118,0.0254,0.0089,0.0185,-2.7103,1.5412,2.2659
2024-10-11T14:08:55.584Z,0.0063,-0.9990,0.0047,0.1401,-0.0394,0.2118,0.0268,0.0104,0.0199,-2.7103,1.5412,2.2659
2024-10-11T14:08:55.596Z,0.0063,-0.9990,0.0047,0.1664,-0.0671,0.1081,0.0309,0.0110,0.0146,-2.7429,1.5412,2.2985
2024-10-11T14:08:55.603Z,-0.0001,-1.0007,0.0061,0.1664,-0.0671,0.1081,0.0368,0.0072,0.0149,-2.7429,1.5412,2.2985
2024-10-11T14:08:55.614Z,-0.0009,-1.0007,0.0043,0.1664,-0.0671,0.1081,0.0329,0.0066,0.0145,-2.7429,1.5412,2.2985
2024-10-11T14:08:55.623Z,0.0016,-1.0029,0.0134,0.1664,-0.0671,0.1081,0.0356,0.0053,0.0147,-2.7429,1.5412,2.2985
2024-10-11T14:08:55.633Z,-0.0053,-1.0042,0.0195,0.1964,0.0330,0.0711,0.0352,0.0053,0.0094,-2.7768,1.5409,2.3324
2024-10-11T14:08:55.643Z,-0.0053,-1.0042,0.0195,0.1964,0.0330,0.0711,0.0290,0.0151,0.0087,-2.7768,1.5409,2.3324
2024-10-11T14:08:55.653Z,-0.0019,-1.0202,0.0187,0.1964,0.0330,0.0711,0.0318,0.0110,0.0021,-2.7768,1.5409,2.3324
2024-10-11T14:08:55.663Z,0.0049,-1.0338,0.0126,0.2283,0.2032,0.0281,0.0352,0.0063,0.0025,-2.8064,1.5404,2.3618
2024-10-11T14:08:55.673Z,0.0104,-1.0448,0.0152,0.2283,0.2032,0.0281,0.0361,0.0031,0.0026,-2.8064,1.5404,2.3618
2024-10-11T14:08:55.684Z,0.0159,-1.0531,0.0124,0.2283,0.2032,0.0281,0.0354,0.0012,0.0014,-2.8064,1.5404,2.3618
2024-10-11T14:08:55.694Z,0.0159,-1.0531,0.0124,0.0526,0.5261,0.1003,0.0358,0.0025,0.0021,-2.8330,1.5398,2.3883
2024-10-11T14:08:55.703Z,0.0131,-1.0563,0.0203,0.0526,0.5261,0.1003,0.0326,0.0010,-0.0015,-2.8330,1.5398,2.3883
2024-10-11T14:08:55.714Z,0.0015,-1.0637,0.0163,0.0526,0.5261,0.1003,0.0304,-0.0003,-0.0006,-2.8330,1.5398,2.3883
2024-10-11T14:08:55.724Z,0.0021,-1.0682,0.0192,0.1930,0.6302,0.0716,0.0325,-0.0031,-0.0064,-2.8548,1.5390,2.4099
2024-10-11T14:08:55.734Z,0.0066,-1.0671,0.0247,0.1930,0.6302,0.0716,0.0277,-0.0042,-0.0065,-2.8548,1.5390,2.4099
2024-10-11T14:08:55.747Z,0.0209,-1.0573,0.0384,0.0048,0.5669,-0.1375,0.0234,-0.0067,-0.0046,-2.8676,1.5384,2.4223
2024-10-11T14:08:55.753Z,0.0251,-1.0457,0.0360,0.0048,0.5669,-0.1375,0.0191,-0.0105,-0.0049,-2.8676,1.5384,2.4223
2024-10-11T14:08:55.764Z,0.0071,-1.0356,0.0342,0.0048,0.5669,-0.1375,0.0207,-0.0147,-0.0062,-2.8676,1.5384,2.4223
2024-10-11T14:08:55.774Z,0.0055,-1.0291,0.0336,0.0048,0.5669,-0.1375,0.0184,-0.0152,-0.0072,-2.8676,1.5384,2.4223
2024-10-11T14:08:55.783Z,0.0183,-1.0244,0.0276,0.1569,0.2909,-0.0846,0.0171,-0.0184,-0.0067,-2.8753,1.5379,2.4293
2024-10-11T14:08:55.794Z,0.0193,-1.0136,0.0279,0.1569,0.2909,-0.0846,0.0155,-0.0224,-0.0071,-2.8753,1.5379,2.4293
2024-10-11T14:08:55.803Z,0.0167,-1.0065,0.0260,0.1569,0.2909,-0.0846,0.0187,-0.0259,-0.0080,-2.8753,1.5379,2.4293
2024-10-11T14:08:55.812Z,0.0167,-1.0065,0.0260,0.0486,0.0697,-0.0064,0.0159,-0.0266,-0.0074,-2.8812,1.5374,2.4343
2024-10-11T14:08:55.822Z,0.0177,-1.0010,0.0287,0.0486,0.0697,-0.0064,0.0148,-0.0274,-0.0089,-2.8812,1.5374,2.4343
2024-10-11T14:08:55.834Z,0.0116,-0.9954,0.0289,0.1009,-0.0391,-0.0301,0.0156,-0.0248,-0.0073,-2.8863,1.5369,2.4384
2024-10-11T14:08:55.844Z,0.0178,-0.9963,0.0248,0.1009,-0.0391,-0.0301,0.0146,-0.0231,-0.0094,-2.8863,1.5369,2.4384
2024-10-11T14:08:55.853Z,0.0218,-0.9956,0.0170,0.1009,-0.0391,-0.0301,0.0137,-0.0266,-0.0083,-2.8863,1.5369,2.4384
2024-10-11T14:08:55.863Z,0.0248,-0.9908,0.0211,0.1009,-0.0391,-0.0301,0.0199,-0.0279,-0.0053,-2.8863,1.5369,2.4384
2024-10-11T14:08:55.873Z,0.0341,-0.9908,0.0174,-0.0268,-0.0843,0.0518,0.0219,-0.0261,-0.0002,-2.8933,1.5364,2.4444
2024-10-11T14:08:55.883Z,0.0336,-0.9925,0.0144,-0.0268,-0.0843,0.0518,0.0205,-0.0213,-0.0014,-2.8933,1.5364,2.4444
2024-10-11T14:08:55.896Z,0.0225,-1.0003,0.0245,-0.0039,0.0085,0.0237,0.0197,-0.0174,0.0006,-2.9042,1.5359,2.4543
2024-10-11T14:08:55.903Z,0.0214,-1.0113,0.0210,-0.0039,0.0085,0.0237,0.0182,-0.0165,0.0016,-2.9042,1.5359,2.4543
2024-10-11T14:08:55.913Z,0.0214,-1.0113,0.0210,-0.0039,0.0085,0.0237,0.0185,-0.0121,-0.0001,-2.9042,1.5359,2.4543
2024-10-11T14:08:55.923Z,0.0387,-1.0253,0.0186,-0.0039,0.0085,0.0237,0.0188,-0.0130,0.0039,-2.9042,1.5359,2.4543
2024-10-11T14:08:55.933Z,0.0298,-1.0354,0.0093,-0.1632,0.2546,0.0873,0.0154,-0.0073,0.0076,-2.9161,1.5356,2.4657
2024-10-11T14:08:55.945Z,0.0227,-1.0414,0.0115,-0.1632,0.2546,0.0873,0.0165,-0.0020,0.0051,-2.9161,1.5356,2.4657
2024-10-11T14:08:55.954Z,0.0227,-1.0407,0.0125,-0.0088,0.4052,0.1511,0.0159,0.0009,0.0081,-2.9286,1.5354,2.4778
2024-10-11T14:08:55.963Z,0.0312,-1.0365,0.0192,-0.0088,0.4052,0.1511,0.0159,0.0076,0.0099,-2.9286,1.5354,2.4778
2024-10-11T14:08:55.973Z,0.0303,-1.0297,0.0181,-0.0088,0.4052,0.1511,0.0185,0.0093,0.0108,-2.9286,1.5354,2.4778
2024-10-11T14:08:55.983Z,0.0236,-1.0156,0.0232,-0.0088,0.4052,0.1511,0.0165,0.0138,0.0112,-2.9286,1.5354,2.4778
2024-10-11T14:08:55.995Z,0.0311,-0.9943,0.0317,-0.0209,0.1591,0.0512,0.0228,0.0182,0.0130,-2.9452,1.5352,2.4944
2024-10-11T14:08:56.003Z,0.0257,-0.9761,0.0345,-0.0209,0.1591,0.0512,0.0211,0.0267,0.0142,-2.9452,1.5352,2.4944
2024-10-11T14:08:56.013Z,0.0066,-0.9592,0.0534,-0.0209,0.1591,0.0512,0.0235,0.0306,0.0127,-2.9452,1.5352,2.4944
2024-10-11T14:08:56.023Z,0.0002,-0.9429,0.0661,0.1423,-0.3938,-0.2382,0.0294,0.0323,0.0124,-2.9659,1.5348,2.5157
2024-10-11T14:08:56.033Z,0.0059,-0.9330,0.0683,0.1423,-0.3938,-0.2382,0.0329,0.0357,0.0068,-2.9659,1.5348,2.5157
2024-10-11T14:08:56.046Z,0.0102,-0.9264,0.0744,0.1040,-0.7152,-0.4348,0.0344,0.0426,0.0075,-2.9863,1.5342,2.5369
2024-10-11T14:08:56.052Z,0.0151,-0.9203,0.0826,0.1040,-0.7152,-0.4348,0.0341,0.0424,0.0054,-2.9863,1.5342,2.5369
2024-10-11T14:08:56.063Z,0.0128,-0.9191,0.0827,0.1040,-0.7152,-0.4348,0.0341,0.0501,0.0038,-2.9863,1.5342,2.5369
2024-10-11T14:08:56.074Z,0.0153,-0.9183,0.0794,0.0519,-0.7945,-0.4737,0.0346,0.0504,0.0054,-3.0046,1.5335,2.5565
2024-10-11T14:08:56.083Z,0.0153,-0.9211,0.0702,0.0519,-0.7945,-0.4737,0.0337,0.0519,0.0012,-3.0046,1.5335,2.5565
2024-10-11T14:08:56.094Z,0.0096,-0.9279,0.0652,0.0519,-0.7945,-0.4737,0.0292,0.0532,0.0035,-3.0046,1.5335,2.5565
2024-10-11T14:08:56.103Z,0.0170,-0.9364,0.0652,0.0519,-0.7945,-0.4737,0.0306,0.0467,-0.0003,-3.0046,1.5335,2.5565
2024-10-11T14:08:56.113Z,0.0146,-0.9420,0.0650,0.0338,-0.6172,-0.3242,0.0275,0.0451,0.0013,-3.0216,1.5327,2.5748
2024-10-11T14:08:56.124Z,0.0154,-0.9536,0.0527,0.0338,-0.6172,-0.3242,0.0256,0.0399,-0.0021,-3.0216,1.5327,2.5748
2024-10-11T14:08:56.134Z,0.0156,-0.9626,0.0439,0.0478,-0.3599,-0.1058,0.0243,0.0407,-0.0026,-3.0332,1.5319,2.5875
2024-10-11T14:08:56.144Z,0.0120,-0.9726,0.0361,0.0478,-0.3599,-0.1058,0.0191,0.0435,-0.0067,-3.0332,1.5319,2.5875
2024-10-11T14:08:56.153Z,0.0136,-0.9764,0.0257,0.0478,-0.3599,-0.1058,0.0236,0.0390,-0.0082,-3.0332,1.5319,2.5875
2024-10-11T14:08:56.163Z,0.0228,-0.9799,0.0316,0.0478,-0.3599,-0.1058,0.0233,0.0376,-0.0095,-3.0332,1.5319,2.5875
2024-10-11T14:08:56.173Z,0.0314,-0.9786,0.0420,-0.0206,-0.1891,0.0234,0.0242,0.0318,-0.0101,-3.0402,1.5310,2.5953
2024-10-11T14:08:56.183Z,0.0297,-0.9792,0.0464,-0.0206,-0.1891,0.0234,0.0224,0.0329,-0.0119,-3.0402,1.5310,2.5953
2024-10-11T14:08:56.194Z,0.0312,-0.9793,0.0452,-0.1008,-0.1949,-0.1014,0.0267,0.0299,-0.0103,-3.0448,1.5302,2.6008
2024-10-11T14:08:56.203Z,0.0307,-0.9809,0.0382,-0.1008,-0.1949,-0.1014,0.0246,0.0339,-0.0103,-3.0448,1.5302,2.6008
2024-10-11T14:08:56.213Z,0.0281,-0.9780,0.0438,-0.1008,-0.1949,-0.1014,0.0290,0.0335,-0.0108,-3.0448,1.5302,2.6008
2024-10-11T14:08:56.223Z,0.0313,-0.9773,0.0498,-0.1008,-0.1949,-0.1014,0.0336,0.0298,-0.0071,-3.0448,1.5302,2.6008
2024-10-11T14:08:56.233Z,0.0344,-0.9742,0.0533,-0.0996,-0.2141,-0.1372,0.0369,0.0235,-0.0091,-3.0518,1.5292,2.6083
2024-10-11T14:08:56.243Z,0.0233,-0.9767,0.0554,-0.0996,-0.2141,-0.1372,0.0392,0.0179,-0.0070,-3.0518,1.5292,2.6083
2024-10-11T14:08:56.254Z,0.0203,-0.9836,0.0543,0.0108,-0.1521,-0.1695,0.0415,0.0157,-0.0093,-3.0607,1.5280,2.6176
2024-10-11T14:08:56.263Z,0.0316,-0.9880,0.0527,0.0108,-0.1521,-0.1695,0.0447,0.0122,-0.0095,-3.0607,1.5280,2.6176
2024-10-11T14:08:56.273Z,0.0318,-0.9924,0.0420,0.0108,-0.1521,-0.1695,0.0473,0.0102,-0.0046,-3.0607,1.5280,2.6176
2024-10-11T14:08:56.284Z,0.0262,-0.9965,0.0407,-0.0445,-0.0252,-0.0221,0.0488,0.0113,-0.0076,-3.0722,1.5266,2.6291
2024-10-11T14:08:56.293Z,0.0308,-1.0056,0.0399,-0.0445,-0.0252,-0.0221,0.0490,0.0054,-0.0050,-3.0722,1.5266,2.6291
2024-10-11T14:08:56.303Z,0.0308,-1.0151,0.0367,-0.0445,-0.0252,-0.0221,0.0525,0.0009,-0.0042,-3.0722,1.5266,2.6291
2024-10-11T14:08:56.314Z,0.0308,-1.0151,0.0367,-0.0502,0.2126,0.0687,0.0548,-0.0021,-0.0046,-3.0861,1.5251,2.6429
2024-10-11T14:08:56.322Z,0.0224,-1.0216,0.0325,-0.0502,0.2126,0.0687,0.0549,-0.0075,-0.0051,-3.0861,1.5251,2.6429
2024-10-11T14:08:56.333Z,0.0185,-1.0154,0.0366,-0.0502,0.2126,0.0687,0.0481,-0.0031,-0.0073,-3.0861,1.5251,2.6429
2024-10-11T14:08:56.344Z,0.0231,-1.0085,0.0421,-0.0106,0.0944,-0.0048,0.0430,-0.0028,-0.0060,-3.0984,1.5237,2.6547
2024-10-11T14:08:56.353Z,0.0271,-1.0014,0.0444,-0.0106,0.0944,-0.0048,0.0406,-0.0031,-0.0041,-3.0984,1.5237,2.6547
2024-10-11T14:08:56.363Z,0.0206,-0.9946,0.0426,-0.0106,0.0944,-0.0048,0.0363,-0.0061,-0.0045,-3.0984,1.5237,2.6547
2024-10-11T14:08:56.373Z,0.0030,-0.9923,0.0381,0.1886,-0.0641,0.0452,0.0337,-0.0095,-0.0074,-3.1049,1.5226,2.6608
2024-10-11T14:08:56.383Z,0.0018,-0.9892,0.0381,0.1886,-0.0641,0.0452,0.0304,-0.0087,-0.0084,-3.1049,1.5226,2.6608
2024-10-11T14:08:56.393Z,0.0226,-0.9902,0.0439,0.1886,-0.0641,0.0452,0.0277,-0.0080,-0.0086,-3.1049,1.5226,2.6608
2024-10-11T14:08:56.404Z,0.0259,-0.9901,0.0389,-0.0330,-0.0850,0.0443,0.0244,-0.0080,-0.0079,-3.1078,1.5219,2.6632
2024-10-11T14:08:56.413Z,0.0137,-0.9939,0.0322,-0.0330,-0.0850,0.0443,0.0237,-0.0080,-0.0074,-3.1078,1.5219,2.6632
2024-10-11T14:08:56.422Z,0.0141,-0.9973,0.0300,-0.0330,-0.0850,0.0443,0.0240,-0.0081,-0.0091,-3.1078,1.5219,2.6632
2024-10-11T14:08:56.434Z,0.0220,-0.9969,0.0476,0.0075,-0.0183,-0.0339,0.0239,-0.0081,-0.0067,-3.1107,1.5212,2.6655
2024-10-11T14:08:56.443Z,0.0262,-0.9981,0.0522,0.0075,-0.0183,-0.0339,0.0219,-0.0139,-0.0067,-3.1107,1.5212,2.6655
2024-10-11T14:08:56.453Z,0.0085,-0.9991,0.0558,0.0075,-0.0183,-0.0339,0.0187,-0.0150,-0.0085,-3.1107,1.5212,2.6655
2024-10-11T14:08:56.463Z,0.0085,-0.9991,0.0558,0.1599,0.0230,-0.1622,0.0117,-0.0116,-0.0081,-3.1125,1.5207,2.6667
2024-10-11T14:08:56.473Z,0.0234,-1.0034,0.0601,0.1599,0.0230,-0.1622,0.0105,-0.0108,-0.0078,-3.1125,1.5207,2.6667
2024-10-11T14:08:56.483Z,0.0258,-1.0036,0.0655,0.1599,0.0230,-0.1622,0.0062,-0.0104,-0.0053,-3.1125,1.5207,2.6667
2024-10-11T14:08:56.493Z,0.0133,-1.0054,0.0694,0.0962,0.0651,-0.2423,0.0026,-0.0126,-0.0073,-3.1106,1.5205,2.6642
2024-10-11T14:08:56.503Z,0.0066,-1.0112,0.0683,0.0962,0.0651,-0.2423,-0.0031,-0.0106,-0.0077,-3.1106,1.5205,2.6642
2024-10-11T14:08:56.513Z,0.0193,-1.0138,0.0766,0.0962,0.0651,-0.2423,-0.0109,-0.0072,-0.0072,-3.1106,1.5205,2.6642
2024-10-11T14:08:56.523Z,0.0276,-1.0154,0.0783,-0.0426,0.1629,-0.3330,-0.0139,-0.0090,-0.0100,-3.1047,1.5207,2.6578
2024-10-11T14:08:56.533Z,0.0188,-1.0170,0.0676,-0.0426,0.1629,-0.3330,-0.0178,-0.0100,-0.0062,-3.1047,1.5207,2.6578
2024-10-11T14:08:56.543Z,0.0117,-1.0192,0.0601,-0.0426,0.1629,-0.3330,-0.0221,-0.0013,-0.0082,-3.1047,1.5207,2.6578
2024-10-11T14:08:56.553Z,0.0209,-1.0195,0.0607,0.0256,0.2034,-0.1656,-0.0248,-0.0026,-0.0078,-3.0962,1.5211,2.6489
2024-10-11T14:08:56.563Z,0.0296,-1.0216,0.0585,0.0256,0.2034,-0.1656,-0.0227,-0.0017,-0.0085,-3.0962,1.5211,2.6489
2024-10-11T14:08:56.573Z,0.0214,-1.0250,0.0441,0.0256,0.2034,-0.1656,-0.0257,0.0020,-0.0099,-3.0962,1.5211,2.6489
2024-10-11T14:08:56.583Z,0.0188,-1.0281,0.0385,0.0485,0.2879,0.0450,-0.0254,0.0021,-0.0078,-3.0856,1.5215,2.6381
2024-10-11T14:08:56.593Z,0.0264,-1.0316,0.0358,0.0485,0.2879,0.0450,-0.0246,-0.0031,-0.0093,-3.0856,1.5215,2.6381
2024-10-11T14:08:56.603Z,0.0291,-1.0320,0.0354,0.0485,0.2879,0.0450,-0.0238,-0.0031,-0.0063,-3.0856,1.5215,2.6381
2024-10-11T14:08:56.613Z,0.0328,-1.0300,0.0334,-0.0864,0.3061,0.0888,-0.0241,-0.0028,-0.0048,-3.0762,1.5220,2.6284
2024-10-11T14:08:56.623Z,0.0343,-1.0307,0.0274,-0.0864,0.3061,0.0888,-0.0236,0.0001,-0.0041,-3.0762,1.5220,2.6284
2024-10-11T14:08:56.633Z,0.0399,-1.0244,0.0251,-0.0864,0.3061,0.0888,-0.0204,-0.0069,-0.0019,-3.0762,1.5220,2.6284
2024-10-11T14:08:56.643Z,0.0402,-1.0172,0.0281,-0.1598,0.1804,0.1353,-0.0226,-0.0004,0.0004,-3.0704,1.5225,2.6223
2024-10-11T14:08:56.653Z,0.0384,-1.0110,0.0233,-0.1598,0.1804,0.1353,-0.0220,0.0015,0.0027,-3.0704,1.5225,2.6223
2024-10-11T14:08:56.662Z,0.0325,-1.0098,0.0210,-0.1598,0.1804,0.1353,-0.0218,-0.0017,0.0034,-3.0704,1.5225,2.6223
2024-10-11T14:08:56.673Z,0.0294,-1.0113,0.0240,-0.0549,0.1219,0.1693,-0.0218,0.0011,0.0064,-3.0668,1.5232,2.6185
2024-10-11T14:08:56.683Z,0.0354,-1.0102,0.0272,-0.0549,0.1219,0.1693,-0.0212,-0.0024,0.0080,-3.0668,1.5232,2.6185
2024-10-11T14:08:56.693Z,0.0372,-1.0081,0.0244,-0.0549,0.1219,0.1693,-0.0197,-0.0006,0.0112,-3.0668,1.5232,2.6185
2024-10-11T14:08:56.703Z,0.0389,-1.0061,0.0305,-0.1518,0.0704,0.0989,-0.0202,0.0036,0.0105,-3.0666,1.5239,2.6181
2024-10-11T14:08:56.713Z,0.0353,-1.0005,0.0406,-0.1518,0.0704,0.0989,-0.0245,0.0046,0.0145,-3.0666,1.5239,2.6181
2024-10-11T14:08:56.722Z,0.0301,-1.0003,0.0441,-0.1518,0.0704,0.0989,-0.0245,0.0081,0.0147,-3.0666,1.5239,2.6181
2024-10-11T14:08:56.733Z,0.0240,-0.9963,0.0395,-0.0098,-0.0260,0.0045,-0.0242,0.0012,0.0154,-3.0683,1.5247,2.6197
2024-10-11T14:08:56.742Z,0.0235,-0.9917,0.0376,-0.0098,-0.0260,0.0045,-0.0206,-0.0020,0.0185,-3.0683,1.5247,2.6197
2024-10-11T14:08:56.752Z,0.0278,-0.9867,0.0339,-0.0098,-0.0260,0.0045,-0.0215,-0.0050,0.0186,-3.0683,1.5247,2.6197
2024-10-11T14:08:56.765Z,0.0257,-0.9812,0.0387,-0.0322,-0.1742,0.0057,-0.0203,-0.0089,0.0165,-3.0714,1.5256,2.6223
2024-10-11T14:08:56.773Z,0.0239,-0.9782,0.0399,-0.0322,-0.1742,0.0057,-0.0215,-0.0099,0.0171,-3.0714,1.5256,2.6223
2024-10-11T14:08:56.783Z,0.0265,-0.9789,0.0382,-0.0322,-0.1742,0.0057,-0.0241,-0.0155,0.0185,-3.0714,1.5256,2.6223
2024-10-11T14:08:56.793Z,0.0247,-0.9797,0.0454,-0.0266,-0.1896,-0.0683,-0.0226,-0.0199,0.0172,-3.0722,1.5265,2.6224
2024-10-11T14:08:56.803Z,0.0258,-0.9783,0.0448,-0.0266,-0.1896,-0.0683,-0.0288,-0.0262,0.0171,-3.0722,1.5265,2.6224
2024-10-11T14:08:56.814Z,0.0297,-0.9807,0.0450,-0.0266,-0.1896,-0.0683,-0.0264,-0.0299,0.0163,-3.0722,1.5265,2.6224
2024-10-11T14:08:56.823Z,0.0350,-0.9828,0.0399,-0.1325,-0.1592,-0.0217,-0.0289,-0.0310,0.0166,-3.0731,1.5274,2.6221
2024-10-11T14:08:56.832Z,0.0334,-0.9909,0.0386,-0.1325,-0.1592,-0.0217,-0.0247,-0.0403,0.0173,-3.0731,1.5274,2.6221
2024-10-11T14:08:56.843Z,0.0197,-0.9950,0.0308,-0.1325,-0.1592,-0.0217,-0.0227,-0.0427,0.0192,-3.0731,1.5274,2.6221
2024-10-11T14:08:56.853Z,0.0141,-0.9967,0.0257,0.0692,-0.0236,0.1101,-0.0194,-0.0453,0.0129,-3.0749,1.5282,2.6223
2024-10-11T14:08:56.863Z,0.0147,-0.9919,0.0305,0.0692,-0.0236,0.1101,-0.0207,-0.0526,0.0129,-3.0749,1.5282,2.6223
2024-10-11T14:08:56.873Z,0.0155,-0.9918,0.0362,0.0692,-0.0236,0.1101,-0.0184,-0.0620,0.0098,-3.0749,1.5282,2.6223
2024-10-11T14:08:56.883Z,0.0144,-0.9949,0.0338,0.0639,-0.0415,0.0255,-0.0187,-0.0670,0.0060,-3.0740,1.5288,2.6193
2024-10-11T14:08:56.893Z,0.0175,-0.9985,0.0256,0.0639,-0.0415,0.0255,-0.0166,-0.0665,0.0060,-3.0740,1.5288,2.6193
2024-10-11T14:08:56.903Z,0.0190,-0.9994,0.0205,0.0639,-0.0415,0.0255,-0.0098,-0.0798,0.0040,-3.0740,1.5288,2.6193
2024-10-11T14:08:56.914Z,0.0205,-0.9977,0.0222,0.0041,-0.0138,0.1352,-0.0088,-0.0831,0.0024,-3.0733,1.5292,2.6161
2024-10-11T14:08:56.922Z,0.0200,-0.9937,0.0316,0.0041,-0.0138,0.1352,-0.0094,-0.0812,0.0022,-3.0733,1.5292,2.6161
2024-10-11T14:08:56.933Z,0.0282,-0.9905,0.0333,0.0041,-0.0138,0.1352,-0.0091,-0.0869,-0.0007,-3.0733,1.5292,2.6161
2024-10-11T14:08:56.943Z,0.0293,-0.9885,0.0308,-0.0825,-0.1042,0.0483,-0.0075,-0.0875,0.0003,-3.0716,1.5294,2.6117
2024-10-11T14:08:56.953Z,0.0226,-0.9859,0.0284,-0.0825,-0.1042,0.0483,-0.0076,-0.0855,-0.0011,-3.0716,1.5294,2.6117
2024-10-11T14:08:56.963Z,0.0296,-0.9847,0.0291,-0.0825,-0.1042,0.0483,-0.0077,-0.0861,0.0007,-3.0716,1.5294,2.6117
2024-10-11T14:08:56.973Z,0.0266,-0.9800,0.0316,-0.0552,-0.1879,0.0375,-0.0080,-0.0869,0.0023,-3.0706,1.5296,2.6077
2024-10-11T14:08:56.983Z,0.0140,-0.9814,0.0322,-0.0552,-0.1879,0.0375,-0.0085,-0.0883,-0.0025,-3.0706,1.5296,2.6077
2024-10-11T14:08:56.993Z,0.0165,-0.9821,0.0396,-0.0552,-0.1879,0.0375,-0.0097,-0.0878,-0.0024,-3.0706,1.5296,2.6077
2024-10-11T14:08:57.003Z,0.0137,-0.9846,0.0323,0.0724,-0.1430,0.0278,-0.0056,-0.0878,-0.0008,-3.0670,1.5299,2.6013
2024-10-11T14:08:57.014Z,0.0185,-0.9892,0.0251,0.0724,-0.1430,0.0278,-0.0068,-0.0857,-0.0077,-3.0670,1.5299,2.6013
2024-10-11T14:08:57.023Z,0.0158,-0.9895,0.0215,0.0724,-0.1430,0.0278,-0.0022,-0.0844,-0.0068,-3.0670,1.5299,2.6013
2024-10-11T14:08:57.034Z,0.0121,-0.9902,0.0293,0.0910,-0.0874,0.0550,-0.0077,-0.0820,-0.0080,-3.0622,1.5298,2.5936
2024-10-11T14:08:57.043Z,0.0284,-0.9894,0.0298,0.0910,-0.0874,0.0550,-0.0048,-0.0818,-0.0085,-3.0622,1.5298,2.5936
2024-10-11T14:08:57.053Z,0.0337,-0.9909,0.0273,0.0910,-0.0874,0.0550,-0.0027,-0.0854,-0.0090,-3.0622,1.5298,2.5936
2024-10-11T14:08:57.063Z,0.0228,-0.9938,0.0309,-0.0118,-0.0524,0.0381,-0.0034,-0.0850,-0.0040,-3.0574,1.5298,2.5860
2024-10-11T14:08:57.073Z,0.0155,-0.9993,0.0355,-0.0118,-0.0524,0.0381,-0.0033,-0.0868,-0.0075,-3.0574,1.5298,2.5860
2024-10-11T14:08:57.083Z,0.0341,-0.9983,0.0370,-0.0118,-0.0524,0.0381,-0.0037,-0.0890,-0.0075,-3.0574,1.5298,2.5860
2024-10-11T14:08:57.093Z,0.0352,-1.0006,0.0281,-0.1310,0.0144,0.0641,-0.0049,-0.0931,-0.0089,-3.0527,1.5298,2.5784
2024-10-11T14:08:57.103Z,0.0215,-1.0071,0.0259,-0.1310,0.0144,0.0641,-0.0035,-0.0949,-0.0077,-3.0527,1.5298,2.5784
2024-10-11T14:08:57.113Z,0.0151,-1.0073,0.0222,-0.1310,0.0144,0.0641,-0.0035,-0.0966,-0.0122,-3.0527,1.5298,2.5784
2024-10-11T14:08:57.123Z,0.0329,-1.0072,0.0236,-0.1047,0.0791,0.1082,-0.0011,-0.1010,-0.0102,-3.0481,1.5296,2.5705
2024-10-11T14:08:57.133Z,0.0403,-1.0050,0.0196,-0.1047,0.0791,0.1082,0.0010,-0.1031,-0.0091,-3.0481,1.5296,2.5705
2024-10-11T14:08:57.143Z,0.0311,-1.0079,0.0218,-0.1047,0.0791,0.1082,0.0033,-0.1024,-0.0109,-3.0481,1.5296,2.5705
2024-10-11T14:08:57.153Z,0.0293,-1.0046,0.0200,-0.0655,0.0532,0.1448,0.0062,-0.1013,-0.0099,-3.0456,1.5294,2.5647
2024-10-11T14:08:57.163Z,0.0415,-1.0008,0.0183,-0.0655,0.0532,0.1448,0.0071,-0.1003,-0.0063,-3.0456,1.5294,2.5647
2024-10-11T14:08:57.173Z,0.0439,-0.9965,0.0145,-0.0655,0.0532,0.1448,0.0105,-0.1018,-0.0051,-3.0456,1.5294,2.5647
2024-10-11T14:08:57.182Z,0.0305,-0.9941,0.0115,-0.0749,-0.0489,0.2310,0.0132,-0.1003,-0.0046,-3.0479,1.5290,2.5638
2024-10-11T14:08:57.193Z,0.0302,-0.9949,0.0175,-0.0749,-0.0489,0.2310,0.0181,-0.1030,-0.0049,-3.0479,1.5290,2.5638
2024-10-11T14:08:57.203Z,0.0437,-0.9976,0.0188,-0.0749,-0.0489,0.2310,0.0171,-0.0981,-0.0023,-3.0479,1.5290,2.5638
2024-10-11T14:08:57.215Z,0.0493,-0.9958,0.0252,-0.2590,-0.0328,0.1012,0.0218,-0.1018,0.0019,-3.0555,1.5285,2.5681
2024-10-11T14:08:57.223Z,0.0324,-0.9959,0.0236,-0.2590,-0.0328,0.1012,0.0224,-0.0991,0.0005,-3.0555,1.5285,2.5681
2024-10-11T14:08:57.232Z,0.0289,-0.9958,0.0292,-0.2590,-0.0328,0.1012,0.0215,-0.0970,0.0024,-3.0555,1.5285,2.5681
2024-10-11T14:08:57.243Z,0.0401,-0.9947,0.0330,-0.1690,-0.0431,0.0301,0.0208,-0.0928,0.0057,-3.0662,1.5281,2.5756
2024-10-11T14:08:57.253Z,0.0431,-0.9967,0.0309,-0.1690,-0.0431,0.0301,0.0201,-0.0932,0.0056,-3.0662,1.5281,2.5756
2024-10-11T14:08:57.263Z,0.0320,-0.9991,0.0327,-0.1690,-0.0431,0.0301,0.0262,-0.0976,0.0068,-3.0662,1.5281,2.5756
2024-10-11T14:08:57.273Z,0.0242,-0.9993,0.0338,-0.0142,0.0018,0.0285,0.0232,-0.0941,0.0108,-3.0801,1.5276,2.5865
2024-10-11T14:08:57.282Z,0.0290,-0.9915,0.0417,-0.0142,0.0018,0.0285,0.0226,-0.0956,0.0082,-3.0801,1.5276,2.5865
2024-10-11T14:08:57.293Z,0.0225,-0.9889,0.0455,-0.0142,0.0018,0.0285,0.0237,-0.0919,0.0089,-3.0801,1.5276,2.5865
2024-10-11T14:08:57.303Z,0.0169,-0.9893,0.0440,0.0552,-0.0961,-0.0657,0.0202,-0.0919,0.0087,-3.0939,1.5272,2.5972
2024-10-11T14:08:57.313Z,0.0089,-0.9929,0.0386,0.0552,-0.0961,-0.0657,0.0249,-0.0913,0.0071,-3.0939,1.5272,2.5972
2024-10-11T14:08:57.323Z,0.0138,-0.9974,0.0407,0.0552,-0.0961,-0.0657,0.0220,-0.0928,0.0064,-3.0939,1.5272,2.5972
2024-10-11T14:08:57.333Z,0.0281,-0.9960,0.0496,-0.0554,-0.0292,-0.1153,0.0222,-0.0968,0.0033,-3.1056,1.5267,2.6058
2024-10-11T14:08:57.343Z,0.0119,-0.9960,0.0505,-0.0554,-0.0292,-0.1153,0.0214,-0.0992,0.0032,-3.1056,1.5267,2.6058
2024-10-11T14:08:57.353Z,-0.0014,-0.9997,0.0433,-0.0554,-0.0292,-0.1153,0.0199,-0.0982,0.0028,-3.1056,1.5267,2.6058
2024-10-11T14:08:57.363Z,0.0172,-1.0034,0.0423,0.0522,0.0432,-0.0368,0.0266,-0.1008,0.0026,-3.1155,1.5262,2.6126
2024-10-11T14:08:57.373Z,0.0280,-0.9999,0.0342,0.0522,0.0432,-0.0368,0.0250,-0.1034,0.0022,-3.1155,1.5262,2.6126
2024-10-11T14:08:57.382Z,0.0148,-0.9935,0.0288,0.0522,0.0432,-0.0368,0.0267,-0.0995,0.0026,-3.1155,1.5262,2.6126
2024-10-11T14:08:57.393Z,0.0100,-0.9899,0.0315,0.1231,-0.0886,0.0761,0.0251,-0.0975,0.0012,-3.1259,1.5255,2.6196
2024-10-11T14:08:57.403Z,0.0191,-0.9891,0.0385,0.1231,-0.0886,0.0761,0.0279,-0.0975,0.0002,-3.1259,1.5255,2.6196
2024-10-11T14:08:57.413Z,0.0211,-0.9884,0.0392,0.1231,-0.0886,0.0761,0.0264,-0.0969,0.0028,-3.1259,1.5255,2.6196
2024-10-11T14:08:57.423Z,0.0092,-0.9891,0.0297,0.1315,-0.0964,0.1005,0.0264,-0.0948,0.0029,-3.1358,1.5248,2.6264
2024-10-11T14:08:57.432Z,0.0061,-0.9907,0.0296,0.1315,-0.0964,0.1005,0.0310,-0.0921,0.0019,-3.1358,1.5248,2.6264
2024-10-11T14:08:57.443Z,0.0199,-0.9884,0.0315,0.1315,-0.0964,0.1005,0.0264,-0.0922,-0.0000,-3.1358,1.5248,2.6264
2024-10-11T14:08:57.453Z,0.0205,-0.9856,0.0342,0.0214,-0.1309,0.0640,0.0271,-0.0886,0.0041,3.1370,1.5241,2.6338
2024-10-11T14:08:57.465Z,0.0052,-0.9873,0.0340,0.0214,-0.1309,0.0640,0.0277,-0.0906,0.0017,3.1370,1.5241,2.6338
2024-10-11T14:08:57.473Z,-0.0038,-0.9925,0.0311,0.0214,-0.1309,0.0640,0.0302,-0.0920,0.0031,3.1370,1.5241,2.6338
2024-10-11T14:08:57.483Z,0.0086,-0.9938,0.0343,0.1390,-0.0502,0.0714,0.0275,-0.0866,0.0028,3.1267,1.5234,2.6411
2024-10-11T14:08:57.493Z,0.0070,-0.9963,0.0365,0.1390,-0.0502,0.0714,0.0267,-0.0851,0.0014,3.1267,1.5234,2.6411
2024-10-11T14:08:57.503Z,-0.0086,-0.9986,0.0366,0.1390,-0.0502,0.0714,0.0290,-0.0776,-0.0012,3.1267,1.5234,2.6411
2024-10-11T14:08:57.513Z,-0.0067,-0.9979,0.0392,0.2898,-0.0091,0.0308,0.0309,-0.0726,-0.0016,3.1172,1.5227,2.6480
2024-10-11T14:08:57.523Z,0.0012,-1.0009,0.0406,0.2898,-0.0091,0.0308,0.0265,-0.0692,0.0005,3.1172,1.5227,2.6480
2024-10-11T14:08:57.533Z,-0.0000,-1.0026,0.0502,0.2898,-0.0091,0.0308,0.0237,-0.0660,-0.0010,3.1172,1.5227,2.6480
2024-10-11T14:08:57.543Z,-0.0087,-1.0027,0.0474,0.3095,0.0385,-0.0424,0.0248,-0.0604,0.0017,3.1088,1.5220,2.6543
2024-10-11T14:08:57.553Z,-0.0029,-1.0028,0.0520,0.3095,0.0385,-0.0424,0.0240,-0.0522,0.0027,3.1088,1.5220,2.6543
2024-10-11T14:08:57.563Z,0.0078,-0.9988,0.0492,0.3095,0.0385,-0.0424,0.0223,-0.0465,0.0019,3.1088,1.5220,2.6543
2024-10-11T14:08:57.573Z,0.0027,-1.0000,0.0422,0.1970,0.0117,0.0152,0.0234,-0.0373,0.0023,3.1006,1.5214,2.6608
2024-10-11T14:08:57.582Z,0.0028,-0.9994,0.0469,0.1970,0.0117,0.0152,0.0211,-0.0301,0.0070,3.1006,1.5214,2.6608
2024-10-11T14:08:57.593Z,0.0030,-0.9983,0.0520,0.1970,0.0117,0.0152,0.0179,-0.0208,0.0048,3.1006,1.5214,2.6608
2024-10-11T14:08:57.603Z,-0.0126,-1.0013,0.0565,0.3464,0.0251,-0.1191,0.0200,-0.0181,0.0061,3.0913,1.5209,2.6692
2024-10-11T14:08:57.614Z,-0.0185,-1.0015,0.0623,0.3464,0.0251,-0.1191,0.0159,-0.0137,0.0066,3.0913,1.5209,2.6692
2024-10-11T14:08:57.623Z,-0.0102,-1.0023,0.0602,0.3464,0.0251,-0.1191,0.0126,-0.0075,0.0008,3.0913,1.5209,2.6692
2024-10-11T14:08:57.633Z,-0.0032,-1.0022,0.0600,0.2524,0.0342,-0.1491,0.0140,-0.0033,0.0013,3.0852,1.5206,2.6748
2024-10-11T14:08:57.643Z,-0.0039,-1.0033,0.0586,0.2524,0.0342,-0.1491,0.0090,-0.0002,0.0032,3.0852,1.5206,2.6748
2024-10-11T14:08:57.653Z,-0.0072,-0.9994,0.0595,0.2524,0.0342,-0.1491,0.0077,0.0114,0.0011,3.0852,1.5206,2.6748
2024-10-11T14:08:57.663Z,0.0038,-0.9984,0.0599,0.1830,-0.0029,-0.1468,0.0041,0.0203,0.0007,3.0822,1.5205,2.6779
2024-10-11T14:08:57.674Z,0.0112,-0.9966,0.0545,0.1830,-0.0029,-0.1468,-0.0003,0.0338,0.0038,3.0822,1.5205,2.6779
2024-10-11T14:08:57.683Z,0.0122,-0.9958,0.0571,0.1830,-0.0029,-0.1468,-0.0003,0.0338,0.0038,3.0822,1.5205,2.6779
2024-10-11T14:08:57.693Z,0.0103,-0.9969,0.0550,0.1160,-0.0182,-0.0978,-0.0032,0.0419,0.0089,3.0766,1.5206,2.6843
2024-10-11T14:08:57.703Z,0.0052,-1.0001,0.0526,0.1160,-0.0182,-0.0978,-0.0030,0.0457,0.0073,3.0766,1.5206,2.6843
2024-10-11T14:08:57.713Z,0.0054,-1.0013,0.0570,0.1160,-0.0182,-0.0978,-0.0019,0.0509,0.0077,3.0766,1.5206,2.6843
2024-10-11T14:08:57.724Z,0.0010,-1.0049,0.0576,0.2035,0.0608,-0.1229,-0.0006,0.0558,0.0103,3.0711,1.5207,2.6911
2024-10-11T14:08:57.733Z,-0.0002,-1.0105,0.0592,0.2035,0.0608,-0.1229,-0.0006,0.0558,0.0103,3.0711,1.5207,2.6911
2024-10-11T14:08:57.744Z,-0.0047,-1.0087,0.0518,0.2035,0.0608,-0.1229,-0.0051,0.0603,0.0037,3.0711,1.5207,2.6911
2024-10-11T14:08:57.754Z,-0.0105,-1.0095,0.0483,0.3132,0.1050,-0.0320,-0.0110,0.0685,0.0046,3.0673,1.5209,2.6964
2024-10-11T14:08:57.763Z,0.0004,-1.0051,0.0516,0.3132,0.1050,-0.0320,-0.0110,0.0685,0.0046,3.0673,1.5209,2.6964
2024-10-11T14:08:57.774Z,0.0078,-1.0029,0.0473,0.3132,0.1050,-0.0320,-0.0113,0.0798,0.0040,3.0673,1.5209,2.6964
2024-10-11T14:08:57.784Z,-0.0023,-1.0054,0.0432,0.2299,0.0647,0.0157,-0.0104,0.0879,0.0044,3.0655,1.5212,2.7001
2024-10-11T14:08:57.793Z,-0.0028,-1.0112,0.0412,0.2299,0.0647,0.0157,-0.0117,0.0939,0.0054,3.0655,1.5212,2.7001
2024-10-11T14:08:57.804Z,0.0056,-1.0080,0.0553,0.2299,0.0647,0.0157,-0.0152,0.0912,0.0060,3.0655,1.5212,2.7001
2024-10-11T14:08:57.814Z,0.0043,-1.0054,0.0651,0.1618,0.0652,-0.2017,-0.0152,0.0912,0.0060,3.0638,1.5216,2.7043
2024-10-11T14:08:57.822Z,0.0005,-1.0078,0.0689,0.1618,0.0652,-0.2017,-0.0145,0.0973,0.0038,3.0638,1.5216,2.7043
2024-10-11T14:08:57.833Z,-0.0085,-1.0100,0.0679,0.1618,0.0652,-0.2017,-0.0218,0.1062,0.0021,3.0638,1.5216,2.7043
2024-10-11T14:08:57.843Z,-0.0002,-1.0124,0.0707,0.2039,0.1336,-0.2613,-0.0229,0.1059,0.0023,3.0664,1.5221,2.7045
2024-10-11T14:08:57.853Z,0.0066,-1.0145,0.0658,0.2039,0.1336,-0.2613,-0.0244,0.1092,0.0012,3.0664,1.5221,2.7045
2024-10-11T14:08:57.863Z,0.0008,-1.0157,0.0594,0.2039,0.1336,-0.2613,-0.0244,0.1092,0.0012,3.0664,1.5221,2.7045
2024-10-11T14:08:57.873Z,-0.0013,-1.0152,0.0492,0.2134,0.1604,-0.0568,-0.0262,0.1130,-0.0028,3.0719,1.5228,2.7021
2024-10-11T14:08:57.884Z,0.0021,-1.0150,0.0540,0.2134,0.1604,-0.0568,-0.0289,0.1129,0.0001,3.0719,1.5228,2.7021
2024-10-11T14:08:57.894Z,0.0079,-1.0143,0.0548,0.2134,0.1604,-0.0568,-0.0310,0.1206,0.0001,3.0719,1.5228,2.7021
2024-10-11T14:08:57.903Z,0.0082,-1.0152,0.0446,0.1180,0.1596,-0.0198,-0.0310,0.1206,0.0001,3.0795,1.5236,2.6977
2024-10-11T14:08:57.914Z,0.0095,-1.0147,0.0377,0.1180,0.1596,-0.0198,-0.0302,0.1226,-0.0014,3.0795,1.5236,2.6977
2024-10-11T14:08:57.924Z,0.0104,-1.0134,0.0368,0.1180,0.1596,-0.0198,-0.0307,0.1248,0.0013,3.0795,1.5236,2.6977
2024-10-11T14:08:57.934Z,0.0180,-1.0106,0.0471,0.0196,0.1146,-0.0526,-0.0284,0.1230,0.0014,3.0864,1.5245,2.6943
2024-10-11T14:08:57.944Z,0.0190,-1.0078,0.0348,0.0196,0.1146,-0.0526,-0.0291,0.1272,0.0036,3.0864,1.5245,2.6943
2024-10-11T14:08:57.954Z,0.0140,-1.0083,0.0341,0.0196,0.1146,-0.0526,-0.0274,0.1344,0.0054,3.0864,1.5245,2.6943
2024-10-11T14:08:57.964Z,0.0136,-1.0042,0.0401,0.0591,0.0516,0.0086,-0.0274,0.1344,0.0054,3.0903,1.5253,2.6941
2024-10-11T14:08:57.973Z,0.0275,-0.9993,0.0436,0.0591,0.0516,0.0086,-0.0298,0.1397,0.0085,3.0903,1.5253,2.6941
2024-10-11T14:08:57.982Z,0.0250,-0.9925,0.0390,0.0591,0.0516,0.0086,-0.0298,0.1397,0.0085,3.0903,1.5253,2.6941
2024-10-11T14:08:57.993Z,0.0114,-0.9889,0.0393,0.0768,-0.0991,0.0090,-0.0267,0.1431,0.0074,3.0927,1.5262,2.6955
2024-10-11T14:08:58.003Z,0.0137,-0.9891,0.0460,0.0768,-0.0991,0.0090,-0.0300,0.1441,0.0097,3.0927,1.5262,2.6955
2024-10-11T14:08:58.013Z,0.0251,-0.9873,0.0526,0.0768,-0.0991,0.0090,-0.0300,0.1441,0.0097,3.0927,1.5262,2.6955
2024-10-11T14:08:58.023Z,0.0252,-0.9843,0.0524,-0.0629,-0.1445,-0.1270,-0.0293,0.1459,0.0081,3.0947,1.5271,2.6975
2024-10-11T14:08:58.033Z,0.0049,-0.9835,0.0501,-0.0629,-0.1445,-0.1270,-0.0310,0.1475,0.0029,3.0947,1.5271,2.6975
2024-10-11T14:08:58.043Z,0.0031,-0.9840,0.0498,-0.0629,-0.1445,-0.1270,-0.0301,0.1396,0.0035,3.0947,1.5271,2.6975
2024-10-11T14:08:58.053Z,0.0104,-0.9803,0.0482,0.0791,-0.1845,-0.0938,-0.0289,0.1345,-0.0016,3.1006,1.5280,2.6957
2024-10-11T14:08:58.064Z,0.0098,-0.9772,0.0521,0.0791,-0.1845,-0.0938,-0.0321,0.1308,-0.0032,3.1006,1.5280,2.6957
2024-10-11T14:08:58.073Z,0.0056,-0.9747,0.0490,0.0791,-0.1845,-0.0938,-0.0289,0.1235,-0.0029,3.1006,1.5280,2.6957
2024-10-11T14:08:58.083Z,0.0082,-0.9737,0.0563,0.0997,-0.2492,-0.1812,-0.0289,0.1235,-0.0029,3.1108,1.5287,2.6891
2024-10-11T14:08:58.093Z,0.0147,-0.9726,0.0530,0.0997,-0.2492,-0.1812,-0.0303,0.1190,-0.0065,3.1108,1.5287,2.6891
2024-10-11T14:08:58.103Z,0.0145,-0.9762,0.0513,0.0997,-0.2492,-0.1812,-0.0304,0.1150,-0.0077,3.1108,1.5287,2.6891
2024-10-11T14:08:58.114Z,0.0138,-0.9766,0.0516,0.0452,-0.2211,-0.1430,-0.0256,0.1112,-0.0103,3.1231,1.5294,2.6801
2024-10-11T14:08:58.123Z,0.0143,-0.9794,0.0423,0.0452,-0.2211,-0.1430,-0.0248,0.1086,-0.0122,3.1231,1.5294,2.6801
2024-10-11T14:08:58.134Z,0.0164,-0.9803,0.0465,0.0452,-0.2211,-0.1430,-0.0192,0.1015,-0.0095,3.1231,1.5294,2.6801
2024-10-11T14:08:58.143Z,0.0246,-0.9767,0.0488,-0.0586,-0.2207,-0.1208,-0.0199,0.0955,-0.0107,3.1362,1.5299,2.6699
2024-10-11T14:08:58.153Z,0.0273,-0.9737,0.0464,-0.0586,-0.2207,-0.1208,-0.0179,0.0910,-0.0109,3.1362,1.5299,2.6699
2024-10-11T14:08:58.165Z,0.0132,-0.9730,0.0378,-0.0586,-0.2207,-0.1208,-0.0146,0.0910,-0.0153,3.1362,1.5299,2.6699
2024-10-11T14:08:58.172Z,0.0141,-0.9750,0.0327,0.0467,-0.2368,0.0324,-0.0119,0.0858,-0.0152,-3.1337,1.5302,2.6591
2024-10-11T14:08:58.183Z,0.0238,-0.9742,0.0355,0.0467,-0.2368,0.0324,-0.0119,0.0789,-0.0137,-3.1337,1.5302,2.6591
2024-10-11T14:08:58.193Z,0.0270,-0.9758,0.0375,0.0467,-0.2368,0.0324,-0.0097,0.0659,-0.0162,-3.1337,1.5302,2.6591
2024-10-11T14:08:58.203Z,0.0226,-0.9815,0.0349,-0.0336,-0.1737,0.0078,-0.0083,0.0642,-0.0142,-3.1213,1.5303,2.6486
2024-10-11T14:08:58.214Z,0.0207,-0.9899,0.0394,-0.0336,-0.1737,0.0078,-0.0079,0.0546,-0.0137,-3.1213,1.5303,2.6486
2024-10-11T14:08:58.223Z,0.0244,-0.9917,0.0369,-0.0336,-0.1737,0.0078,-0.0072,0.0472,-0.0160,-3.1213,1.5303,2.6486
2024-10-11T14:08:58.233Z,0.0237,-0.9940,0.0384,-0.0412,-0.0503,-0.0283,-0.0015,0.0357,-0.0147,-3.1104,1.5302,2.6390
2024-10-11T14:08:58.243Z,0.0185,-0.9945,0.0411,-0.0412,-0.0503,-0.0283,-0.0040,0.0306,-0.0145,-3.1104,1.5302,2.6390
2024-10-11T14:08:58.253Z,0.0175,-0.9965,0.0472,-0.0412,-0.0503,-0.0283,-0.0043,0.0280,-0.0155,-3.1104,1.5302,2.6390
2024-10-11T14:08:58.264Z,0.0258,-0.9941,0.0530,-0.0577,-0.0493,-0.1712,-0.0023,0.0197,-0.0150,-3.1007,1.5301,2.6300
2024-10-11T14:08:58.273Z,0.0294,-0.9910,0.0474,-0.0577,-0.0493,-0.1712,-0.0045,0.0178,-0.0172,-3.1007,1.5301,2.6300
2024-10-11T14:08:58.283Z,0.0161,-0.9889,0.0399,-0.0577,-0.0493,-0.1712,-0.0024,0.0092,-0.0135,-3.1007,1.5301,2.6300
2024-10-11T14:08:58.293Z,0.0154,-0.9888,0.0325,0.0484,-0.1018,0.0292,0.0006,0.0044,-0.0135,-3.0912,1.5299,2.6206
2024-10-11T14:08:58.303Z,0.0314,-0.9930,0.0361,0.0484,-0.1018,0.0292,0.0031,-0.0021,-0.0112,-3.0912,1.5299,2.6206
2024-10-11T14:08:58.314Z,0.0366,-0.9961,0.0323,0.0484,-0.1018,0.0292,0.0031,-0.0038,-0.0109,-3.0912,1.5299,2.6206
2024-10-11T14:08:58.322Z,0.0246,-1.0020,0.0217,-0.0383,0.0275,0.1363,0.0031,-0.0038,-0.0109,-3.0864,1.5296,2.6155
2024-10-11T14:08:58.333Z,0.0125,-1.0036,0.0293,-0.0383,0.0275,0.1363,0.0067,-0.0181,-0.0074,-3.0864,1.5296,2.6155
2024-10-11T14:08:58.343Z,0.0218,-1.0081,0.0344,-0.0383,0.0275,0.1363,0.0060,-0.0224,-0.0091,-3.0864,1.5296,2.6155
2024-10-11T14:08:58.353Z,0.0264,-1.0089,0.0335,-0.0532,0.0962,0.0232,0.0103,-0.0282,-0.0087,-3.0843,1.5292,2.6127
2024-10-11T14:08:58.365Z,0.0170,-1.0125,0.0285,-0.0532,0.0962,0.0232,0.0111,-0.0320,-0.0078,-3.0843,1.5292,2.6127
2024-10-11T14:08:58.372Z,0.0173,-1.0194,0.0316,-0.0532,0.0962,0.0232,0.0108,-0.0311,-0.0071,-3.0843,1.5292,2.6127
2024-10-11T14:08:58.383Z,0.0287,-1.0199,0.0314,-0.0738,0.2043,0.0464,0.0134,-0.0350,-0.0057,-3.0840,1.5289,2.6113
2024-10-11T14:08:58.393Z,0.0326,-1.0184,0.0253,-0.0738,0.2043,0.0464,0.0109,-0.0363,-0.0036,-3.0840,1.5289,2.6113
2024-10-11T14:08:58.403Z,0.0338,-1.0146,0.0287,-0.0738,0.2043,0.0464,0.0127,-0.0382,0.0017,-3.0840,1.5289,2.6113
2024-10-11T14:08:58.413Z,0.0374,-1.0114,0.0340,-0.1585,0.1210,0.0243,0.0108,-0.0401,0.0040,-3.0871,1.5286,2.6131
2024-10-11T14:08:58.423Z,0.0374,-1.0088,0.0359,-0.1585,0.1210,0.0243,0.0091,-0.0422,0.0052,-3.0871,1.5286,2.6131
2024-10-11T14:08:58.433Z,0.0309,-1.0105,0.0359,-0.1585,0.1210,0.0243,0.0087,-0.0410,0.0098,-3.0871,1.5286,2.6131
2024-10-11T14:08:58.443Z,0.0336,-1.0109,0.0369,-0.1218,0.1155,-0.0019,0.0097,-0.0477,0.0087,-3.0945,1.5284,2.6190
2024-10-11T14:08:58.453Z,0.0319,-1.0045,0.0392,-0.1218,0.1155,-0.0019,0.0083,-0.0494,0.0100,-3.0945,1.5284,2.6190
2024-10-11T14:08:58.463Z,0.0123,-1.0013,0.0377,-0.1218,0.1155,-0.0019,0.0087,-0.0474,0.0090,-3.0945,1.5284,2.6190
2024-10-11T14:08:58.473Z,0.0105,-1.0046,0.0293,0.1020,0.0542,0.0745,0.0119,-0.0525,0.0095,-3.1032,1.5283,2.6260
2024-10-11T14:08:58.483Z,0.0201,-1.0060,0.0310,0.1020,0.0542,0.0745,0.0139,-0.0548,0.0096,-3.1032,1.5283,2.6260
2024-10-11T14:08:58.493Z,0.0259,-1.0033,0.0348,0.1020,0.0542,0.0745,0.0142,-0.0596,0.0107,-3.1032,1.5283,2.6260
2024-10-11T14:08:58.502Z,0.0221,-1.0006,0.0336,-0.0134,0.0151,0.0361,0.0142,-0.0596,0.0107,-3.1142,1.5281,2.6349
2024-10-11T14:08:58.513Z,0.0219,-0.9976,0.0325,-0.0134,0.0151,0.0361,0.0175,-0.0582,0.0130,-3.1142,1.5281,2.6349
2024-10-11T14:08:58.523Z,0.0288,-0.9944,0.0300,-0.0134,0.0151,0.0361,0.0139,-0.0519,0.0129,-3.1142,1.5281,2.6349
2024-10-11T14:08:58.532Z,0.0312,-0.9925,0.0358,-0.1058,-0.0642,0.0194,0.0139,-0.0519,0.0129,-3.1275,1.5279,2.6465
2024-10-11T14:08:58.543Z,0.0279,-0.9934,0.0349,-0.1058,-0.0642,0.0194,0.0134,-0.0495,0.0140,-3.1275,1.5279,2.6465
2024-10-11T14:08:58.553Z,0.0189,-0.9940,0.0345,-0.1058,-0.0642,0.0194,0.0146,-0.0521,0.0136,-3.1275,1.5279,2.6465
2024-10-11T14:08:58.563Z,0.0153,-0.9956,0.0394,0.0462,-0.0339,-0.0122,0.0147,-0.0473,0.0142,3.1414,1.5277,2.6590
2024-10-11T14:08:58.573Z,0.0078,-0.9967,0.0418,0.0462,-0.0339,-0.0122,0.0139,-0.0494,0.0115,3.1414,1.5277,2.6590
2024-10-11T14:08:58.583Z,0.0032,-0.9939,0.0424,0.0462,-0.0339,-0.0122,0.0183,-0.0483,0.0092,3.1414,1.5277,2.6590
2024-10-11T14:08:58.593Z,-0.0080,-0.9930,0.0329,0.2718,-0.0598,0.0563,0.0166,-0.0464,0.0067,3.1290,1.5274,2.6696
2024-10-11T14:08:58.603Z,-0.0049,-0.9952,0.0404,0.2718,-0.0598,0.0563,0.0145,-0.0460,0.0058,3.1290,1.5274,2.6696
2024-10-11T14:08:58.613Z,0.0043,-0.9929,0.0486,0.2718,-0.0598,0.0563,0.0162,-0.0489,0.0020,3.1290,1.5274,2.6696
2024-10-11T14:08:58.623Z,0.0134,-0.9951,0.0545,0.0614,-0.0382,-0.1510,0.0196,-0.0451,-0.0007,3.1206,1.5270,2.6763
2024-10-11T14:08:58.633Z,-0.0046,-1.0038,0.0418,0.0614,-0.0382,-0.1510,0.0204,-0.0454,-0.0006,3.1206,1.5270,2.6763
2024-10-11T14:08:58.643Z,-0.0033,-1.0060,0.0429,0.0614,-0.0382,-0.1510,0.0197,-0.0401,-0.0024,3.1206,1.5270,2.6763
2024-10-11T14:08:58.653Z,0.0134,-0.9997,0.0483,0.0622,0.0063,-0.0847,0.0224,-0.0396,-0.0014,3.1147,1.5265,2.6807
2024-10-11T14:08:58.663Z,0.0184,-0.9938,0.0442,0.0622,0.0063,-0.0847,0.0227,-0.0360,-0.0019,3.1147,1.5265,2.6807
2024-10-11T14:08:58.673Z,0.0104,-0.9898,0.0416,0.0622,0.0063,-0.0847,0.0192,-0.0286,-0.0016,3.1147,1.5265,2.6807
2024-10-11T14:08:58.683Z,0.0047,-0.9896,0.0443,0.1484,-0.0923,-0.0387,0.0213,-0.0309,-0.0023,3.1086,1.5258,2.6855
2024-10-11T14:08:58.693Z,0.0122,-0.9882,0.0483,0.1484,-0.0923,-0.0387,0.0218,-0.0292,-0.0020,3.1086,1.5258,2.6855
2024-10-11T14:08:58.703Z,0.0222,-0.9916,0.0482,0.1484,-0.0923,-0.0387,0.0250,-0.0304,0.0000,3.1086,1.5258,2.6855
2024-10-11T14:08:58.713Z,0.0189,-0.9944,0.0499,0.0086,-0.0446,-0.0866,0.0290,-0.0242,0.0028,3.1006,1.5252,2.6923
2024-10-11T14:08:58.722Z,0.0136,-1.0002,0.0426,0.0086,-0.0446,-0.0866,0.0266,-0.0225,0.0027,3.1006,1.5252,2.6923
2024-10-11T14:08:58.733Z,0.0176,-1.0018,0.0468,0.0086,-0.0446,-0.0866,0.0280,-0.0182,0.0022,3.1006,1.5252,2.6923
2024-10-11T14:08:58.743Z,0.0128,-1.0025,0.0433,0.0681,0.0354,-0.0139,0.0300,-0.0147,0.0050,3.0910,1.5245,2.7012
2024-10-11T14:08:58.753Z,0.0108,-1.0001,0.0549,0.0681,0.0354,-0.0139,0.0279,-0.0167,0.0023,3.0910,1.5245,2.7012
2024-10-11T14:08:58.763Z,0.0095,-1.0000,0.0495,0.0681,0.0354,-0.0139,0.0274,-0.0146,0.0002,3.0910,1.5245,2.7012
2024-10-11T14:08:58.773Z,0.0035,-1.0029,0.0554,0.1585,0.0393,-0.1240,0.0275,-0.0134,-0.0004,3.0810,1.5237,2.7104
2024-10-11T14:08:58.783Z,0.0054,-1.0055,0.0625,0.1585,0.0393,-0.1240,0.0268,-0.0107,-0.0016,3.0810,1.5237,2.7104
2024-10-11T14:08:58.793Z,0.0048,-1.0080,0.0577,0.1585,0.0393,-0.1240,0.0241,-0.0094,-0.0010,3.0810,1.5237,2.7104
2024-10-11T14:08:58.803Z,0.0025,-1.0078,0.0639,0.1690,0.0874,-0.2000,0.0241,-0.0100,-0.0007,3.0737,1.5230,2.7170
2024-10-11T14:08:58.813Z,0.0036,-1.0080,0.0602,0.1690,0.0874,-0.2000,0.0237,-0.0041,-0.0005,3.0737,1.5230,2.7170
2024-10-11T14:08:58.823Z,0.0119,-1.0059,0.0725,0.1690,0.0874,-0.2000,0.0205,-0.0041,0.0010,3.0737,1.5230,2.7170
2024-10-11T14:08:58.833Z,0.0176,-1.0067,0.0746,0.0203,0.0771,-0.2979,0.0191,-0.0036,-0.0017,3.0681,1.5224,2.7224
2024-10-11T14:08:58.843Z,0.0107,-1.0040,0.0704,0.0203,0.0771,-0.2979,0.0150,0.0087,-0.0004,3.0681,1.5224,2.7224
2024-10-11T14:08:58.853Z,0.0098,-1.0027,0.0662,0.0203,0.0771,-0.2979,0.0132,0.0174,0.0027,3.0681,1.5224,2.7224
2024-10-11T14:08:58.863Z,0.0154,-1.0038,0.0701,0.0417,0.0487,-0.2499,0.0076,0.0239,0.0039,3.0625,1.5220,2.7280
2024-10-11T14:08:58.873Z,0.0273,-1.0003,0.0745,0.0417,0.0487,-0.2499,0.0080,0.0219,0.0055,3.0625,1.5220,2.7280
2024-10-11T14:08:58.883Z,0.0173,-0.9975,0.0682,0.0417,0.0487,-0.2499,0.0078,0.0273,0.0029,3.0625,1.5220,2.7280
2024-10-11T14:08:58.893Z,0.0051,-1.0010,0.0620,0.1406,0.0217,-0.1664,0.0051,0.0288,0.0039,3.0562,1.5218,2.7348
2024-10-11T14:08:58.903Z,0.0105,-0.9981,0.0635,0.1406,0.0217,-0.1664,0.0074,0.0356,0.0051,3.0562,1.5218,2.7348
2024-10-11T14:08:58.913Z,0.0181,-0.9938,0.0625,0.1406,0.0217,-0.1664,0.0055,0.0407,0.0064,3.0562,1.5218,2.7348
2024-10-11T14:08:58.923Z,0.0175,-0.9918,0.0553,0.0160,-0.0683,-0.0988,0.0015,0.0442,0.0091,3.0502,1.5217,2.7416
2024-10-11T14:08:58.932Z,0.0169,-0.9868,0.0620,0.0160,-0.0683,-0.0988,0.0040,0.0435,0.0096,3.0502,1.5217,2.7416
2024-10-11T14:08:58.943Z,0.0225,-0.9856,0.0542,0.0160,-0.0683,-0.0988,0.0074,0.0422,0.0094,3.0502,1.5217,2.7416
2024-10-11T14:08:58.953Z,0.0155,-0.9854,0.0555,0.0315,-0.1311,-0.0982,0.0069,0.0419,0.0109,3.0424,1.5216,2.7505
2024-10-11T14:08:58.963Z,0.0125,-0.9869,0.0525,0.0315,-0.1311,-0.0982,0.0053,0.0486,0.0100,3.0424,1.5216,2.7505
2024-10-11T14:08:58.973Z,0.0194,-0.9912,0.0547,0.0315,-0.1311,-0.0982,0.0062,0.0504,0.0109,3.0424,1.5216,2.7505
2024-10-11T14:08:58.983Z,0.0201,-0.9948,0.0606,-0.0170,-0.0390,-0.1451,0.0051,0.0520,0.0127,3.0332,1.5215,2.7608
2024-10-11T14:08:58.993Z,0.0154,-1.0024,0.0590,-0.0170,-0.0390,-0.1451,0.0056,0.0482,0.0136,3.0332,1.5215,2.7608
2024-10-11T14:08:59.003Z,0.0191,-1.0073,0.0604,-0.0170,-0.0390,-0.1451,0.0059,0.0476,0.0116,3.0332,1.5215,2.7608
2024-10-11T14:08:59.013Z,0.0170,-1.0128,0.0553,0.0087,0.1374,-0.0906,0.0039,0.0450,0.0088,3.0241,1.5214,2.7711
2024-10-11T14:08:59.022Z,0.0146,-1.0111,0.0606,0.0087,0.1374,-0.0906,0.0010,0.0404,0.0082,3.0241,1.5214,2.7711
2024-10-11T14:08:59.033Z,0.0199,-1.0089,0.0575,0.0087,0.1374,-0.0906,-0.0022,0.0400,0.0054,3.0241,1.5214,2.7711
2024-10-11T14:08:59.043Z,0.0255,-1.0080,0.0562,-0.0771,0.0903,-0.0984,-0.0028,0.0384,0.0074,3.0188,1.5213,2.7774
2024-10-11T14:08:59.053Z,0.0368,-1.0087,0.0529,-0.0771,0.0903,-0.0984,-0.0018,0.0360,0.0074,3.0188,1.5213,2.7774
2024-10-11T14:08:59.063Z,0.0310,-1.0106,0.0547,-0.0771,0.0903,-0.0984,-0.0052,0.0303,0.0058,3.0188,1.5213,2.7774
2024-10-11T14:08:59.073Z,0.0305,-1.0117,0.0606,-0.1284,0.1270,-0.1417,-0.0072,0.0276,0.0046,3.0159,1.5215,2.7810
2024-10-11T14:08:59.083Z,0.0238,-1.0113,0.0640,-0.1284,0.1270,-0.1417,-0.0067,0.0199,0.0020,3.0159,1.5215,2.7810
2024-10-11T14:08:59.093Z,0.0189,-1.0136,0.0680,-0.1284,0.1270,-0.1417,-0.0094,0.0187,0.0020,3.0159,1.5215,2.7810
2024-10-11T14:08:59.103Z,0.0199,-1.0143,0.0704,-0.0261,0.1524,-0.2404,-0.0116,0.0252,0.0020,3.0154,1.5217,2.7819
2024-10-11T14:08:59.113Z,0.0272,-1.0157,0.0721,-0.0261,0.1524,-0.2404,-0.0129,0.0230,0.0052,3.0154,1.5217,2.7819
2024-10-11T14:08:59.123Z,0.0370,-1.0184,0.0604,-0.0261,0.1524,-0.2404,-0.0163,0.0297,0.0050,3.0154,1.5217,2.7819
2024-10-11T14:08:59.133Z,0.0283,-1.0183,0.0607,-0.1093,0.1913,-0.1488,-0.0150,0.0301,0.0035,3.0157,1.5221,2.7821
2024-10-11T14:08:59.143Z,0.0237,-1.0143,0.0580,-0.1093,0.1913,-0.1488,-0.0148,0.0300,0.0029,3.0157,1.5221,2.7821
2024-10-11T14:08:59.153Z,0.0226,-1.0088,0.0532,-0.1093,0.1913,-0.1488,-0.0150,0.0289,0.0034,3.0157,1.5221,2.7821
2024-10-11T14:08:59.163Z,0.0103,-1.0088,0.0477,0.0660,0.0980,-0.0249,-0.0139,0.0301,0.0019,3.0170,1.5225,2.7815
2024-10-11T14:08:59.173Z,0.0084,-1.0108,0.0526,0.0660,0.0980,-0.0249,-0.0202,0.0376,0.0026,3.0170,1.5225,2.7815
2024-10-11T14:08:59.183Z,0.0182,-1.0097,0.0600,0.0660,0.0980,-0.0249,-0.0188,0.0424,0.0005,3.0170,1.5225,2.7815
2024-10-11T14:08:59.193Z,0.0134,-1.0122,0.0521,0.0347,0.1310,-0.0722,-0.0166,0.0438,-0.0009,3.0193,1.5229,2.7800
2024-10-11T14:08:59.203Z,0.0002,-1.0140,0.0499,0.0347,0.1310,-0.0722,-0.0167,0.0434,-0.0001,3.0193,1.5229,2.7800
2024-10-11T14:08:59.213Z,0.0057,-1.0123,0.0527,0.0347,0.1310,-0.0722,-0.0173,0.0454,-0.0007,3.0193,1.5229,2.7800
2024-10-11T14:08:59.223Z,0.0126,-1.0063,0.0577,0.0425,0.0729,-0.1316,-0.0192,0.0483,-0.0022,3.0242,1.5233,2.7763
2024-10-11T14:08:59.234Z,0.0224,-1.0029,0.0531,0.0425,0.0729,-0.1316,-0.0168,0.0586,-0.0006,3.0242,1.5233,2.7763
2024-10-11T14:08:59.244Z,0.0237,-0.9964,0.0490,0.0425,0.0729,-0.1316,-0.0193,0.0693,-0.0016,3.0242,1.5233,2.7763
2024-10-11T14:08:59.253Z,0.0204,-0.9916,0.0431,-0.0343,-0.0720,0.0072,-0.0189,0.0754,0.0024,3.0286,1.5238,2.7735
2024-10-11T14:08:59.263Z,0.0172,-0.9870,0.0473,-0.0343,-0.0720,0.0072,-0.0152,0.0816,0.0046,3.0286,1.5238,2.7735
2024-10-11T14:08:59.273Z,0.0205,-0.9865,0.0494,-0.0343,-0.0720,0.0072,-0.0136,0.0822,-0.0015,3.0286,1.5238,2.7735
2024-10-11T14:08:59.283Z,0.0087,-0.9838,0.0486,0.0781,-0.1485,-0.0523,-0.0147,0.0928,0.0013,3.0307,1.5244,2.7735
2024-10-11T14:08:59.293Z,-0.0013,-0.9844,0.0499,0.0781,-0.1485,-0.0523,-0.0181,0.0984,-0.0022,3.0307,1.5244,2.7735
2024-10-11T14:08:59.302Z,0.0013,-0.9785,0.0514,0.0781,-0.1485,-0.0523,-0.0174,0.0998,-0.0039,3.0307,1.5244,2.7735
2024-10-11T14:08:59.313Z,0.0032,-0.9733,0.0547,0.1313,-0.2520,-0.1158,-0.0196,0.1064,-0.0095,3.0350,1.5248,2.7719
2024-10-11T14:08:59.323Z,-0.0114,-0.9706,0.0545,0.1313,-0.2520,-0.1158,-0.0167,0.1061,-0.0083,3.0350,1.5248,2.7719
2024-10-11T14:08:59.333Z,-0.0016,-0.9718,0.0573,0.1313,-0.2520,-0.1158,-0.0114,0.1049,-0.0108,3.0350,1.5248,2.7719
2024-10-11T14:08:59.343Z,0.0079,-0.9704,0.0599,0.0872,-0.2803,-0.1707,-0.0103,0.1094,-0.0136,3.0438,1.5251,2.7660
2024-10-11T14:08:59.353Z,-0.0033,-0.9727,0.0558,0.0872,-0.2803,-0.1707,-0.0109,0.1138,-0.0166,3.0438,1.5251,2.7660
2024-10-11T14:08:59.363Z,-0.0003,-0.9737,0.0569,0.0872,-0.2803,-0.1707,-0.0099,0.1197,-0.0161,3.0438,1.5251,2.7660
2024-10-11T14:08:59.373Z,0.0093,-0.9746,0.0585,0.0761,-0.2389,-0.1591,-0.0075,0.1169,-0.0183,3.0549,1.5252,2.7580
2024-10-11T14:08:59.383Z,0.0114,-0.9763,0.0585,0.0761,-0.2389,-0.1591,-0.0043,0.1163,-0.0179,3.0549,1.5252,2.7580
2024-10-11T14:08:59.393Z,0.0126,-0.9762,0.0514,0.0761,-0.2389,-0.1591,-0.0020,0.1205,-0.0163,3.0549,1.5252,2.7580
2024-10-11T14:08:59.402Z,0.0197,-0.9805,0.0452,-0.0227,-0.1812,-0.0298,0.0009,0.1230,-0.0175,3.0650,1.5252,2.7512
2024-10-11T14:08:59.413Z,0.0193,-0.9871,0.0427,-0.0227,-0.1812,-0.0298,0.0066,0.1243,-0.0158,3.0650,1.5252,2.7512
2024-10-11T14:08:59.423Z,0.0167,-0.9897,0.0436,-0.0227,-0.1812,-0.0298,0.0104,0.1253,-0.0173,3.0650,1.5252,2.7512
2024-10-11T14:08:59.434Z,0.0232,-0.9903,0.0382,-0.0546,-0.0847,0.0418,0.0129,0.1258,-0.0146,3.0727,1.5248,2.7471
2024-10-11T14:08:59.443Z,0.0270,-0.9893,0.0416,-0.0546,-0.0847,0.0418,0.0152,0.1290,-0.0164,3.0727,1.5248,2.7471
2024-10-11T14:08:59.452Z,0.0261,-0.9875,0.0443,-0.0546,-0.0847,0.0418,0.0210,0.1300,-0.0147,3.0727,1.5248,2.7471
2024-10-11T14:08:59.464Z,0.0097,-0.9912,0.0351,0.0814,-0.0755,0.0776,0.0251,0.1260,-0.0199,3.0777,1.5241,2.7457
2024-10-11T14:08:59.473Z,0.0101,-0.9966,0.0419,0.0814,-0.0755,0.0776,0.0259,0.1233,-0.0178,3.0777,1.5241,2.7457
2024-10-11T14:08:59.483Z,0.0220,-0.9957,0.0527,0.0814,-0.0755,0.0776,0.0284,0.1201,-0.0197,3.0777,1.5241,2.7457
2024-10-11T14:08:59.493Z,0.0195,-1.0005,0.0538,-0.0107,0.0156,-0.0971,0.0292,0.1208,-0.0208,3.0817,1.5232,2.7453
2024-10-11T14:08:59.502Z,0.0038,-0.9962,0.0608,-0.0107,0.0156,-0.0971,0.0275,0.1177,-0.0221,3.0817,1.5232,2.7453
2024-10-11T14:08:59.513Z,0.0140,-0.9938,0.0712,-0.0107,0.0156,-0.0971,0.0289,0.1137,-0.0245,3.0817,1.5232,2.7453
2024-10-11T14:08:59.523Z,0.0165,-0.9924,0.0653,0.0230,-0.0634,-0.2007,0.0251,0.1173,-0.0254,3.0870,1.5222,2.7432
2024-10-11T14:08:59.533Z,0.0099,-0.9965,0.0696,0.0230,-0.0634,-0.2007,0.0296,0.1167,-0.0236,3.0870,1.5222,2.7432
2024-10-11T14:08:59.543Z,0.0214,-1.0017,0.0741,0.0230,-0.0634,-0.2007,0.0305,0.1144,-0.0178,3.0870,1.5222,2.7432
2024-10-11T14:08:59.552Z,0.0389,-1.0032,0.0828,-0.1923,0.0431,-0.3633,0.0291,0.1116,-0.0198,3.0918,1.5211,2.7416
2024-10-11T14:08:59.563Z,0.0297,-1.0007,0.0769,-0.1923,0.0431,-0.3633,0.0279,0.1139,-0.0212,3.0918,1.5211,2.7416
2024-10-11T14:08:59.573Z,0.0172,-1.0020,0.0694,-0.1923,0.0431,-0.3633,0.0289,0.1140,-0.0184,3.0918,1.5211,2.7416
2024-10-11T14:08:59.583Z,0.0208,-1.0021,0.0734,-0.0099,0.0330,-0.2620,0.0305,0.1132,-0.0192,3.0949,1.5201,2.7416
2024-10-11T14:08:59.593Z,0.0242,-1.0062,0.0679,-0.0099,0.0330,-0.2620,0.0299,0.1105,-0.0174,3.0949,1.5201,2.7416
2024-10-11T14:08:59.602Z,0.0276,-1.0098,0.0657,-0.0099,0.0330,-0.2620,0.0315,0.1095,-0.0149,3.0949,1.5201,2.7416
2024-10-11T14:08:59.613Z,0.0309,-1.0129,0.0634,-0.1060,0.1398,-0.1539,0.0314,0.1087,-0.0158,3.0956,1.5190,2.7439
2024-10-11T14:08:59.623Z,0.0272,-1.0167,0.0619,-0.1060,0.1398,-0.1539,0.0358,0.1076,-0.0133,3.0956,1.5190,2.7439
2024-10-11T14:08:59.633Z,0.0260,-1.0156,0.0644,-0.1060,0.1398,-0.1539,0.0347,0.1040,-0.0119,3.0956,1.5190,2.7439
2024-10-11T14:08:59.643Z,0.0255,-1.0123,0.0545,-0.0513,0.1347,-0.0562,0.0315,0.1061,-0.0110,3.0948,1.5179,2.7476
2024-10-11T14:08:59.653Z,0.0256,-1.0071,0.0533,-0.0513,0.1347,-0.0562,0.0348,0.1003,-0.0125,3.0948,1.5179,2.7476
2024-10-11T14:08:59.663Z,0.0254,-0.9990,0.0565,-0.0513,0.1347,-0.0562,0.0320,0.0984,-0.0104,3.0948,1.5179,2.7476
2024-10-11T14:08:59.673Z,0.0303,-0.9992,0.0546,-0.0959,0.0062,-0.0458,0.0314,0.0953,-0.0109,3.0934,1.5168,2.7518
2024-10-11T14:08:59.684Z,0.0329,-0.9934,0.0574,-0.0959,0.0062,-0.0458,0.0326,0.0957,-0.0095,3.0934,1.5168,2.7518
2024-10-11T14:08:59.693Z,0.0363,-0.9913,0.0572,-0.0959,0.0062,-0.0458,0.0340,0.0958,-0.0096,3.0934,1.5168,2.7518
2024-10-11T14:08:59.702Z,0.0330,-0.9935,0.0551,-0.1214,-0.0487,-0.0410,0.0328,0.0975,-0.0086,3.0910,1.5158,2.7569
2024-10-11T14:08:59.713Z,0.0237,-0.9948,0.0562,-0.1214,-0.0487,-0.0410,0.0302,0.1005,-0.0087,3.0910,1.5158,2.7569
2024-10-11T14:08:59.723Z,0.0241,-0.9939,0.0568,-0.1214,-0.0487,-0.0410,0.0329,0.0905,-0.0082,3.0910,1.5158,2.7569
2024-10-11T14:08:59.733Z,0.0374,-0.9885,0.0651,-0.1637,-0.0971,-0.1288,0.0320,0.0852,-0.0072,3.0877,1.5148,2.7626
2024-10-11T14:08:59.743Z,0.0312,-0.9859,0.0607,-0.1637,-0.0971,-0.1288,0.0327,0.0822,-0.0087,3.0877,1.5148,2.7626
2024-10-11T14:08:59.753Z,0.0297,-0.9825,0.0605,-0.1637,-0.0971,-0.1288,0.0373,0.0797,-0.0076,3.0877,1.5148,2.7626
2024-10-11T14:08:59.763Z,0.0351,-0.9766,0.0580,-0.1409,-0.2135,-0.0484,0.0380,0.0794,-0.0078,3.0842,1.5138,2.7685
2024-10-11T14:08:59.773Z,0.0340,-0.9773,0.0504,-0.1409,-0.2135,-0.0484,0.0395,0.0799,-0.0079,3.0842,1.5138,2.7685
2024-10-11T14:08:59.782Z,0.0299,-0.9806,0.0549,-0.1409,-0.2135,-0.0484,0.0385,0.0813,-0.0056,3.0842,1.5138,2.7685
2024-10-11T14:08:59.793Z,0.0415,-0.9806,0.0608,-0.2027,-0.1733,-0.0630,0.0461,0.0711,-0.0050,3.0787,1.5126,2.7761
2024-10-11T14:08:59.803Z,0.0488,-0.9784,0.0670,-0.2027,-0.1733,-0.0630,0.0471,0.0672,-0.0045,3.0787,1.5126,2.7761
2024-10-11T14:08:59.813Z,0.0446,-0.9785,0.0697,-0.2027,-0.1733,-0.0630,0.0495,0.0647,-0.0016,3.0787,1.5126,2.7761
2024-10-11T14:08:59.823Z,0.0384,-0.9795,0.0642,-0.1734,-0.1841,-0.0825,0.0439,0.0687,-0.0012,3.0711,1.5113,2.7855
2024-10-11T14:08:59.833Z,0.0420,-0.9781,0.0691,-0.1734,-0.1841,-0.0825,0.0478,0.0687,-0.0008,3.0711,1.5113,2.7855
2024-10-11T14:08:59.842Z,0.0416,-0.9783,0.0705,-0.1734,-0.1841,-0.0825,0.0498,0.0709,-0.0022,3.0711,1.5113,2.7855
2024-10-11T14:08:59.853Z,0.0383,-0.9838,0.0668,-0.1734,-0.1406,-0.0930,0.0539,0.0703,-0.0024,3.0627,1.5098,2.7956
2024-10-11T14:08:59.862Z,0.0272,-0.9826,0.0630,-0.1734,-0.1406,-0.0930,0.0588,0.0639,-0.0044,3.0627,1.5098,2.7956
2024-10-11T14:08:59.873Z,0.0192,-0.9800,0.0561,-0.1734,-0.1406,-0.0930,0.0616,0.0634,-0.0054,3.0627,1.5098,2.7956
2024-10-11T14:08:59.884Z,0.0161,-0.9841,0.0569,0.0442,-0.1369,0.0216,0.0614,0.0636,-0.0073,3.0544,1.5082,2.8056
2024-10-11T14:08:59.892Z,0.0137,-0.9910,0.0636,0.0442,-0.1369,0.0216,0.0603,0.0671,-0.0073,3.0544,1.5082,2.8056
2024-10-11T14:08:59.903Z,0.0125,-0.9890,0.0642,0.0442,-0.1369,0.0216,0.0602,0.0603,-0.0059,3.0544,1.5082,2.8056
2024-10-11T14:08:59.914Z,0.0185,-0.9972,0.0769,0.0116,-0.0338,-0.1272,0.0627,0.0589,-0.0095,3.0473,1.5063,2.8144
2024-10-11T14:08:59.923Z,0.0185,-0.9972,0.0769,0.0116,-0.0338,-0.1272,0.0601,0.0566,-0.0077,3.0473,1.5063,2.8144
2024-10-11T14:08:59.933Z,0.0208,-1.0015,0.0834,0.0116,-0.0338,-0.1272,0.0604,0.0500,-0.0118,3.0473,1.5063,2.8144
2024-10-11T14:08:59.944Z,0.0452,-1.0063,0.0882,-0.1063,0.0816,-0.2435,0.0583,0.0451,-0.0092,3.0421,1.5045,2.8210
2024-10-11T14:08:59.953Z,0.0452,-1.0063,0.0882,-0.1063,0.0816,-0.2435,0.0550,0.0402,-0.0068,3.0421,1.5045,2.8210
2024-10-11T14:08:59.964Z,0.0458,-1.0053,0.0849,-0.1063,0.0816,-0.2435,0.0531,0.0399,-0.0045,3.0421,1.5045,2.8210
2024-10-11T14:08:59.974Z,0.0424,-1.0025,0.0862,-0.2437,0.0745,-0.2005,0.0511,0.0375,-0.0037,3.0370,1.5029,2.8271
2024-10-11T14:08:59.983Z,0.0424,-1.0025,0.0862,-0.2437,0.0745,-0.2005,0.0483,0.0330,-0.0044,3.0370,1.5029,2.8271
2024-10-11T14:08:59.992Z,0.0341,-0.9993,0.0817,-0.2437,0.0745,-0.2005,0.0407,0.0295,-0.0044,3.0370,1.5029,2.8271
2024-10-11T14:09:00.004Z,0.0314,-0.9959,0.0780,-0.1245,-0.0088,-0.1649,0.0425,0.0241,-0.0025,3.0321,1.5015,2.8326
2024-10-11T14:09:00.014Z,0.0201,-0.9985,0.0656,-0.1245,-0.0088,-0.1649,0.0423,0.0236,-0.0055,3.0321,1.5015,2.8326
2024-10-11T14:09:00.024Z,0.0198,-0.9982,0.0596,-0.1245,-0.0088,-0.1649,0.0369,0.0261,-0.0074,3.0321,1.5015,2.8326
2024-10-11T14:09:00.034Z,0.0198,-0.9982,0.0596,0.0130,0.0071,0.0740,0.0351,0.0223,-0.0086,3.0287,1.5003,2.8364
2024-10-11T14:09:00.044Z,0.0245,-0.9948,0.0593,0.0130,0.0071,0.0740,0.0358,0.0219,-0.0046,3.0287,1.5003,2.8364
2024-10-11T14:09:00.054Z,0.0285,-0.9984,0.0555,0.0130,0.0071,0.0740,0.0344,0.0239,-0.0034,3.0287,1.5003,2.8364
2024-10-11T14:09:00.063Z,0.0313,-1.0007,0.0585,-0.0711,0.0092,0.1258,0.0350,0.0219,-0.0059,3.0259,1.4992,2.8396
2024-10-11T14:09:00.073Z,0.0254,-1.0039,0.0653,-0.0711,0.0092,0.1258,0.0366,0.0250,-0.0075,3.0259,1.4992,2.8396
2024-10-11T14:09:00.086Z,0.0254,-1.0039,0.0653,-0.0288,0.0897,0.0398,0.0338,0.0208,-0.0056,3.0238,1.4981,2.8421
2024-10-11T14:09:00.093Z,0.0272,-1.0046,0.0653,-0.0288,0.0897,0.0398,0.0333,0.0197,-0.0060,3.0238,1.4981,2.8421
2024-10-11T14:09:00.103Z,0.0272,-1.0046,0.0653,-0.0288,0.0897,0.0398,0.0313,0.0218,-0.0041,3.0238,1.4981,2.8421
2024-10-11T14:09:00.113Z,0.0336,-1.0012,0.0707,-0.0288,0.0897,0.0398,0.0312,0.0220,-0.0023,3.0238,1.4981,2.8421
2024-10-11T14:09:00.123Z,0.0349,-0.9934,0.0705,-0.1601,0.0194,-0.0094,0.0289,0.0256,-0.0014,3.0211,1.4972,2.8453
2024-10-11T14:09:00.133Z,0.0349,-0.9934,0.0705,-0.1601,0.0194,-0.0094,0.0290,0.0301,-0.0004,3.0211,1.4972,2.8453
2024-10-11T14:09:00.143Z,0.0210,-0.9836,0.0708,-0.1601,0.0194,-0.0094,0.0305,0.0354,0.0005,3.0211,1.4972,2.8453
2024-10-11T14:09:00.154Z,0.0276,-0.9779,0.0755,0.0043,-0.1339,0.0042,0.0280,0.0350,0.0022,3.0179,1.4964,2.8492
2024-10-11T14:09:00.163Z,0.0238,-0.9797,0.0696,0.0043,-0.1339,0.0042,0.0256,0.0412,0.0024,3.0179,1.4964,2.8492
2024-10-11T14:09:00.173Z,0.0136,-0.9793,0.0713,0.0043,-0.1339,0.0042,0.0231,0.0419,0.0013,3.0179,1.4964,2.8492
2024-10-11T14:09:00.184Z,0.0086,-0.9769,0.0711,0.0755,-0.1752,0.0068,0.0225,0.0439,-0.0002,3.0142,1.4957,2.8537
2024-10-11T14:09:00.194Z,0.0036,-0.9713,0.0799,0.0755,-0.1752,0.0068,0.0195,0.0403,-0.0051,3.0142,1.4957,2.8537
2024-10-11T14:09:00.204Z,0.0050,-0.9693,0.0851,0.0755,-0.1752,0.0068,0.0201,0.0394,-0.0044,3.0142,1.4957,2.8537
2024-10-11T14:09:00.213Z,0.0095,-0.9695,0.0942,0.1602,-0.2732,-0.1220,0.0199,0.0378,-0.0051,3.0134,1.4950,2.8556
2024-10-11T14:09:00.224Z,0.0115,-0.9720,0.0951,0.1602,-0.2732,-0.1220,0.0218,0.0404,-0.0061,3.0134,1.4950,2.8556
2024-10-11T14:09:00.237Z,0.0182,-0.9802,0.0903,0.0323,-0.1654,-0.1669,0.0198,0.0429,-0.0051,3.0133,1.4944,2.8567
2024-10-11T14:09:00.243Z,0.0243,-0.9838,0.0988,0.0323,-0.1654,-0.1669,0.0211,0.0439,-0.0068,3.0133,1.4944,2.8567
2024-10-11T14:09:00.253Z,0.0180,-0.9855,0.0988,0.0323,-0.1654,-0.1669,0.0211,0.0431,-0.0088,3.0133,1.4944,2.8567
2024-10-11T14:09:00.263Z,0.0147,-0.9923,0.0964,0.0323,-0.1654,-0.1669,0.0202,0.0422,-0.0098,3.0133,1.4944,2.8567
2024-10-11T14:09:00.273Z,0.0209,-0.9932,0.1007,0.0674,-0.0460,-0.2206,0.0179,0.0381,-0.0086,3.0139,1.4937,2.8571
2024-10-11T14:09:00.284Z,0.0259,-0.9925,0.1000,0.0674,-0.0460,-0.2206,0.0150,0.0397,-0.0109,3.0139,1.4937,2.8571
2024-10-11T14:09:00.293Z,0.0270,-0.9988,0.0899,0.0674,-0.0460,-0.2206,0.0144,0.0329,-0.0111,3.0139,1.4937,2.8571
2024-10-11T14:09:00.304Z,0.0200,-0.9984,0.0862,-0.0516,0.0177,-0.1518,0.0130,0.0320,-0.0110,3.0147,1.4932,2.8571
2024-10-11T14:09:00.314Z,0.0143,-1.0008,0.0839,-0.0516,0.0177,-0.1518,0.0125,0.0237,-0.0132,3.0147,1.4932,2.8571
2024-10-11T14:09:00.323Z,0.0143,-1.0008,0.0839,-0.0516,0.0177,-0.1518,0.0088,0.0216,-0.0114,3.0147,1.4932,2.8571
2024-10-11T14:09:00.335Z,0.0210,-1.0004,0.0819,0.0499,0.0365,-0.0570,0.0082,0.0164,-0.0126,3.0167,1.4926,2.8556
2024-10-11T14:09:00.343Z,0.0174,-0.9975,0.0883,0.0499,0.0365,-0.0570,0.0061,0.0101,-0.0134,3.0167,1.4926,2.8556
2024-10-11T14:09:00.353Z,0.0150,-0.9972,0.0899,0.0499,0.0365,-0.0570,0.0042,0.0087,-0.0121,3.0167,1.4926,2.8556
2024-10-11T14:09:00.364Z,0.0245,-0.9996,0.0831,0.0717,0.0027,-0.1448,0.0002,0.0057,-0.0111,3.0194,1.4923,2.8530
2024-10-11T14:09:00.373Z,0.0232,-0.9970,0.0762,0.0717,0.0027,-0.1448,-0.0011,0.0014,-0.0117,3.0194,1.4923,2.8530
2024-10-11T14:09:00.386Z,0.0262,-1.0049,0.0707,-0.0353,0.0780,0.0434,-0.0036,0.0013,-0.0107,3.0228,1.4922,2.8495
2024-10-11T14:09:00.393Z,0.0356,-1.0025,0.0646,-0.0353,0.0780,0.0434,-0.0046,-0.0017,-0.0065,3.0228,1.4922,2.8495
2024-10-11T14:09:00.403Z,0.0264,-1.0062,0.0574,-0.0353,0.0780,0.0434,-0.0043,-0.0019,-0.0069,3.0228,1.4922,2.8495
2024-10-11T14:09:00.413Z,0.0220,-1.0070,0.0530,-0.0353,0.0780,0.0434,-0.0064,-0.0003,-0.0071,3.0228,1.4922,2.8495
2024-10-11T14:09:00.423Z,0.0208,-1.0035,0.0452,0.0073,0.0985,0.2161,-0.0036,-0.0041,-0.0073,3.0251,1.4923,2.8469
2024-10-11T14:09:00.434Z,0.0150,-0.9953,0.0396,0.0073,0.0985,0.2161,-0.0028,-0.0027,-0.0038,3.0251,1.4923,2.8469
2024-10-11T14:09:00.444Z,0.0145,-0.9928,0.0472,0.0830,-0.0406,0.2730,-0.0036,-0.0014,-0.0067,3.0267,1.4923,2.8450
2024-10-11T14:09:00.453Z,0.0174,-0.9942,0.0480,0.0830,-0.0406,0.2730,-0.0011,0.0010,-0.0029,3.0267,1.4923,2.8450
2024-10-11T14:09:00.463Z,0.0169,-0.9945,0.0433,0.0830,-0.0406,0.2730,0.0026,0.0044,-0.0023,3.0267,1.4923,2.8450
2024-10-11T14:09:00.473Z,0.0119,-0.9953,0.0373,0.0830,-0.0406,0.2730,0.0051,0.0087,-0.0001,3.0267,1.4923,2.8450
2024-10-11T14:09:00.484Z,0.0167,-0.9958,0.0384,0.1088,-0.0162,0.3709,0.0062,0.0142,0.0016,3.0270,1.4922,2.8445
2024-10-11T14:09:00.492Z,0.0167,-0.9958,0.0437,0.1088,-0.0162,0.3709,0.0108,0.0155,0.0019,3.0270,1.4922,2.8445
2024-10-11T14:09:00.504Z,0.0167,-0.9958,0.0437,0.0656,-0.0001,0.2492,0.0111,0.0195,0.0043,3.0248,1.4920,2.8470
2024-10-11T14:09:00.513Z,0.0199,-0.9966,0.0522,0.0656,-0.0001,0.2492,0.0137,0.0230,0.0065,3.0248,1.4920,2.8470
2024-10-11T14:09:00.523Z,0.0180,-0.9964,0.0513,0.0656,-0.0001,0.2492,0.0144,0.0249,0.0078,3.0248,1.4920,2.8470
2024-10-11T14:09:00.534Z,0.0180,-0.9964,0.0513,0.0539,0.0254,0.2263,0.0161,0.0289,0.0098,3.0203,1.4918,2.8521
