time,gFx,gFy,gFz,ax,ay,az,wx,wy,wz,yaw,pitch,roll
2024-10-11T12:02:28.120Z,-0.0123,-0.9850,0.1532,-0.0450,0.0120,0.1146,-0.0296,0.0045,-0.0090,-2.9691,1.4024,-3.0820
2024-10-11T12:02:28.121Z,-0.0107,-0.9890,0.1499,-0.0450,0.0120,0.1146,-0.0286,0.0047,-0.0080,-2.9691,1.4024,-3.0820
2024-10-11T12:02:28.132Z,-0.0118,-0.9837,0.1506,-0.0450,0.0120,0.1146,-0.0188,0.0056,-0.0078,-2.9691,1.4024,-3.0820
2024-10-11T12:02:28.142Z,-0.0030,-0.9774,0.1516,-0.0450,0.0120,0.1146,-0.0169,0.0054,-0.0088,-2.9691,1.4024,-3.0820
2024-10-11T12:02:28.152Z,-0.0059,-0.9730,0.1517,-0.0586,-0.0913,0.1533,-0.0192,0.0105,-0.0054,-2.9679,1.4030,-3.0832
2024-10-11T12:02:28.162Z,-0.0059,-0.9730,0.1517,-0.0586,-0.0913,0.1533,-0.0200,0.0151,-0.0080,-2.9679,1.4030,-3.0832
2024-10-11T12:02:28.172Z,-0.0057,-0.9696,0.1553,-0.0586,-0.0913,0.1533,-0.0204,0.0179,-0.0037,-2.9679,1.4030,-3.0832
2024-10-11T12:02:28.182Z,-0.0037,-0.9736,0.1526,-0.0339,-0.1578,0.1123,-0.0153,0.0176,-0.0048,-2.9674,1.4036,-3.0836
2024-10-11T12:02:28.192Z,-0.0047,-0.9765,0.1522,-0.0339,-0.1578,0.1123,-0.0184,0.0207,-0.0019,-2.9674,1.4036,-3.0836
2024-10-11T12:02:28.202Z,-0.0074,-0.9709,0.1493,-0.0339,-0.1578,0.1123,-0.0156,0.0188,-0.0033,-2.9674,1.4036,-3.0836
2024-10-11T12:02:28.212Z,-0.0074,-0.9709,0.1493,-0.0325,-0.1759,0.1349,-0.0130,0.0190,-0.0026,-2.9671,1.4041,-3.0836
2024-10-11T12:02:28.222Z,-0.0105,-0.9672,0.1484,-0.0325,-0.1759,0.1349,-0.0129,0.0186,-0.0031,-2.9671,1.4041,-3.0836
2024-10-11T12:02:28.232Z,-0.0111,-0.9671,0.1460,-0.0325,-0.1759,0.1349,-0.0120,0.0206,-0.0010,-2.9671,1.4041,-3.0836
2024-10-11T12:02:28.241Z,-0.0111,-0.9671,0.1460,0.0051,-0.1969,0.1872,-0.0120,0.0206,-0.0010,-2.9671,1.4045,-3.0833
2024-10-11T12:02:28.253Z,-0.0067,-0.9652,0.1387,0.0051,-0.1969,0.1872,-0.0063,0.0210,-0.0008,-2.9671,1.4045,-3.0833
2024-10-11T12:02:28.263Z,-0.0067,-0.9652,0.1387,0.0051,-0.1969,0.1872,-0.0063,0.0232,0.0019,-2.9671,1.4045,-3.0833
2024-10-11T12:02:28.272Z,-0.0033,-0.9647,0.1423,-0.0845,-0.2190,0.2118,-0.0016,0.0225,0.0041,-2.9673,1.4047,-3.0827
2024-10-11T12:02:28.283Z,0.0018,-0.9653,0.1470,-0.0845,-0.2190,0.2118,0.0008,0.0239,0.0024,-2.9673,1.4047,-3.0827
2024-10-11T12:02:28.292Z,-0.0076,-0.9712,0.1475,-0.0845,-0.2190,0.2118,0.0008,0.0239,0.0024,-2.9673,1.4047,-3.0827
2024-10-11T12:02:28.303Z,-0.0145,-0.9799,0.1454,0.0474,-0.0412,0.1893,0.0064,0.0190,0.0028,-2.9679,1.4047,-3.0817
2024-10-11T12:02:28.313Z,-0.0113,-0.9874,0.1483,0.0474,-0.0412,0.1893,0.0064,0.0190,0.0028,-2.9679,1.4047,-3.0817
2024-10-11T12:02:28.322Z,-0.0113,-0.9874,0.1483,0.0474,-0.0412,0.1893,0.0092,0.0219,0.0033,-2.9679,1.4047,-3.0817
2024-10-11T12:02:28.332Z,-0.0102,-0.9884,0.1457,-0.0091,0.0325,0.1992,0.0098,0.0213,0.0038,-2.9687,1.4045,-3.0806
2024-10-11T12:02:28.343Z,-0.0114,-0.9872,0.1501,-0.0091,0.0325,0.1992,0.0119,0.0158,0.0026,-2.9687,1.4045,-3.0806
2024-10-11T12:02:28.352Z,-0.0167,-0.9904,0.1478,-0.0091,0.0325,0.1992,0.0116,0.0157,0.0010,-2.9687,1.4045,-3.0806
2024-10-11T12:02:28.363Z,-0.0237,-0.9932,0.1631,0.1060,0.0866,0.0413,0.0115,0.0174,0.0014,-2.9691,1.4042,-3.0798
2024-10-11T12:02:28.373Z,-0.0237,-0.9932,0.1631,0.1060,0.0866,0.0413,0.0099,0.0159,-0.0009,-2.9691,1.4042,-3.0798
2024-10-11T12:02:28.382Z,-0.0212,-0.9885,0.1718,0.1060,0.0866,0.0413,0.0099,0.0159,-0.0009,-2.9691,1.4042,-3.0798
2024-10-11T12:02:28.393Z,-0.0227,-0.9876,0.1775,0.1122,0.0174,-0.1420,0.0077,0.0157,-0.0021,-2.9692,1.4039,-3.0796
2024-10-11T12:02:28.402Z,-0.0205,-0.9890,0.1823,0.1122,0.0174,-0.1420,0.0089,0.0095,-0.0046,-2.9692,1.4039,-3.0796
2024-10-11T12:02:28.412Z,-0.0215,-0.9930,0.1816,0.1122,0.0174,-0.1420,0.0062,0.0106,-0.0023,-2.9692,1.4039,-3.0796
2024-10-11T12:02:28.422Z,-0.0184,-0.9982,0.1776,0.0630,0.1238,-0.1115,0.0028,0.0102,-0.0066,-2.9688,1.4037,-3.0799
2024-10-11T12:02:28.433Z,-0.0149,-0.9980,0.1777,0.0630,0.1238,-0.1115,0.0015,0.0122,-0.0033,-2.9688,1.4037,-3.0799
2024-10-11T12:02:28.444Z,-0.0116,-0.9958,0.1774,0.0630,0.1238,-0.1115,-0.0006,0.0148,-0.0065,-2.9688,1.4037,-3.0799
2024-10-11T12:02:28.452Z,-0.0192,-1.0000,0.1842,0.1139,0.1424,-0.1826,-0.0054,0.0134,-0.0081,-2.9682,1.4036,-3.0803
2024-10-11T12:02:28.462Z,-0.0215,-1.0034,0.1837,0.1139,0.1424,-0.1826,-0.0107,0.0135,-0.0073,-2.9682,1.4036,-3.0803
2024-10-11T12:02:28.472Z,-0.0158,-1.0009,0.1870,0.1139,0.1424,-0.1826,-0.0153,0.0156,-0.0063,-2.9682,1.4036,-3.0803
2024-10-11T12:02:28.482Z,-0.0150,-0.9966,0.1814,0.0538,0.0924,-0.1609,-0.0150,0.0189,-0.0056,-2.9673,1.4039,-3.0808
2024-10-11T12:02:28.494Z,-0.0149,-0.9936,0.1793,0.0538,0.0924,-0.1609,-0.0157,0.0214,-0.0074,-2.9673,1.4039,-3.0808
2024-10-11T12:02:28.502Z,-0.0122,-0.9893,0.1784,0.0538,0.0924,-0.1609,-0.0182,0.0257,-0.0076,-2.9673,1.4039,-3.0808
2024-10-11T12:02:28.513Z,-0.0136,-0.9916,0.1744,0.0464,0.0701,-0.0756,-0.0192,0.0241,-0.0032,-2.9664,1.4044,-3.0814
2024-10-11T12:02:28.522Z,-0.0121,-0.9942,0.1786,0.0464,0.0701,-0.0756,-0.0194,0.0241,-0.0076,-2.9664,1.4044,-3.0814
2024-10-11T12:02:28.532Z,-0.0079,-0.9967,0.1726,0.0464,0.0701,-0.0756,-0.0172,0.0263,-0.0074,-2.9664,1.4044,-3.0814
2024-10-11T12:02:28.543Z,-0.0074,-0.9989,0.1668,-0.0184,0.1203,-0.0195,-0.0235,0.0312,-0.0069,-2.9659,1.4049,-3.0814
2024-10-11T12:02:28.552Z,-0.0085,-0.9976,0.1665,-0.0184,0.1203,-0.0195,-0.0255,0.0283,-0.0055,-2.9659,1.4049,-3.0814
2024-10-11T12:02:28.562Z,-0.0121,-0.9956,0.1719,-0.0184,0.1203,-0.0195,-0.0280,0.0290,-0.0066,-2.9659,1.4049,-3.0814
2024-10-11T12:02:28.572Z,-0.0108,-0.9928,0.1731,-0.0085,0.0665,-0.1017,-0.0245,0.0301,-0.0055,-2.9654,1.4055,-3.0814
2024-10-11T12:02:28.582Z,-0.0091,-0.9931,0.1721,-0.0085,0.0665,-0.1017,-0.0247,0.0281,-0.0055,-2.9654,1.4055,-3.0814
2024-10-11T12:02:28.592Z,-0.0078,-0.9927,0.1646,-0.0085,0.0665,-0.1017,-0.0247,0.0281,-0.0055,-2.9654,1.4055,-3.0814
2024-10-11T12:02:28.602Z,-0.0039,-0.9888,0.1583,-0.0640,0.0362,0.0561,-0.0260,0.0318,-0.0027,-2.9648,1.4063,-3.0813
2024-10-11T12:02:28.612Z,-0.0039,-0.9888,0.1583,-0.0640,0.0362,0.0561,-0.0274,0.0341,-0.0038,-2.9648,1.4063,-3.0813
2024-10-11T12:02:28.622Z,-0.0065,-0.9860,0.1586,-0.0640,0.0362,0.0561,-0.0234,0.0306,-0.0051,-2.9648,1.4063,-3.0813
2024-10-11T12:02:28.633Z,-0.0077,-0.9871,0.1480,-0.0507,0.0125,0.0683,-0.0229,0.0320,-0.0018,-2.9648,1.4070,-3.0807
2024-10-11T12:02:28.643Z,-0.0077,-0.9871,0.1480,-0.0507,0.0125,0.0683,-0.0214,0.0326,-0.0025,-2.9648,1.4070,-3.0807
2024-10-11T12:02:28.653Z,-0.0123,-0.9751,0.1442,-0.0507,0.0125,0.0683,-0.0171,0.0335,-0.0021,-2.9648,1.4070,-3.0807
2024-10-11T12:02:28.663Z,-0.0081,-0.9754,0.1464,0.0114,-0.1111,0.1776,-0.0193,0.0335,-0.0026,-2.9647,1.4076,-3.0801
2024-10-11T12:02:28.673Z,-0.0024,-0.9760,0.1528,0.0114,-0.1111,0.1776,-0.0155,0.0314,-0.0010,-2.9647,1.4076,-3.0801
2024-10-11T12:02:28.682Z,-0.0024,-0.9760,0.1528,0.0114,-0.1111,0.1776,-0.0150,0.0347,0.0001,-2.9647,1.4076,-3.0801
2024-10-11T12:02:28.694Z,0.0029,-0.9770,0.1535,-0.1355,-0.0918,0.0948,-0.0145,0.0335,0.0014,-2.9646,1.4081,-3.0794
2024-10-11T12:02:28.701Z,0.0025,-0.9777,0.1465,-0.1355,-0.0918,0.0948,-0.0083,0.0327,0.0022,-2.9646,1.4081,-3.0794
2024-10-11T12:02:28.712Z,0.0029,-0.9796,0.1376,-0.1355,-0.0918,0.0948,-0.0084,0.0394,0.0021,-2.9646,1.4081,-3.0794
2024-10-11T12:02:28.723Z,-0.0060,-0.9820,0.1281,-0.0337,-0.0249,0.2967,-0.0018,0.0358,0.0006,-2.9652,1.4084,-3.0779
2024-10-11T12:02:28.732Z,-0.0060,-0.9820,0.1281,-0.0337,-0.0249,0.2967,0.0004,0.0352,0.0050,-2.9652,1.4084,-3.0779
2024-10-11T12:02:28.743Z,-0.0038,-0.9734,0.1371,-0.0337,-0.0249,0.2967,0.0003,0.0355,0.0057,-2.9652,1.4084,-3.0779
2024-10-11T12:02:28.752Z,-0.0020,-0.9750,0.1461,-0.0665,-0.1478,0.1432,0.0019,0.0359,0.0072,-2.9660,1.4085,-3.0763
2024-10-11T12:02:28.763Z,-0.0072,-0.9782,0.1499,-0.0665,-0.1478,0.1432,0.0001,0.0358,0.0034,-2.9660,1.4085,-3.0763
2024-10-11T12:02:28.772Z,-0.0106,-0.9795,0.1623,-0.0665,-0.1478,0.1432,0.0010,0.0336,0.0041,-2.9660,1.4085,-3.0763
2024-10-11T12:02:28.782Z,-0.0142,-0.9819,0.1703,0.0146,-0.0678,-0.0356,-0.0027,0.0270,0.0029,-2.9670,1.4084,-3.0747
2024-10-11T12:02:28.793Z,-0.0142,-0.9819,0.1703,0.0146,-0.0678,-0.0356,-0.0034,0.0218,0.0024,-2.9670,1.4084,-3.0747
2024-10-11T12:02:28.802Z,-0.0162,-0.9864,0.1719,0.0146,-0.0678,-0.0356,-0.0029,0.0237,0.0006,-2.9670,1.4084,-3.0747
2024-10-11T12:02:28.811Z,-0.0209,-0.9859,0.1739,0.0715,-0.0002,-0.1136,-0.0029,0.0237,0.0006,-2.9676,1.4085,-3.0735
2024-10-11T12:02:28.823Z,-0.0198,-0.9880,0.1689,0.0715,-0.0002,-0.1136,-0.0060,0.0191,0.0004,-2.9676,1.4085,-3.0735
2024-10-11T12:02:28.833Z,-0.0270,-0.9920,0.1648,0.0715,-0.0002,-0.1136,-0.0063,0.0184,-0.0036,-2.9676,1.4085,-3.0735
2024-10-11T12:02:28.845Z,-0.0250,-0.9942,0.1646,0.1610,0.0683,-0.0380,-0.0071,0.0146,-0.0079,-2.9674,1.4087,-3.0734
2024-10-11T12:02:28.852Z,-0.0230,-0.9923,0.1694,0.1610,0.0683,-0.0380,-0.0098,0.0159,-0.0049,-2.9674,1.4087,-3.0734
2024-10-11T12:02:28.862Z,-0.0191,-0.9907,0.1697,0.1610,0.0683,-0.0380,-0.0122,0.0185,-0.0066,-2.9674,1.4087,-3.0734
2024-10-11T12:02:28.872Z,-0.0171,-0.9960,0.1633,0.0759,0.0358,-0.0979,-0.0140,0.0189,-0.0098,-2.9664,1.4090,-3.0741
2024-10-11T12:02:28.882Z,-0.0173,-1.0005,0.1511,0.0759,0.0358,-0.0979,-0.0122,0.0226,-0.0093,-2.9664,1.4090,-3.0741
2024-10-11T12:02:28.893Z,-0.0168,-0.9965,0.1550,0.0759,0.0358,-0.0979,-0.0103,0.0177,-0.0073,-2.9664,1.4090,-3.0741
2024-10-11T12:02:28.902Z,-0.0122,-0.9870,0.1571,0.0488,0.0779,0.0504,-0.0129,0.0164,-0.0118,-2.9652,1.4093,-3.0750
2024-10-11T12:02:28.912Z,-0.0134,-0.9842,0.1479,0.0488,0.0779,0.0504,-0.0093,0.0177,-0.0086,-2.9652,1.4093,-3.0750
2024-10-11T12:02:28.922Z,-0.0092,-0.9843,0.1466,0.0488,0.0779,0.0504,-0.0115,0.0164,-0.0098,-2.9652,1.4093,-3.0750
2024-10-11T12:02:28.932Z,-0.0086,-0.9846,0.1464,-0.0336,-0.0249,0.1508,-0.0064,0.0185,-0.0106,-2.9639,1.4096,-3.0760
2024-10-11T12:02:28.944Z,-0.0070,-0.9863,0.1425,-0.0336,-0.0249,0.1508,-0.0060,0.0157,-0.0095,-2.9639,1.4096,-3.0760
2024-10-11T12:02:28.952Z,-0.0013,-0.9872,0.1419,-0.0336,-0.0249,0.1508,-0.0061,0.0172,-0.0079,-2.9639,1.4096,-3.0760
2024-10-11T12:02:28.962Z,-0.0051,-0.9868,0.1447,-0.0754,0.0017,0.1779,-0.0038,0.0205,-0.0069,-2.9626,1.4098,-3.0770
2024-10-11T12:02:28.972Z,-0.0022,-0.9830,0.1480,-0.0754,0.0017,0.1779,-0.0038,0.0219,-0.0077,-2.9626,1.4098,-3.0770
2024-10-11T12:02:28.982Z,-0.0018,-0.9795,0.1551,-0.0754,0.0017,0.1779,-0.0022,0.0238,-0.0076,-2.9626,1.4098,-3.0770
2024-10-11T12:02:28.994Z,0.0012,-0.9781,0.1577,-0.0839,-0.0714,0.0481,-0.0026,0.0245,-0.0036,-2.9615,1.4099,-3.0777
2024-10-11T12:02:29.002Z,0.0066,-0.9777,0.1572,-0.0839,-0.0714,0.0481,-0.0019,0.0242,-0.0029,-2.9615,1.4099,-3.0777
2024-10-11T12:02:29.013Z,0.0066,-0.9777,0.1572,-0.0839,-0.0714,0.0481,-0.0020,0.0290,-0.0026,-2.9615,1.4099,-3.0777
2024-10-11T12:02:29.022Z,0.0038,-0.9749,0.1664,-0.1478,-0.1117,-0.0666,-0.0007,0.0265,-0.0027,-2.9610,1.4100,-3.0776
2024-10-11T12:02:29.033Z,0.0015,-0.9765,0.1698,-0.1478,-0.1117,-0.0666,-0.0037,0.0258,-0.0031,-2.9610,1.4100,-3.0776
2024-10-11T12:02:29.042Z,-0.0043,-0.9836,0.1579,-0.1478,-0.1117,-0.0666,0.0004,0.0249,-0.0011,-2.9610,1.4100,-3.0776
2024-10-11T12:02:29.053Z,-0.0015,-0.9887,0.1617,-0.0727,-0.0206,0.0031,-0.0043,0.0248,-0.0017,-2.9608,1.4101,-3.0773
2024-10-11T12:02:29.062Z,-0.0020,-0.9863,0.1687,-0.0727,-0.0206,0.0031,-0.0038,0.0251,-0.0007,-2.9608,1.4101,-3.0773
2024-10-11T12:02:29.073Z,-0.0015,-0.9843,0.1624,-0.0727,-0.0206,0.0031,-0.0059,0.0262,-0.0009,-2.9608,1.4101,-3.0773
2024-10-11T12:02:29.082Z,-0.0054,-0.9821,0.1629,-0.0640,-0.0343,-0.0324,-0.0032,0.0279,-0.0013,-2.9606,1.4102,-3.0770
2024-10-11T12:02:29.092Z,-0.0081,-0.9843,0.1610,-0.0640,-0.0343,-0.0324,-0.0068,0.0276,0.0004,-2.9606,1.4102,-3.0770
2024-10-11T12:02:29.102Z,-0.0030,-0.9877,0.1586,-0.0640,-0.0343,-0.0324,-0.0049,0.0282,0.0003,-2.9606,1.4102,-3.0770
2024-10-11T12:02:29.113Z,0.0022,-0.9863,0.1481,-0.0859,0.0140,0.0165,-0.0023,0.0281,-0.0002,-2.9604,1.4103,-3.0767
2024-10-11T12:02:29.122Z,0.0041,-0.9867,0.1447,-0.0859,0.0140,0.0165,0.0010,0.0266,0.0009,-2.9604,1.4103,-3.0767
2024-10-11T12:02:29.132Z,0.0021,-0.9891,0.1396,-0.0859,0.0140,0.0165,0.0040,0.0239,0.0032,-2.9604,1.4103,-3.0767
2024-10-11T12:02:29.142Z,-0.0028,-0.9870,0.1431,-0.1180,0.0177,0.1964,0.0058,0.0256,0.0044,-2.9609,1.4102,-3.0757
2024-10-11T12:02:29.152Z,-0.0044,-0.9854,0.1419,-0.1180,0.0177,0.1964,0.0109,0.0153,0.0066,-2.9609,1.4102,-3.0757
2024-10-11T12:02:29.163Z,-0.0059,-0.9844,0.1502,-0.1180,0.0177,0.1964,0.0100,0.0177,0.0037,-2.9609,1.4102,-3.0757
2024-10-11T12:02:29.172Z,-0.0020,-0.9848,0.1513,-0.0427,-0.0228,0.1263,0.0099,0.0168,0.0080,-2.9617,1.4099,-3.0745
2024-10-11T12:02:29.182Z,-0.0055,-0.9852,0.1585,-0.0427,-0.0228,0.1263,0.0101,0.0184,0.0055,-2.9617,1.4099,-3.0745
2024-10-11T12:02:29.192Z,-0.0107,-0.9890,0.1662,-0.0427,-0.0228,0.1263,0.0080,0.0134,0.0017,-2.9617,1.4099,-3.0745
2024-10-11T12:02:29.201Z,-0.0165,-0.9919,0.1713,0.0047,0.0274,-0.0610,0.0066,0.0059,0.0026,-2.9626,1.4096,-3.0735
2024-10-11T12:02:29.213Z,-0.0165,-0.9919,0.1713,0.0047,0.0274,-0.0610,0.0091,0.0017,0.0002,-2.9626,1.4096,-3.0735
2024-10-11T12:02:29.222Z,-0.0167,-0.9965,0.1820,0.0047,0.0274,-0.0610,0.0021,0.0009,-0.0025,-2.9626,1.4096,-3.0735
2024-10-11T12:02:29.232Z,-0.0131,-0.9957,0.1887,0.0501,0.0800,-0.2136,-0.0026,0.0010,-0.0040,-2.9626,1.4094,-3.0736
2024-10-11T12:02:29.243Z,-0.0137,-0.9921,0.1855,0.0501,0.0800,-0.2136,-0.0033,-0.0024,-0.0036,-2.9626,1.4094,-3.0736
2024-10-11T12:02:29.252Z,-0.0203,-0.9924,0.1902,0.0501,0.0800,-0.2136,-0.0071,-0.0029,-0.0034,-2.9626,1.4094,-3.0736
2024-10-11T12:02:29.262Z,-0.0203,-0.9924,0.1902,0.1082,0.0538,-0.2821,-0.0102,-0.0052,-0.0036,-2.9621,1.4095,-3.0744
2024-10-11T12:02:29.272Z,-0.0143,-0.9878,0.1878,0.1082,0.0538,-0.2821,-0.0124,-0.0024,-0.0036,-2.9621,1.4095,-3.0744
2024-10-11T12:02:29.282Z,-0.0176,-0.9891,0.1824,0.1082,0.0538,-0.2821,-0.0156,-0.0041,-0.0060,-2.9621,1.4095,-3.0744
2024-10-11T12:02:29.293Z,-0.0148,-0.9951,0.1690,0.0608,0.0373,-0.2295,-0.0166,-0.0037,-0.0071,-2.9616,1.4099,-3.0753
2024-10-11T12:02:29.302Z,-0.0139,-0.9971,0.1726,0.0608,0.0373,-0.2295,-0.0190,-0.0039,-0.0076,-2.9616,1.4099,-3.0753
2024-10-11T12:02:29.313Z,-0.0145,-0.9999,0.1720,0.0608,0.0373,-0.2295,-0.0199,-0.0075,-0.0067,-2.9616,1.4099,-3.0753
2024-10-11T12:02:29.322Z,-0.0122,-0.9984,0.1685,0.0336,0.1222,-0.1346,-0.0200,-0.0045,-0.0065,-2.9610,1.4104,-3.0764
2024-10-11T12:02:29.332Z,-0.0098,-0.9920,0.1663,0.0336,0.1222,-0.1346,-0.0214,-0.0050,-0.0052,-2.9610,1.4104,-3.0764
2024-10-11T12:02:29.342Z,-0.0093,-0.9921,0.1616,0.0336,0.1222,-0.1346,-0.0201,-0.0051,-0.0053,-2.9610,1.4104,-3.0764
2024-10-11T12:02:29.352Z,-0.0113,-0.9960,0.1635,-0.0008,0.0646,-0.0222,-0.0212,-0.0063,-0.0067,-2.9604,1.4110,-3.0773
2024-10-11T12:02:29.362Z,-0.0113,-0.9960,0.1635,-0.0008,0.0646,-0.0222,-0.0236,-0.0020,-0.0029,-2.9604,1.4110,-3.0773
2024-10-11T12:02:29.372Z,-0.0086,-0.9956,0.1685,-0.0008,0.0646,-0.0222,-0.0253,-0.0015,-0.0019,-2.9604,1.4110,-3.0773
2024-10-11T12:02:29.382Z,-0.0117,-0.9951,0.1694,0.0010,0.0814,-0.1119,-0.0255,0.0035,-0.0029,-2.9602,1.4116,-3.0779
2024-10-11T12:02:29.392Z,-0.0091,-0.9896,0.1701,0.0010,0.0814,-0.1119,-0.0260,0.0041,-0.0048,-2.9602,1.4116,-3.0779
2024-10-11T12:02:29.402Z,-0.0099,-0.9912,0.1671,0.0010,0.0814,-0.1119,-0.0271,0.0090,-0.0023,-2.9602,1.4116,-3.0779
2024-10-11T12:02:29.412Z,-0.0114,-0.9908,0.1671,0.0033,0.0395,-0.0893,-0.0277,0.0127,-0.0017,-2.9601,1.4123,-3.0780
2024-10-11T12:02:29.422Z,-0.0017,-0.9895,0.1718,0.0033,0.0395,-0.0893,-0.0305,0.0116,0.0011,-2.9601,1.4123,-3.0780
2024-10-11T12:02:29.432Z,0.0013,-0.9870,0.1833,0.0033,0.0395,-0.0893,-0.0299,0.0139,0.0046,-2.9601,1.4123,-3.0780
2024-10-11T12:02:29.442Z,-0.0113,-0.9867,0.1759,-0.0919,-0.0004,-0.2275,-0.0360,0.0202,0.0024,-2.9608,1.4132,-3.0773
2024-10-11T12:02:29.452Z,-0.0188,-0.9888,0.1665,-0.0919,-0.0004,-0.2275,-0.0307,0.0157,0.0055,-2.9608,1.4132,-3.0773
2024-10-11T12:02:29.463Z,-0.0207,-0.9889,0.1619,-0.0919,-0.0004,-0.2275,-0.0316,0.0210,0.0042,-2.9608,1.4132,-3.0773
2024-10-11T12:02:29.472Z,-0.0143,-0.9951,0.1573,0.0874,0.0342,-0.0435,-0.0309,0.0241,0.0025,-2.9621,1.4140,-3.0757
2024-10-11T12:02:29.482Z,-0.0144,-0.9902,0.1568,0.0874,0.0342,-0.0435,-0.0277,0.0252,0.0024,-2.9621,1.4140,-3.0757
2024-10-11T12:02:29.492Z,-0.0116,-0.9843,0.1445,0.0874,0.0342,-0.0435,-0.0276,0.0310,0.0066,-2.9621,1.4140,-3.0757
2024-10-11T12:02:29.503Z,-0.0119,-0.9757,0.1426,0.0111,-0.0608,0.1245,-0.0270,0.0307,0.0077,-2.9634,1.4149,-3.0739
2024-10-11T12:02:29.513Z,-0.0131,-0.9708,0.1369,0.0111,-0.0608,0.1245,-0.0226,0.0329,0.0069,-2.9634,1.4149,-3.0739
2024-10-11T12:02:29.522Z,-0.0096,-0.9702,0.1342,0.0111,-0.0608,0.1245,-0.0205,0.0315,0.0089,-2.9634,1.4149,-3.0739
2024-10-11T12:02:29.532Z,-0.0099,-0.9699,0.1334,-0.0062,-0.1768,0.2177,-0.0178,0.0309,0.0071,-2.9650,1.4155,-3.0716
2024-10-11T12:02:29.542Z,-0.0104,-0.9741,0.1286,-0.0062,-0.1768,0.2177,-0.0149,0.0355,0.0068,-2.9650,1.4155,-3.0716
2024-10-11T12:02:29.552Z,-0.0063,-0.9719,0.1330,-0.0062,-0.1768,0.2177,-0.0108,0.0335,0.0078,-2.9650,1.4155,-3.0716
2024-10-11T12:02:29.563Z,-0.0111,-0.9743,0.1298,-0.0403,-0.1545,0.1944,-0.0071,0.0359,0.0101,-2.9670,1.4159,-3.0689
2024-10-11T12:02:29.572Z,-0.0115,-0.9812,0.1339,-0.0403,-0.1545,0.1944,-0.0066,0.0368,0.0075,-2.9670,1.4159,-3.0689
2024-10-11T12:02:29.582Z,-0.0113,-0.9833,0.1416,-0.0403,-0.1545,0.1944,-0.0061,0.0361,0.0077,-2.9670,1.4159,-3.0689
2024-10-11T12:02:29.592Z,-0.0059,-0.9814,0.1518,-0.0086,-0.0482,0.0892,-0.0041,0.0333,0.0081,-2.9689,1.4161,-3.0661
2024-10-11T12:02:29.602Z,-0.0164,-0.9814,0.1553,-0.0086,-0.0482,0.0892,-0.0050,0.0336,0.0055,-2.9689,1.4161,-3.0661
2024-10-11T12:02:29.612Z,-0.0227,-0.9803,0.1558,-0.0086,-0.0482,0.0892,-0.0054,0.0315,0.0058,-2.9689,1.4161,-3.0661
2024-10-11T12:02:29.622Z,-0.0219,-0.9791,0.1485,0.1022,-0.0737,-0.0032,-0.0048,0.0295,0.0018,-2.9705,1.4162,-3.0638
2024-10-11T12:02:29.632Z,-0.0208,-0.9825,0.1576,0.1022,-0.0737,-0.0032,-0.0052,0.0251,0.0004,-2.9705,1.4162,-3.0638
2024-10-11T12:02:29.642Z,-0.0217,-0.9852,0.1660,0.1022,-0.0737,-0.0032,-0.0078,0.0237,-0.0020,-2.9705,1.4162,-3.0638
2024-10-11T12:02:29.652Z,-0.0284,-0.9865,0.1643,0.1085,-0.0252,-0.1440,-0.0060,0.0235,-0.0024,-2.9711,1.4164,-3.0627
2024-10-11T12:02:29.664Z,-0.0239,-0.9872,0.1640,0.1085,-0.0252,-0.1440,-0.0073,0.0222,-0.0040,-2.9711,1.4164,-3.0627
2024-10-11T12:02:29.672Z,-0.0217,-0.9891,0.1537,0.1085,-0.0252,-0.1440,-0.0078,0.0181,-0.0073,-2.9711,1.4164,-3.0627
2024-10-11T12:02:29.682Z,-0.0197,-0.9855,0.1598,0.0892,-0.0011,-0.0381,-0.0096,0.0213,-0.0057,-2.9704,1.4166,-3.0629
2024-10-11T12:02:29.692Z,-0.0175,-0.9879,0.1492,0.0892,-0.0011,-0.0381,-0.0081,0.0149,-0.0067,-2.9704,1.4166,-3.0629
2024-10-11T12:02:29.702Z,-0.0196,-0.9885,0.1516,0.0892,-0.0011,-0.0381,-0.0107,0.0183,-0.0085,-2.9704,1.4166,-3.0629
2024-10-11T12:02:29.713Z,-0.0180,-0.9868,0.1483,0.0766,-0.0050,0.0187,-0.0056,0.0176,-0.0081,-2.9695,1.4168,-3.0634
2024-10-11T12:02:29.722Z,-0.0174,-0.9884,0.1446,0.0766,-0.0050,0.0187,-0.0061,0.0186,-0.0119,-2.9695,1.4168,-3.0634
2024-10-11T12:02:29.733Z,-0.0190,-0.9889,0.1485,0.0766,-0.0050,0.0187,-0.0063,0.0143,-0.0094,-2.9695,1.4168,-3.0634
2024-10-11T12:02:29.742Z,-0.0121,-0.9902,0.1499,0.0458,0.0117,0.0300,-0.0088,0.0150,-0.0098,-2.9681,1.4169,-3.0647
2024-10-11T12:02:29.752Z,-0.0109,-0.9876,0.1540,0.0458,0.0117,0.0300,-0.0065,0.0124,-0.0096,-2.9681,1.4169,-3.0647
2024-10-11T12:02:29.762Z,-0.0105,-0.9890,0.1579,0.0458,0.0117,0.0300,-0.0055,0.0137,-0.0103,-2.9681,1.4169,-3.0647
2024-10-11T12:02:29.772Z,-0.0159,-0.9900,0.1617,0.0033,0.0116,-0.0580,-0.0071,0.0138,-0.0091,-2.9666,1.4171,-3.0660
2024-10-11T12:02:29.782Z,-0.0135,-0.9917,0.1556,0.0033,0.0116,-0.0580,-0.0069,0.0202,-0.0125,-2.9666,1.4171,-3.0660
2024-10-11T12:02:29.792Z,-0.0058,-0.9968,0.1564,0.0033,0.0116,-0.0580,-0.0071,0.0213,-0.0098,-2.9666,1.4171,-3.0660
2024-10-11T12:02:29.801Z,-0.0027,-0.9945,0.1609,-0.0752,0.0808,-0.0205,-0.0088,0.0234,-0.0105,-2.9650,1.4173,-3.0673
2024-10-11T12:02:29.812Z,-0.0037,-0.9935,0.1562,-0.0752,0.0808,-0.0205,-0.0098,0.0218,-0.0055,-2.9650,1.4173,-3.0673
2024-10-11T12:02:29.822Z,-0.0035,-0.9970,0.1541,-0.0752,0.0808,-0.0205,-0.0053,0.0250,-0.0068,-2.9650,1.4173,-3.0673
2024-10-11T12:02:29.832Z,-0.0024,-0.9947,0.1573,-0.0719,0.0838,-0.0185,-0.0073,0.0255,-0.0023,-2.9642,1.4175,-3.0678
2024-10-11T12:02:29.842Z,-0.0026,-0.9913,0.1619,-0.0719,0.0838,-0.0185,-0.0081,0.0277,-0.0033,-2.9642,1.4175,-3.0678
2024-10-11T12:02:29.852Z,-0.0043,-0.9888,0.1621,-0.0719,0.0838,-0.0185,-0.0129,0.0311,0.0005,-2.9642,1.4175,-3.0678
2024-10-11T12:02:29.862Z,-0.0061,-0.9892,0.1662,-0.0587,0.0035,-0.1131,-0.0124,0.0326,0.0008,-2.9643,1.4177,-3.0670
2024-10-11T12:02:29.872Z,-0.0137,-0.9926,0.1568,-0.0587,0.0035,-0.1131,-0.0133,0.0381,0.0003,-2.9643,1.4177,-3.0670
2024-10-11T12:02:29.882Z,-0.0159,-0.9959,0.1566,-0.0587,0.0035,-0.1131,-0.0130,0.0370,-0.0032,-2.9643,1.4177,-3.0670
2024-10-11T12:02:29.892Z,-0.0080,-0.9923,0.1579,0.0453,0.0804,-0.0506,-0.0139,0.0351,-0.0022,-2.9645,1.4181,-3.0661
2024-10-11T12:02:29.902Z,-0.0048,-0.9891,0.1600,0.0453,0.0804,-0.0506,-0.0160,0.0381,0.0008,-2.9645,1.4181,-3.0661
2024-10-11T12:02:29.913Z,-0.0038,-0.9822,0.1556,0.0453,0.0804,-0.0506,-0.0140,0.0360,0.0002,-2.9645,1.4181,-3.0661
2024-10-11T12:02:29.922Z,-0.0061,-0.9808,0.1493,-0.0909,-0.0554,-0.0322,-0.0156,0.0376,-0.0001,-2.9643,1.4185,-3.0655
2024-10-11T12:02:29.932Z,-0.0139,-0.9752,0.1560,-0.0909,-0.0554,-0.0322,-0.0166,0.0361,0.0026,-2.9643,1.4185,-3.0655
2024-10-11T12:02:29.942Z,-0.0128,-0.9777,0.1500,-0.0909,-0.0554,-0.0322,-0.0142,0.0369,-0.0005,-2.9643,1.4185,-3.0655
2024-10-11T12:02:29.953Z,-0.0102,-0.9823,0.1537,0.0091,-0.0973,-0.0190,-0.0185,0.0360,-0.0015,-2.9645,1.4189,-3.0645
2024-10-11T12:02:29.962Z,-0.0017,-0.9840,0.1519,0.0091,-0.0973,-0.0190,-0.0146,0.0364,0.0019,-2.9645,1.4189,-3.0645
2024-10-11T12:02:29.972Z,-0.0025,-0.9856,0.1478,0.0091,-0.0973,-0.0190,-0.0155,0.0339,0.0005,-2.9645,1.4189,-3.0645
2024-10-11T12:02:29.981Z,-0.0069,-0.9908,0.1480,-0.0699,-0.0145,0.0313,-0.0126,0.0319,0.0012,-2.9649,1.4192,-3.0632
2024-10-11T12:02:29.992Z,-0.0076,-0.9966,0.1465,-0.0699,-0.0145,0.0313,-0.0099,0.0324,0.0012,-2.9649,1.4192,-3.0632
2024-10-11T12:02:30.002Z,-0.0103,-0.9970,0.1449,-0.0699,-0.0145,0.0313,-0.0116,0.0314,-0.0003,-2.9649,1.4192,-3.0632
2024-10-11T12:02:30.012Z,-0.0125,-0.9930,0.1497,-0.0183,0.0740,0.0309,-0.0087,0.0278,-0.0008,-2.9654,1.4195,-3.0619
2024-10-11T12:02:30.022Z,-0.0174,-0.9859,0.1541,-0.0183,0.0740,0.0309,-0.0073,0.0270,-0.0032,-2.9654,1.4195,-3.0619
2024-10-11T12:02:30.031Z,-0.0204,-0.9850,0.1531,-0.0183,0.0740,0.0309,-0.0097,0.0248,-0.0020,-2.9654,1.4195,-3.0619
2024-10-11T12:02:30.042Z,-0.0209,-0.9856,0.1543,0.0945,-0.0426,-0.0319,-0.0119,0.0237,-0.0085,-2.9654,1.4198,-3.0613
2024-10-11T12:02:30.052Z,-0.0135,-0.9910,0.1565,0.0945,-0.0426,-0.0319,-0.0095,0.0218,-0.0055,-2.9654,1.4198,-3.0613
2024-10-11T12:02:30.062Z,-0.0122,-0.9969,0.1573,0.0945,-0.0426,-0.0319,-0.0115,0.0196,-0.0073,-2.9654,1.4198,-3.0613
2024-10-11T12:02:30.072Z,-0.0169,-0.9993,0.1570,0.0050,0.0965,-0.0587,-0.0134,0.0207,-0.0076,-2.9645,1.4201,-3.0618
2024-10-11T12:02:30.082Z,-0.0151,-0.9978,0.1552,0.0050,0.0965,-0.0587,-0.0128,0.0194,-0.0094,-2.9645,1.4201,-3.0618
2024-10-11T12:02:30.092Z,-0.0111,-0.9955,0.1567,0.0050,0.0965,-0.0587,-0.0144,0.0178,-0.0120,-2.9645,1.4201,-3.0618
2024-10-11T12:02:30.102Z,-0.0148,-0.9938,0.1509,0.0084,0.0581,-0.0621,-0.0135,0.0157,-0.0108,-2.9633,1.4205,-3.0627
2024-10-11T12:02:30.112Z,-0.0113,-0.9907,0.1476,0.0084,0.0581,-0.0621,-0.0135,0.0133,-0.0111,-2.9633,1.4205,-3.0627
2024-10-11T12:02:30.122Z,-0.0152,-0.9875,0.1449,0.0084,0.0581,-0.0621,-0.0154,0.0103,-0.0114,-2.9633,1.4205,-3.0627
2024-10-11T12:02:30.132Z,-0.0101,-0.9848,0.1521,0.0115,-0.0228,0.0422,-0.0164,0.0124,-0.0105,-2.9617,1.4209,-3.0641
2024-10-11T12:02:30.142Z,-0.0150,-0.9841,0.1553,0.0115,-0.0228,0.0422,-0.0177,0.0146,-0.0111,-2.9617,1.4209,-3.0641
2024-10-11T12:02:30.152Z,-0.0105,-0.9873,0.1583,0.0115,-0.0228,0.0422,-0.0159,0.0157,-0.0122,-2.9617,1.4209,-3.0641
2024-10-11T12:02:30.163Z,-0.0078,-0.9901,0.1564,-0.0123,-0.0028,-0.0754,-0.0164,0.0157,-0.0146,-2.9599,1.4213,-3.0658
2024-10-11T12:02:30.172Z,-0.0078,-0.9949,0.1497,-0.0123,-0.0028,-0.0754,-0.0182,0.0136,-0.0139,-2.9599,1.4213,-3.0658
2024-10-11T12:02:30.181Z,-0.0172,-0.9943,0.1468,-0.0123,-0.0028,-0.0754,-0.0166,0.0110,-0.0141,-2.9599,1.4213,-3.0658
2024-10-11T12:02:30.192Z,-0.0149,-0.9942,0.1374,0.0719,0.0513,0.0361,-0.0146,0.0092,-0.0113,-2.9576,1.4218,-3.0678
2024-10-11T12:02:30.202Z,-0.0089,-0.9939,0.1396,0.0719,0.0513,0.0361,-0.0154,0.0118,-0.0142,-2.9576,1.4218,-3.0678
2024-10-11T12:02:30.212Z,-0.0031,-0.9944,0.1429,0.0719,0.0513,0.0361,-0.0141,0.0161,-0.0095,-2.9576,1.4218,-3.0678
2024-10-11T12:02:30.222Z,0.0038,-0.9953,0.1456,-0.1000,0.0533,0.0265,-0.0153,0.0176,-0.0118,-2.9555,1.4222,-3.0699
2024-10-11T12:02:30.231Z,-0.0066,-0.9973,0.1413,-0.1000,0.0533,0.0265,-0.0133,0.0215,-0.0093,-2.9555,1.4222,-3.0699
2024-10-11T12:02:30.242Z,-0.0048,-0.9953,0.1416,-0.1000,0.0533,0.0265,-0.0171,0.0186,-0.0071,-2.9555,1.4222,-3.0699
2024-10-11T12:02:30.252Z,-0.0027,-0.9949,0.1486,-0.0660,0.0615,0.0362,-0.0156,0.0199,-0.0079,-2.9539,1.4226,-3.0712
2024-10-11T12:02:30.262Z,-0.0067,-0.9925,0.1544,-0.0660,0.0615,0.0362,-0.0188,0.0203,-0.0081,-2.9539,1.4226,-3.0712
2024-10-11T12:02:30.272Z,-0.0109,-0.9895,0.1520,-0.0660,0.0615,0.0362,-0.0191,0.0224,-0.0054,-2.9539,1.4226,-3.0712
2024-10-11T12:02:30.282Z,-0.0065,-0.9897,0.1489,0.0022,-0.0001,-0.0523,-0.0187,0.0237,-0.0088,-2.9528,1.4231,-3.0719
2024-10-11T12:02:30.292Z,-0.0083,-0.9890,0.1464,0.0022,-0.0001,-0.0523,-0.0198,0.0258,-0.0076,-2.9528,1.4231,-3.0719
2024-10-11T12:02:30.302Z,-0.0119,-0.9892,0.1416,0.0022,-0.0001,-0.0523,-0.0171,0.0250,-0.0062,-2.9528,1.4231,-3.0719
2024-10-11T12:02:30.312Z,-0.0104,-0.9863,0.1369,0.0285,-0.0099,0.0581,-0.0137,0.0251,-0.0077,-2.9517,1.4237,-3.0725
2024-10-11T12:02:30.322Z,-0.0057,-0.9846,0.1339,0.0285,-0.0099,0.0581,-0.0134,0.0252,-0.0039,-2.9517,1.4237,-3.0725
2024-10-11T12:02:30.332Z,-0.0058,-0.9803,0.1313,0.0285,-0.0099,0.0581,-0.0127,0.0294,-0.0030,-2.9517,1.4237,-3.0725
2024-10-11T12:02:30.342Z,-0.0141,-0.9758,0.1299,-0.0183,-0.0981,0.1620,-0.0141,0.0340,-0.0031,-2.9509,1.4241,-3.0726
2024-10-11T12:02:30.352Z,-0.0186,-0.9743,0.1217,-0.0183,-0.0981,0.1620,-0.0145,0.0351,-0.0062,-2.9509,1.4241,-3.0726
2024-10-11T12:02:30.364Z,-0.0140,-0.9743,0.1244,0.0200,-0.1413,0.1974,-0.0085,0.0349,-0.0061,-2.9504,1.4245,-3.0724
2024-10-11T12:02:30.372Z,-0.0089,-0.9736,0.1301,0.0200,-0.1413,0.1974,-0.0120,0.0349,-0.0059,-2.9504,1.4245,-3.0724
2024-10-11T12:02:30.382Z,-0.0066,-0.9750,0.1347,0.0200,-0.1413,0.1974,-0.0122,0.0354,-0.0042,-2.9504,1.4245,-3.0724
2024-10-11T12:02:30.392Z,-0.0092,-0.9792,0.1305,0.0200,-0.1413,0.1974,-0.0088,0.0342,-0.0074,-2.9504,1.4245,-3.0724
2024-10-11T12:02:30.402Z,-0.0076,-0.9820,0.1215,-0.0075,-0.0984,0.1728,-0.0017,0.0325,-0.0055,-2.9497,1.4248,-3.0724
2024-10-11T12:02:30.412Z,-0.0060,-0.9874,0.1136,-0.0075,-0.0984,0.1728,-0.0002,0.0334,-0.0046,-2.9497,1.4248,-3.0724
2024-10-11T12:02:30.422Z,-0.0089,-0.9874,0.1148,-0.0075,-0.0984,0.1728,0.0012,0.0336,-0.0053,-2.9497,1.4248,-3.0724
2024-10-11T12:02:30.432Z,-0.0129,-0.9823,0.1255,-0.0087,-0.0281,0.2827,0.0036,0.0303,-0.0054,-2.9491,1.4248,-3.0723
2024-10-11T12:02:30.442Z,-0.0142,-0.9796,0.1355,-0.0087,-0.0281,0.2827,0.0001,0.0285,-0.0051,-2.9491,1.4248,-3.0723
2024-10-11T12:02:30.453Z,-0.0153,-0.9792,0.1430,0.0574,-0.1063,0.0097,0.0007,0.0276,-0.0076,-2.9482,1.4247,-3.0726
2024-10-11T12:02:30.462Z,-0.0181,-0.9798,0.1496,0.0574,-0.1063,0.0097,0.0018,0.0218,-0.0089,-2.9482,1.4247,-3.0726
2024-10-11T12:02:30.472Z,-0.0168,-0.9846,0.1472,0.0574,-0.1063,0.0097,0.0036,0.0237,-0.0088,-2.9482,1.4247,-3.0726
2024-10-11T12:02:30.482Z,-0.0118,-0.9934,0.1429,0.0574,-0.1063,0.0097,0.0013,0.0211,-0.0083,-2.9482,1.4247,-3.0726
2024-10-11T12:02:30.492Z,-0.0108,-0.9924,0.1425,0.0114,0.0406,0.0224,0.0047,0.0211,-0.0081,-2.9466,1.4247,-3.0738
2024-10-11T12:02:30.502Z,-0.0119,-0.9926,0.1494,0.0114,0.0406,0.0224,-0.0002,0.0183,-0.0097,-2.9466,1.4247,-3.0738
2024-10-11T12:02:30.514Z,-0.0189,-0.9937,0.1493,0.0872,0.0523,-0.0303,0.0039,0.0170,-0.0113,-2.9449,1.4247,-3.0752
2024-10-11T12:02:30.522Z,-0.0154,-0.9964,0.1442,0.0872,0.0523,-0.0303,-0.0006,0.0144,-0.0110,-2.9449,1.4247,-3.0752
2024-10-11T12:02:30.532Z,-0.0111,-0.9946,0.1466,0.0872,0.0523,-0.0303,0.0006,0.0158,-0.0122,-2.9449,1.4247,-3.0752
2024-10-11T12:02:30.543Z,-0.0121,-0.9898,0.1482,0.0223,0.0010,-0.0412,-0.0034,0.0183,-0.0123,-2.9429,1.4247,-3.0768
2024-10-11T12:02:30.552Z,-0.0101,-0.9855,0.1507,0.0223,0.0010,-0.0412,-0.0059,0.0195,-0.0103,-2.9429,1.4247,-3.0768
2024-10-11T12:02:30.562Z,-0.0067,-0.9881,0.1515,0.0223,0.0010,-0.0412,-0.0048,0.0172,-0.0096,-2.9429,1.4247,-3.0768
2024-10-11T12:02:30.573Z,-0.0030,-0.9952,0.1472,-0.0726,0.0695,-0.0066,-0.0087,0.0157,-0.0099,-2.9410,1.4248,-3.0785
2024-10-11T12:02:30.581Z,-0.0033,-0.9985,0.1394,-0.0726,0.0695,-0.0066,-0.0068,0.0173,-0.0095,-2.9410,1.4248,-3.0785
2024-10-11T12:02:30.592Z,-0.0083,-1.0018,0.1414,-0.0726,0.0695,-0.0066,-0.0031,0.0175,-0.0096,-2.9410,1.4248,-3.0785
2024-10-11T12:02:30.602Z,-0.0109,-0.9999,0.1370,-0.0726,0.0695,-0.0066,-0.0059,0.0215,-0.0109,-2.9410,1.4248,-3.0785
2024-10-11T12:02:30.614Z,-0.0040,-0.9932,0.1397,0.0007,0.0853,0.0725,-0.0074,0.0228,-0.0109,-2.9393,1.4249,-3.0799
2024-10-11T12:02:30.622Z,-0.0006,-0.9876,0.1442,0.0007,0.0853,0.0725,-0.0099,0.0260,-0.0086,-2.9393,1.4249,-3.0799
2024-10-11T12:02:30.634Z,0.0028,-0.9894,0.1514,-0.1223,0.0088,-0.0581,-0.0097,0.0261,-0.0059,-2.9380,1.4252,-3.0807
2024-10-11T12:02:30.642Z,0.0041,-0.9920,0.1514,-0.1223,0.0088,-0.0581,-0.0109,0.0301,-0.0053,-2.9380,1.4252,-3.0807
2024-10-11T12:02:30.652Z,-0.0051,-0.9946,0.1531,-0.1223,0.0088,-0.0581,-0.0121,0.0276,-0.0039,-2.9380,1.4252,-3.0807
2024-10-11T12:02:30.664Z,-0.0097,-0.9941,0.1613,-0.0043,0.0541,-0.1636,-0.0128,0.0298,-0.0025,-2.9373,1.4255,-3.0809
2024-10-11T12:02:30.672Z,-0.0047,-0.9968,0.1615,-0.0043,0.0541,-0.1636,-0.0146,0.0280,-0.0025,-2.9373,1.4255,-3.0809
2024-10-11T12:02:30.682Z,-0.0043,-0.9980,0.1590,-0.0043,0.0541,-0.1636,-0.0160,0.0316,-0.0022,-2.9373,1.4255,-3.0809
2024-10-11T12:02:30.693Z,0.0003,-0.9984,0.1546,-0.0842,0.0864,-0.0897,-0.0163,0.0332,-0.0031,-2.9370,1.4260,-3.0805
2024-10-11T12:02:30.702Z,-0.0051,-0.9998,0.1468,-0.0842,0.0864,-0.0897,-0.0160,0.0298,-0.0032,-2.9370,1.4260,-3.0805
2024-10-11T12:02:30.713Z,-0.0054,-0.9975,0.1446,-0.0842,0.0864,-0.0897,-0.0193,0.0322,-0.0044,-2.9370,1.4260,-3.0805
2024-10-11T12:02:30.723Z,-0.0019,-0.9910,0.1531,-0.0655,-0.0023,-0.0881,-0.0192,0.0344,-0.0002,-2.9367,1.4265,-3.0800
2024-10-11T12:02:30.732Z,-0.0002,-0.9879,0.1545,-0.0655,-0.0023,-0.0881,-0.0223,0.0338,0.0007,-2.9367,1.4265,-3.0800
2024-10-11T12:02:30.742Z,0.0007,-0.9840,0.1467,-0.0655,-0.0023,-0.0881,-0.0237,0.0338,0.0011,-2.9367,1.4265,-3.0800
2024-10-11T12:02:30.753Z,-0.0020,-0.9822,0.1443,-0.0570,-0.0831,-0.0062,-0.0240,0.0327,0.0013,-2.9373,1.4271,-3.0787
2024-10-11T12:02:30.763Z,-0.0030,-0.9798,0.1378,-0.0570,-0.0831,-0.0062,-0.0240,0.0346,0.0021,-2.9373,1.4271,-3.0787
2024-10-11T12:02:30.772Z,-0.0006,-0.9817,0.1351,-0.0570,-0.0831,-0.0062,-0.0219,0.0317,0.0024,-2.9373,1.4271,-3.0787
2024-10-11T12:02:30.783Z,-0.0031,-0.9796,0.1347,-0.0522,-0.1123,0.0653,-0.0171,0.0312,0.0020,-2.9382,1.4277,-3.0771
2024-10-11T12:02:30.792Z,-0.0064,-0.9791,0.1327,-0.0522,-0.1123,0.0653,-0.0174,0.0272,0.0032,-2.9382,1.4277,-3.0771
2024-10-11T12:02:30.802Z,-0.0053,-0.9818,0.1292,-0.0522,-0.1123,0.0653,-0.0187,0.0269,0.0032,-2.9382,1.4277,-3.0771
2024-10-11T12:02:30.815Z,-0.0029,-0.9805,0.1313,-0.0689,-0.0913,0.1034,-0.0127,0.0231,0.0028,-2.9392,1.4281,-3.0755
2024-10-11T12:02:30.822Z,-0.0011,-0.9819,0.1305,-0.0689,-0.0913,0.1034,-0.0140,0.0228,0.0024,-2.9392,1.4281,-3.0755
2024-10-11T12:02:30.833Z,-0.0030,-0.9889,0.1289,-0.0689,-0.0913,0.1034,-0.0128,0.0227,0.0013,-2.9392,1.4281,-3.0755
2024-10-11T12:02:30.843Z,-0.0071,-0.9894,0.1367,-0.0191,-0.0130,0.0325,-0.0090,0.0195,0.0034,-2.9401,1.4284,-3.0743
2024-10-11T12:02:30.852Z,-0.0038,-0.9854,0.1358,-0.0191,-0.0130,0.0325,-0.0113,0.0156,0.0027,-2.9401,1.4284,-3.0743
2024-10-11T12:02:30.863Z,-0.0016,-0.9851,0.1419,-0.0191,-0.0130,0.0325,-0.0111,0.0151,0.0031,-2.9401,1.4284,-3.0743
2024-10-11T12:02:30.872Z,-0.0025,-0.9848,0.1413,-0.0706,-0.0532,-0.0310,-0.0100,0.0106,0.0029,-2.9410,1.4287,-3.0732
2024-10-11T12:02:30.881Z,-0.0069,-0.9840,0.1480,-0.0706,-0.0532,-0.0310,-0.0131,0.0104,0.0036,-2.9410,1.4287,-3.0732
2024-10-11T12:02:30.892Z,-0.0114,-0.9890,0.1446,-0.0706,-0.0532,-0.0310,-0.0098,0.0070,0.0010,-2.9410,1.4287,-3.0732
2024-10-11T12:02:30.902Z,-0.0090,-0.9924,0.1410,-0.0181,0.0221,0.0032,-0.0082,0.0076,0.0018,-2.9416,1.4290,-3.0726
2024-10-11T12:02:30.913Z,-0.0057,-0.9904,0.1439,-0.0181,0.0221,0.0032,-0.0122,0.0037,0.0030,-2.9416,1.4290,-3.0726
2024-10-11T12:02:30.922Z,-0.0061,-0.9921,0.1413,-0.0181,0.0221,0.0032,-0.0107,0.0025,0.0016,-2.9416,1.4290,-3.0726
2024-10-11T12:02:30.932Z,-0.0063,-0.9952,0.1465,-0.0308,0.0521,-0.0604,-0.0102,0.0024,0.0017,-2.9424,1.4293,-3.0719
2024-10-11T12:02:30.942Z,-0.0076,-0.9942,0.1440,-0.0308,0.0521,-0.0604,-0.0070,0.0037,0.0022,-2.9424,1.4293,-3.0719
2024-10-11T12:02:30.952Z,-0.0172,-0.9942,0.1366,-0.0308,0.0521,-0.0604,-0.0070,0.0019,0.0009,-2.9424,1.4293,-3.0719
2024-10-11T12:02:30.964Z,-0.0143,-0.9932,0.1251,0.0303,0.0032,0.1410,-0.0035,0.0006,0.0011,-2.9430,1.4294,-3.0715
2024-10-11T12:02:30.972Z,-0.0134,-0.9854,0.1315,0.0303,0.0032,0.1410,-0.0017,0.0047,0.0001,-2.9430,1.4294,-3.0715
2024-10-11T12:02:30.982Z,-0.0113,-0.9825,0.1293,0.0303,0.0032,0.1410,-0.0015,0.0028,0.0017,-2.9430,1.4294,-3.0715
2024-10-11T12:02:30.992Z,-0.0090,-0.9861,0.1262,0.0007,-0.0282,0.1649,0.0011,0.0026,0.0004,-2.9433,1.4295,-3.0713
2024-10-11T12:02:31.002Z,-0.0131,-0.9898,0.1314,0.0007,-0.0282,0.1649,0.0021,0.0063,-0.0002,-2.9433,1.4295,-3.0713
2024-10-11T12:02:31.013Z,-0.0103,-0.9908,0.1325,0.0007,-0.0282,0.1649,0.0003,0.0088,0.0016,-2.9433,1.4295,-3.0713
2024-10-11T12:02:31.022Z,-0.0085,-0.9892,0.1389,-0.0231,-0.0089,-0.0187,0.0027,0.0087,0.0010,-2.9436,1.4294,-3.0711
2024-10-11T12:02:31.032Z,-0.0079,-0.9874,0.1463,-0.0231,-0.0089,-0.0187,-0.0001,0.0103,-0.0011,-2.9436,1.4294,-3.0711
2024-10-11T12:02:31.042Z,-0.0120,-0.9880,0.1529,-0.0231,-0.0089,-0.0187,-0.0021,0.0102,0.0017,-2.9436,1.4294,-3.0711
2024-10-11T12:02:31.052Z,-0.0152,-0.9898,0.1484,0.0405,0.0069,-0.0840,-0.0018,0.0113,0.0032,-2.9442,1.4294,-3.0704
2024-10-11T12:02:31.065Z,-0.0088,-0.9928,0.1489,0.0405,0.0069,-0.0840,-0.0048,0.0165,-0.0003,-2.9442,1.4294,-3.0704
2024-10-11T12:02:31.072Z,-0.0088,-0.9930,0.1504,0.0405,0.0069,-0.0840,-0.0041,0.0147,0.0016,-2.9442,1.4294,-3.0704
2024-10-11T12:02:31.082Z,-0.0126,-0.9910,0.1516,0.0112,0.0201,-0.0991,-0.0047,0.0136,0.0000,-2.9448,1.4295,-3.0698
2024-10-11T12:02:31.092Z,-0.0060,-0.9927,0.1531,0.0112,0.0201,-0.0991,-0.0027,0.0135,0.0036,-2.9448,1.4295,-3.0698
2024-10-11T12:02:31.102Z,-0.0061,-0.9928,0.1512,0.0112,0.0201,-0.0991,-0.0076,0.0201,0.0011,-2.9448,1.4295,-3.0698
2024-10-11T12:02:31.113Z,-0.0050,-0.9954,0.1488,-0.0499,0.0578,-0.0704,-0.0066,0.0204,0.0019,-2.9457,1.4296,-3.0687
2024-10-11T12:02:31.122Z,-0.0104,-0.9938,0.1427,-0.0499,0.0578,-0.0704,-0.0053,0.0246,0.0019,-2.9457,1.4296,-3.0687
2024-10-11T12:02:31.132Z,-0.0124,-0.9912,0.1475,-0.0499,0.0578,-0.0704,-0.0044,0.0205,0.0045,-2.9457,1.4296,-3.0687
2024-10-11T12:02:31.142Z,-0.0070,-0.9887,0.1335,-0.0350,-0.0315,0.0702,-0.0040,0.0194,0.0039,-2.9464,1.4297,-3.0676
2024-10-11T12:02:31.151Z,-0.0096,-0.9848,0.1356,-0.0350,-0.0315,0.0702,-0.0054,0.0185,0.0035,-2.9464,1.4297,-3.0676
2024-10-11T12:02:31.162Z,-0.0087,-0.9850,0.1277,-0.0350,-0.0315,0.0702,-0.0006,0.0207,0.0010,-2.9464,1.4297,-3.0676
2024-10-11T12:02:31.172Z,-0.0045,-0.9854,0.1285,-0.0718,-0.0460,0.1255,-0.0011,0.0217,0.0008,-2.9471,1.4297,-3.0665
2024-10-11T12:02:31.182Z,-0.0008,-0.9813,0.1274,-0.0718,-0.0460,0.1255,0.0006,0.0269,0.0021,-2.9471,1.4297,-3.0665
2024-10-11T12:02:31.192Z,-0.0021,-0.9791,0.1299,-0.0718,-0.0460,0.1255,0.0014,0.0249,0.0046,-2.9471,1.4297,-3.0665
2024-10-11T12:02:31.201Z,-0.0088,-0.9757,0.1380,0.0027,-0.1429,0.0228,0.0014,0.0228,0.0007,-2.9479,1.4296,-3.0653
2024-10-11T12:02:31.212Z,-0.0148,-0.9768,0.1343,0.0027,-0.1429,0.0228,0.0019,0.0224,0.0027,-2.9479,1.4296,-3.0653
2024-10-11T12:02:31.222Z,-0.0127,-0.9799,0.1438,0.0027,-0.1429,0.0228,-0.0009,0.0197,0.0002,-2.9479,1.4296,-3.0653
2024-10-11T12:02:31.233Z,-0.0110,-0.9825,0.1433,-0.0011,-0.0722,-0.0408,-0.0034,0.0204,0.0000,-2.9483,1.4296,-3.0645
2024-10-11T12:02:31.242Z,-0.0103,-0.9862,0.1476,-0.0011,-0.0722,-0.0408,-0.0006,0.0175,0.0007,-2.9483,1.4296,-3.0645
2024-10-11T12:02:31.252Z,-0.0063,-0.9848,0.1451,-0.0011,-0.0722,-0.0408,-0.0030,0.0164,0.0006,-2.9483,1.4296,-3.0645
2024-10-11T12:02:31.263Z,-0.0065,-0.9884,0.1322,-0.0431,-0.0082,0.1069,0.0001,0.0175,-0.0011,-2.9485,1.4296,-3.0641
2024-10-11T12:02:31.272Z,-0.0092,-0.9890,0.1315,-0.0431,-0.0082,0.1069,0.0006,0.0181,-0.0003,-2.9485,1.4296,-3.0641
2024-10-11T12:02:31.282Z,-0.0151,-0.9912,0.1383,-0.0431,-0.0082,0.1069,-0.0001,0.0155,0.0015,-2.9485,1.4296,-3.0641
2024-10-11T12:02:31.292Z,-0.0130,-0.9937,0.1406,-0.0001,0.0336,-0.0243,0.0002,0.0167,-0.0003,-2.9488,1.4295,-3.0635
2024-10-11T12:02:31.302Z,-0.0094,-0.9940,0.1412,-0.0001,0.0336,-0.0243,0.0029,0.0155,-0.0003,-2.9488,1.4295,-3.0635
2024-10-11T12:02:31.312Z,-0.0154,-0.9956,0.1487,-0.0001,0.0336,-0.0243,-0.0002,0.0145,-0.0018,-2.9488,1.4295,-3.0635
2024-10-11T12:02:31.322Z,-0.0184,-0.9978,0.1518,0.0665,0.0732,-0.1339,0.0015,0.0149,-0.0004,-2.9488,1.4295,-3.0633
2024-10-11T12:02:31.331Z,-0.0150,-0.9998,0.1559,0.0665,0.0732,-0.1339,-0.0003,0.0162,-0.0016,-2.9488,1.4295,-3.0633
2024-10-11T12:02:31.342Z,-0.0123,-1.0027,0.1442,0.0665,0.0732,-0.1339,-0.0023,0.0144,-0.0012,-2.9488,1.4295,-3.0633
2024-10-11T12:02:31.351Z,-0.0128,-1.0023,0.1452,0.0351,0.1129,-0.0317,-0.0013,0.0128,-0.0023,-2.9486,1.4295,-3.0633
2024-10-11T12:02:31.362Z,-0.0178,-1.0000,0.1442,0.0351,0.1129,-0.0317,-0.0044,0.0133,-0.0040,-2.9486,1.4295,-3.0633
2024-10-11T12:02:31.372Z,-0.0138,-0.9955,0.1419,0.0351,0.1129,-0.0317,-0.0031,0.0162,-0.0023,-2.9486,1.4295,-3.0633
2024-10-11T12:02:31.382Z,-0.0112,-0.9893,0.1481,0.0042,-0.0040,-0.0553,-0.0063,0.0170,-0.0041,-2.9485,1.4296,-3.0632
2024-10-11T12:02:31.392Z,-0.0127,-0.9897,0.1422,0.0042,-0.0040,-0.0553,-0.0069,0.0134,-0.0007,-2.9485,1.4296,-3.0632
2024-10-11T12:02:31.402Z,-0.0155,-0.9905,0.1517,0.0042,-0.0040,-0.0553,-0.0068,0.0136,-0.0047,-2.9485,1.4296,-3.0632
2024-10-11T12:02:31.412Z,-0.0168,-0.9950,0.1489,0.0393,0.0592,-0.0954,-0.0094,0.0150,-0.0054,-2.9483,1.4298,-3.0633
2024-10-11T12:02:31.422Z,-0.0106,-0.9979,0.1561,0.0393,0.0592,-0.0954,-0.0110,0.0149,-0.0033,-2.9483,1.4298,-3.0633
2024-10-11T12:02:31.431Z,-0.0092,-0.9996,0.1530,0.0393,0.0592,-0.0954,-0.0125,0.0155,-0.0050,-2.9483,1.4298,-3.0633
2024-10-11T12:02:31.442Z,-0.0164,-0.9991,0.1554,0.0677,0.0707,-0.1345,-0.0165,0.0150,-0.0060,-2.9478,1.4301,-3.0636
2024-10-11T12:02:31.452Z,-0.0157,-0.9930,0.1471,0.0677,0.0707,-0.1345,-0.0114,0.0132,-0.0042,-2.9478,1.4301,-3.0636
2024-10-11T12:02:31.462Z,-0.0162,-0.9971,0.1388,0.0677,0.0707,-0.1345,-0.0135,0.0119,-0.0069,-2.9478,1.4301,-3.0636
2024-10-11T12:02:31.472Z,-0.0190,-0.9998,0.1351,0.0696,0.0929,0.0154,-0.0111,0.0130,-0.0065,-2.9470,1.4305,-3.0642
2024-10-11T12:02:31.482Z,-0.0172,-1.0008,0.1350,0.0696,0.0929,0.0154,-0.0110,0.0126,-0.0093,-2.9470,1.4305,-3.0642
2024-10-11T12:02:31.492Z,-0.0118,-0.9998,0.1402,0.0696,0.0929,0.0154,-0.0135,0.0151,-0.0030,-2.9470,1.4305,-3.0642
2024-10-11T12:02:31.503Z,-0.0050,-0.9964,0.1439,-0.0553,0.0541,-0.0935,-0.0148,0.0179,-0.0081,-2.9461,1.4309,-3.0650
2024-10-11T12:02:31.512Z,-0.0095,-0.9962,0.1484,-0.0553,0.0541,-0.0935,-0.0139,0.0179,-0.0049,-2.9461,1.4309,-3.0650
2024-10-11T12:02:31.522Z,-0.0116,-0.9970,0.1482,-0.0553,0.0541,-0.0935,-0.0114,0.0166,-0.0045,-2.9461,1.4309,-3.0650
2024-10-11T12:02:31.533Z,-0.0096,-0.9958,0.1422,-0.0181,0.0489,-0.0225,-0.0193,0.0200,-0.0046,-2.9454,1.4313,-3.0654
2024-10-11T12:02:31.542Z,-0.0069,-0.9956,0.1408,-0.0181,0.0489,-0.0225,-0.0161,0.0183,-0.0048,-2.9454,1.4313,-3.0654
2024-10-11T12:02:31.551Z,-0.0050,-0.9904,0.1364,-0.0181,0.0489,-0.0225,-0.0163,0.0215,-0.0034,-2.9454,1.4313,-3.0654
2024-10-11T12:02:31.562Z,-0.0061,-0.9857,0.1314,-0.0459,-0.0523,0.0534,-0.0171,0.0206,-0.0030,-2.9453,1.4317,-3.0652
2024-10-11T12:02:31.572Z,-0.0045,-0.9830,0.1359,-0.0459,-0.0523,0.0534,-0.0177,0.0232,-0.0038,-2.9453,1.4317,-3.0652
2024-10-11T12:02:31.582Z,-0.0057,-0.9840,0.1326,-0.0459,-0.0523,0.0534,-0.0161,0.0247,-0.0025,-2.9453,1.4317,-3.0652
2024-10-11T12:02:31.592Z,-0.0092,-0.9887,0.1259,-0.0060,-0.0246,0.1071,-0.0139,0.0231,-0.0007,-2.9453,1.4321,-3.0648
2024-10-11T12:02:31.602Z,-0.0105,-0.9844,0.1308,-0.0060,-0.0246,0.1071,-0.0164,0.0257,-0.0059,-2.9453,1.4321,-3.0648
2024-10-11T12:02:31.611Z,-0.0089,-0.9813,0.1270,-0.0060,-0.0246,0.1071,-0.0139,0.0218,0.0001,-2.9453,1.4321,-3.0648
2024-10-11T12:02:31.622Z,-0.0061,-0.9757,0.1377,-0.0321,-0.1624,0.0089,-0.0163,0.0225,-0.0020,-2.9453,1.4325,-3.0643
2024-10-11T12:02:31.632Z,-0.0123,-0.9738,0.1387,-0.0321,-0.1624,0.0089,-0.0141,0.0234,-0.0025,-2.9453,1.4325,-3.0643
2024-10-11T12:02:31.642Z,-0.0175,-0.9790,0.1284,-0.0321,-0.1624,0.0089,-0.0135,0.0205,-0.0046,-2.9453,1.4325,-3.0643
2024-10-11T12:02:31.652Z,-0.0145,-0.9795,0.1276,0.0396,-0.1074,0.1038,-0.0099,0.0192,-0.0010,-2.9451,1.4330,-3.0641
2024-10-11T12:02:31.662Z,-0.0132,-0.9793,0.1259,0.0396,-0.1074,0.1038,-0.0112,0.0211,-0.0028,-2.9451,1.4330,-3.0641
2024-10-11T12:02:31.672Z,-0.0025,-0.9791,0.1277,0.0396,-0.1074,0.1038,-0.0101,0.0224,-0.0009,-2.9451,1.4330,-3.0641
2024-10-11T12:02:31.684Z,-0.0033,-0.9841,0.1200,-0.0502,-0.0673,0.1725,-0.0081,0.0229,-0.0026,-2.9450,1.4333,-3.0639
2024-10-11T12:02:31.692Z,-0.0103,-0.9856,0.1237,-0.0502,-0.0673,0.1725,-0.0067,0.0205,-0.0003,-2.9450,1.4333,-3.0639
2024-10-11T12:02:31.702Z,-0.0099,-0.9904,0.1285,-0.0502,-0.0673,0.1725,-0.0056,0.0198,-0.0016,-2.9450,1.4333,-3.0639
2024-10-11T12:02:31.712Z,-0.0079,-0.9913,0.1337,-0.0359,0.0051,0.0133,-0.0050,0.0174,0.0004,-2.9450,1.4335,-3.0636
2024-10-11T12:02:31.723Z,-0.0086,-0.9880,0.1422,-0.0359,0.0051,0.0133,-0.0055,0.0196,0.0013,-2.9450,1.4335,-3.0636
2024-10-11T12:02:31.732Z,-0.0106,-0.9896,0.1434,-0.0359,0.0051,0.0133,-0.0085,0.0200,0.0002,-2.9450,1.4335,-3.0636
2024-10-11T12:02:31.742Z,-0.0101,-0.9924,0.1407,0.0037,0.0236,-0.0471,-0.0077,0.0211,-0.0019,-2.9452,1.4337,-3.0632
2024-10-11T12:02:31.752Z,-0.0157,-0.9945,0.1324,0.0037,0.0236,-0.0471,-0.0044,0.0174,-0.0013,-2.9452,1.4337,-3.0632
2024-10-11T12:02:31.762Z,-0.0152,-0.9966,0.1239,0.0037,0.0236,-0.0471,-0.0036,0.0152,-0.0047,-2.9452,1.4337,-3.0632
2024-10-11T12:02:31.772Z,-0.0119,-0.9936,0.1216,0.0257,0.0221,0.1130,-0.0010,0.0128,-0.0018,-2.9447,1.4339,-3.0635
2024-10-11T12:02:31.782Z,-0.0165,-0.9895,0.1300,0.0257,0.0221,0.1130,-0.0052,0.0171,-0.0034,-2.9447,1.4339,-3.0635
2024-10-11T12:02:31.792Z,-0.0151,-0.9867,0.1400,0.0257,0.0221,0.1130,-0.0076,0.0160,-0.0062,-2.9447,1.4339,-3.0635
2024-10-11T12:02:31.802Z,-0.0192,-0.9882,0.1421,0.0812,-0.0232,-0.0390,-0.0090,0.0155,-0.0052,-2.9437,1.4340,-3.0643
2024-10-11T12:02:31.812Z,-0.0157,-0.9889,0.1380,0.0812,-0.0232,-0.0390,-0.0089,0.0144,-0.0060,-2.9437,1.4340,-3.0643
2024-10-11T12:02:31.822Z,-0.0097,-0.9904,0.1388,0.0812,-0.0232,-0.0390,-0.0078,0.0148,-0.0080,-2.9437,1.4340,-3.0643
2024-10-11T12:02:31.833Z,-0.0129,-0.9919,0.1352,0.0375,0.0305,0.0180,-0.0048,0.0132,-0.0094,-2.9422,1.4342,-3.0656
2024-10-11T12:02:31.842Z,-0.0176,-0.9940,0.1344,0.0375,0.0305,0.0180,-0.0073,0.0137,-0.0100,-2.9422,1.4342,-3.0656
2024-10-11T12:02:31.852Z,-0.0175,-0.9929,0.1407,0.0375,0.0305,0.0180,-0.0074,0.0147,-0.0115,-2.9422,1.4342,-3.0656
2024-10-11T12:02:31.862Z,-0.0135,-0.9968,0.1406,0.0279,0.0649,-0.0678,-0.0081,0.0158,-0.0111,-2.9405,1.4344,-3.0672
2024-10-11T12:02:31.872Z,-0.0117,-0.9987,0.1477,0.0279,0.0649,-0.0678,-0.0072,0.0162,-0.0108,-2.9405,1.4344,-3.0672
2024-10-11T12:02:31.882Z,-0.0142,-0.9985,0.1420,0.0279,0.0649,-0.0678,-0.0118,0.0176,-0.0136,-2.9405,1.4344,-3.0672
2024-10-11T12:02:31.892Z,-0.0139,-0.9977,0.1394,0.0419,0.0651,-0.0475,-0.0085,0.0167,-0.0103,-2.9383,1.4347,-3.0690
2024-10-11T12:02:31.901Z,-0.0141,-0.9967,0.1424,0.0419,0.0651,-0.0475,-0.0108,0.0179,-0.0131,-2.9383,1.4347,-3.0690
2024-10-11T12:02:31.912Z,-0.0126,-0.9940,0.1408,0.0419,0.0651,-0.0475,-0.0092,0.0194,-0.0116,-2.9383,1.4347,-3.0690
2024-10-11T12:02:31.922Z,-0.0093,-0.9949,0.1440,-0.0068,0.0360,-0.0798,-0.0123,0.0212,-0.0126,-2.9359,1.4350,-3.0710
2024-10-11T12:02:31.933Z,-0.0100,-0.9969,0.1413,-0.0068,0.0360,-0.0798,-0.0123,0.0245,-0.0125,-2.9359,1.4350,-3.0710
2024-10-11T12:02:31.943Z,-0.0093,-0.9995,0.1460,-0.0068,0.0360,-0.0798,-0.0144,0.0250,-0.0081,-2.9359,1.4350,-3.0710
2024-10-11T12:02:31.952Z,-0.0042,-1.0009,0.1378,-0.0647,0.1006,-0.0114,-0.0112,0.0286,-0.0092,-2.9341,1.4353,-3.0723
2024-10-11T12:02:31.962Z,-0.0017,-0.9980,0.1314,-0.0647,0.1006,-0.0114,-0.0127,0.0320,-0.0083,-2.9341,1.4353,-3.0723
2024-10-11T12:02:31.972Z,-0.0066,-0.9954,0.1301,-0.0647,0.1006,-0.0114,-0.0090,0.0331,-0.0077,-2.9341,1.4353,-3.0723
2024-10-11T12:02:31.982Z,-0.0024,-0.9927,0.1348,-0.0853,0.0150,0.0085,-0.0117,0.0347,-0.0075,-2.9329,1.4357,-3.0728
2024-10-11T12:02:31.992Z,-0.0030,-0.9889,0.1317,-0.0853,0.0150,0.0085,-0.0132,0.0382,-0.0052,-2.9329,1.4357,-3.0728
2024-10-11T12:02:32.002Z,-0.0064,-0.9884,0.1333,-0.0853,0.0150,0.0085,-0.0128,0.0420,-0.0048,-2.9329,1.4357,-3.0728
2024-10-11T12:02:32.012Z,-0.0108,-0.9856,0.1345,0.0129,-0.0553,-0.0133,-0.0127,0.0444,-0.0026,-2.9322,1.4360,-3.0726
2024-10-11T12:02:32.022Z,-0.0054,-0.9831,0.1345,0.0129,-0.0553,-0.0133,-0.0130,0.0447,-0.0035,-2.9322,1.4360,-3.0726
2024-10-11T12:02:32.032Z,-0.0003,-0.9802,0.1313,0.0129,-0.0553,-0.0133,-0.0137,0.0449,-0.0024,-2.9322,1.4360,-3.0726
2024-10-11T12:02:32.041Z,-0.0054,-0.9801,0.1325,-0.0236,-0.1041,0.0175,-0.0125,0.0403,-0.0016,-2.9319,1.4364,-3.0719
2024-10-11T12:02:32.052Z,-0.0096,-0.9823,0.1325,-0.0236,-0.1041,0.0175,-0.0133,0.0412,-0.0014,-2.9319,1.4364,-3.0719
2024-10-11T12:02:32.062Z,-0.0049,-0.9867,0.1319,-0.0236,-0.1041,0.0175,-0.0136,0.0455,-0.0024,-2.9319,1.4364,-3.0719
2024-10-11T12:02:32.072Z,-0.0076,-0.9870,0.1341,-0.0174,-0.0435,0.0017,-0.0161,0.0467,-0.0005,-2.9318,1.4368,-3.0709
2024-10-11T12:02:32.082Z,-0.0082,-0.9855,0.1358,-0.0174,-0.0435,0.0017,-0.0167,0.0444,-0.0017,-2.9318,1.4368,-3.0709
2024-10-11T12:02:32.092Z,-0.0136,-0.9854,0.1366,-0.0174,-0.0435,0.0017,-0.0119,0.0428,-0.0037,-2.9318,1.4368,-3.0709
2024-10-11T12:02:32.101Z,-0.0092,-0.9889,0.1366,-0.0341,-0.0145,-0.0282,-0.0150,0.0381,-0.0027,-2.9318,1.4372,-3.0699
2024-10-11T12:02:32.112Z,0.0005,-0.9913,0.1329,-0.0341,-0.0145,-0.0282,-0.0118,0.0360,-0.0015,-2.9318,1.4372,-3.0699
2024-10-11T12:02:32.122Z,-0.0005,-0.9946,0.1263,-0.0341,-0.0145,-0.0282,-0.0126,0.0368,-0.0015,-2.9318,1.4372,-3.0699
2024-10-11T12:02:32.133Z,-0.0040,-0.9904,0.1221,-0.0750,-0.0181,0.0993,-0.0114,0.0359,0.0019,-2.9319,1.4375,-3.0691
2024-10-11T12:02:32.142Z,-0.0023,-0.9883,0.1290,-0.0750,-0.0181,0.0993,-0.0120,0.0383,0.0011,-2.9319,1.4375,-3.0691
2024-10-11T12:02:32.153Z,-0.0056,-0.9877,0.1326,-0.0750,-0.0181,0.0993,-0.0119,0.0350,-0.0010,-2.9319,1.4375,-3.0691
2024-10-11T12:02:32.161Z,-0.0082,-0.9888,0.1270,0.0030,-0.0069,0.0269,-0.0106,0.0306,-0.0010,-2.9323,1.4378,-3.0680
2024-10-11T12:02:32.172Z,-0.0080,-0.9930,0.1319,0.0030,-0.0069,0.0269,-0.0104,0.0259,-0.0004,-2.9323,1.4378,-3.0680
2024-10-11T12:02:32.182Z,-0.0004,-0.9958,0.1310,0.0030,-0.0069,0.0269,-0.0122,0.0278,0.0005,-2.9323,1.4378,-3.0680
2024-10-11T12:02:32.192Z,-0.0054,-0.9949,0.1258,-0.0241,0.0216,0.0484,-0.0108,0.0251,0.0013,-2.9326,1.4381,-3.0672
2024-10-11T12:02:32.202Z,-0.0088,-0.9902,0.1243,-0.0241,0.0216,0.0484,-0.0101,0.0235,0.0001,-2.9326,1.4381,-3.0672
2024-10-11T12:02:32.212Z,-0.0121,-0.9861,0.1247,-0.0241,0.0216,0.0484,-0.0102,0.0236,-0.0021,-2.9326,1.4381,-3.0672
2024-10-11T12:02:32.222Z,-0.0153,-0.9850,0.1315,0.0508,-0.0528,-0.0080,-0.0109,0.0186,-0.0052,-2.9324,1.4383,-3.0670
2024-10-11T12:02:32.232Z,-0.0131,-0.9859,0.1336,0.0508,-0.0528,-0.0080,-0.0092,0.0176,-0.0044,-2.9324,1.4383,-3.0670
2024-10-11T12:02:32.242Z,-0.0141,-0.9877,0.1344,0.0508,-0.0528,-0.0080,-0.0085,0.0151,-0.0061,-2.9324,1.4383,-3.0670
2024-10-11T12:02:32.252Z,-0.0162,-0.9902,0.1317,0.0599,-0.0102,-0.0009,-0.0113,0.0144,-0.0063,-2.9316,1.4386,-3.0675
2024-10-11T12:02:32.262Z,-0.0135,-0.9908,0.1305,0.0599,-0.0102,-0.0009,-0.0103,0.0155,-0.0065,-2.9316,1.4386,-3.0675
2024-10-11T12:02:32.272Z,-0.0135,-0.9901,0.1332,0.0599,-0.0102,-0.0009,-0.0111,0.0146,-0.0086,-2.9316,1.4386,-3.0675
2024-10-11T12:02:32.282Z,-0.0123,-0.9955,0.1342,0.0303,0.0488,-0.0062,-0.0127,0.0186,-0.0080,-2.9303,1.4389,-3.0687
2024-10-11T12:02:32.292Z,-0.0116,-0.9957,0.1348,0.0303,0.0488,-0.0062,-0.0102,0.0133,-0.0074,-2.9303,1.4389,-3.0687
2024-10-11T12:02:32.301Z,-0.0080,-0.9957,0.1329,0.0303,0.0488,-0.0062,-0.0094,0.0155,-0.0111,-2.9303,1.4389,-3.0687
2024-10-11T12:02:32.312Z,-0.0040,-0.9946,0.1292,-0.0543,0.0416,0.0455,-0.0082,0.0166,-0.0061,-2.9291,1.4393,-3.0697
2024-10-11T12:02:32.322Z,-0.0046,-0.9930,0.1214,-0.0543,0.0416,0.0455,-0.0099,0.0158,-0.0080,-2.9291,1.4393,-3.0697
2024-10-11T12:02:32.332Z,-0.0067,-0.9929,0.1182,-0.0543,0.0416,0.0455,-0.0070,0.0223,-0.0080,-2.9291,1.4393,-3.0697
2024-10-11T12:02:32.342Z,-0.0034,-0.9959,0.1224,-0.0658,0.0421,0.0584,-0.0100,0.0208,-0.0046,-2.9282,1.4395,-3.0703
2024-10-11T12:02:32.351Z,0.0016,-0.9980,0.1298,-0.0658,0.0421,0.0584,-0.0075,0.0209,-0.0034,-2.9282,1.4395,-3.0703
2024-10-11T12:02:32.362Z,0.0032,-0.9983,0.1290,-0.0658,0.0421,0.0584,-0.0048,0.0208,-0.0026,-2.9282,1.4395,-3.0703
2024-10-11T12:02:32.372Z,-0.0032,-0.9969,0.1289,-0.0549,0.0404,0.0281,-0.0054,0.0221,-0.0017,-2.9279,1.4397,-3.0701
2024-10-11T12:02:32.383Z,-0.0020,-0.9962,0.1251,-0.0549,0.0404,0.0281,-0.0073,0.0231,0.0009,-2.9279,1.4397,-3.0701
2024-10-11T12:02:32.392Z,0.0013,-0.9949,0.1165,-0.0549,0.0404,0.0281,-0.0038,0.0243,0.0024,-2.9279,1.4397,-3.0701
2024-10-11T12:02:32.402Z,-0.0015,-0.9890,0.1157,-0.0651,-0.0310,0.1399,-0.0029,0.0309,0.0018,-2.9282,1.4398,-3.0693
2024-10-11T12:02:32.412Z,-0.0045,-0.9860,0.1154,-0.0651,-0.0310,0.1399,-0.0018,0.0330,0.0015,-2.9282,1.4398,-3.0693
2024-10-11T12:02:32.423Z,-0.0058,-0.9812,0.1274,-0.0651,-0.0310,0.1399,-0.0007,0.0248,0.0027,-2.9282,1.4398,-3.0693
2024-10-11T12:02:32.432Z,-0.0018,-0.9790,0.1251,-0.0798,-0.1243,0.0373,-0.0007,0.0248,0.0027,-2.9287,1.4398,-3.0683
2024-10-11T12:02:32.442Z,-0.0036,-0.9792,0.1274,-0.0798,-0.1243,0.0373,-0.0006,0.0266,0.0021,-2.9287,1.4398,-3.0683
2024-10-11T12:02:32.452Z,-0.0047,-0.9815,0.1297,-0.0798,-0.1243,0.0373,-0.0009,0.0249,0.0037,-2.9287,1.4398,-3.0683
2024-10-11T12:02:32.462Z,-0.0033,-0.9832,0.1287,-0.0617,-0.0763,0.0031,-0.0025,0.0269,0.0036,-2.9292,1.4398,-3.0674
2024-10-11T12:02:32.472Z,-0.0022,-0.9847,0.1364,-0.0617,-0.0763,0.0031,-0.0029,0.0239,0.0031,-2.9292,1.4398,-3.0674
2024-10-11T12:02:32.482Z,-0.0045,-0.9869,0.1363,-0.0617,-0.0763,0.0031,-0.0026,0.0249,0.0036,-2.9292,1.4398,-3.0674
2024-10-11T12:02:32.492Z,-0.0084,-0.9880,0.1370,-0.0095,-0.0217,-0.0872,-0.0031,0.0191,0.0026,-2.9299,1.4400,-3.0663
2024-10-11T12:02:32.501Z,-0.0081,-0.9885,0.1381,-0.0095,-0.0217,-0.0872,-0.0055,0.0171,0.0036,-2.9299,1.4400,-3.0663
2024-10-11T12:02:32.512Z,-0.0079,-0.9883,0.1326,-0.0095,-0.0217,-0.0872,-0.0028,0.0191,0.0022,-2.9299,1.4400,-3.0663
2024-10-11T12:02:32.522Z,-0.0077,-0.9901,0.1274,-0.0329,-0.0220,0.0159,-0.0040,0.0201,0.0015,-2.9305,1.4401,-3.0655
2024-10-11T12:02:32.532Z,-0.0061,-0.9899,0.1245,-0.0329,-0.0220,0.0159,-0.0050,0.0201,0.0009,-2.9305,1.4401,-3.0655
2024-10-11T12:02:32.542Z,-0.0029,-0.9922,0.1270,-0.0329,-0.0220,0.0159,-0.0052,0.0207,0.0007,-2.9305,1.4401,-3.0655
2024-10-11T12:02:32.552Z,-0.0043,-0.9926,0.1348,-0.0401,0.0166,-0.0399,-0.0040,0.0147,0.0004,-2.9309,1.4402,-3.0649
2024-10-11T12:02:32.563Z,-0.0074,-0.9926,0.1334,-0.0401,0.0166,-0.0399,-0.0027,0.0070,0.0003,-2.9309,1.4402,-3.0649
2024-10-11T12:02:32.571Z,-0.0071,-0.9956,0.1374,-0.0401,0.0166,-0.0399,-0.0027,0.0070,0.0003,-2.9309,1.4402,-3.0649
2024-10-11T12:02:32.583Z,-0.0061,-1.0007,0.1378,-0.0440,0.1035,-0.0521,-0.0050,0.0069,0.0003,-2.9314,1.4403,-3.0642
2024-10-11T12:02:32.592Z,-0.0052,-1.0035,0.1295,-0.0440,0.1035,-0.0521,-0.0036,0.0137,0.0029,-2.9314,1.4403,-3.0642
2024-10-11T12:02:32.603Z,-0.0098,-0.9996,0.1317,-0.0440,0.1035,-0.0521,-0.0125,0.0175,0.0008,-2.9314,1.4403,-3.0642
2024-10-11T12:02:32.612Z,-0.0142,-0.9982,0.1353,0.0344,0.0451,-0.0765,-0.0125,0.0175,0.0008,-2.9318,1.4404,-3.0638
2024-10-11T12:02:32.623Z,-0.0138,-0.9936,0.1486,0.0344,0.0451,-0.0765,-0.0136,0.0099,-0.0009,-2.9318,1.4404,-3.0638
2024-10-11T12:02:32.632Z,-0.0144,-0.9942,0.1479,0.0344,0.0451,-0.0765,-0.0136,0.0099,-0.0009,-2.9318,1.4404,-3.0638
2024-10-11T12:02:32.643Z,-0.0147,-0.9937,0.1497,0.0654,0.0158,-0.2010,-0.0172,0.0118,-0.0035,-2.9316,1.4408,-3.0639
2024-10-11T12:02:32.654Z,-0.0208,-0.9955,0.1548,0.0654,0.0158,-0.2010,-0.0231,0.0140,-0.0067,-2.9316,1.4408,-3.0639
2024-10-11T12:02:32.663Z,-0.0175,-0.9976,0.1528,0.0654,0.0158,-0.2010,-0.0226,0.0122,-0.0055,-2.9316,1.4408,-3.0639
2024-10-11T12:02:32.673Z,-0.0151,-0.9980,0.1525,0.0496,0.0636,-0.2162,-0.0247,0.0164,-0.0067,-2.9311,1.4414,-3.0643
2024-10-11T12:02:32.682Z,-0.0152,-0.9997,0.1436,0.0496,0.0636,-0.2162,-0.0247,0.0164,-0.0067,-2.9311,1.4414,-3.0643
2024-10-11T12:02:32.692Z,-0.0155,-1.0020,0.1388,0.0496,0.0636,-0.2162,-0.0277,0.0123,-0.0050,-2.9311,1.4414,-3.0643
2024-10-11T12:02:32.703Z,-0.0099,-1.0029,0.1338,-0.0150,0.1165,-0.0536,-0.0274,0.0122,-0.0043,-2.9305,1.4421,-3.0648
2024-10-11T12:02:32.713Z,-0.0074,-1.0044,0.1307,-0.0150,0.1165,-0.0536,-0.0277,0.0146,-0.0058,-2.9305,1.4421,-3.0648
2024-10-11T12:02:32.723Z,-0.0087,-0.9964,0.1323,-0.0150,0.1165,-0.0536,-0.0273,0.0171,-0.0080,-2.9305,1.4421,-3.0648
2024-10-11T12:02:32.732Z,-0.0108,-0.9917,0.1297,-0.0029,-0.0057,-0.0127,-0.0273,0.0171,-0.0080,-2.9299,1.4428,-3.0652
2024-10-11T12:02:32.743Z,-0.0032,-0.9919,0.1267,-0.0029,-0.0057,-0.0127,-0.0262,0.0194,-0.0049,-2.9299,1.4428,-3.0652
2024-10-11T12:02:32.753Z,-0.0021,-0.9932,0.1268,-0.0029,-0.0057,-0.0127,-0.0223,0.0134,-0.0039,-2.9299,1.4428,-3.0652
2024-10-11T12:02:32.762Z,-0.0024,-0.9970,0.1232,-0.0739,0.0595,0.0241,-0.0248,0.0130,-0.0018,-2.9298,1.4436,-3.0650
2024-10-11T12:02:32.773Z,-0.0031,-0.9976,0.1271,-0.0739,0.0595,0.0241,-0.0214,0.0132,0.0012,-2.9298,1.4436,-3.0650
2024-10-11T12:02:32.782Z,-0.0026,-0.9981,0.1307,-0.0739,0.0595,0.0241,-0.0214,0.0132,0.0012,-2.9298,1.4436,-3.0650
2024-10-11T12:02:32.792Z,-0.0001,-0.9943,0.1272,-0.0889,0.0195,-0.0398,-0.0244,0.0251,0.0041,-2.9306,1.4442,-3.0640
2024-10-11T12:02:32.802Z,-0.0038,-0.9932,0.1286,-0.0889,0.0195,-0.0398,-0.0244,0.0251,0.0041,-2.9306,1.4442,-3.0640
2024-10-11T12:02:32.812Z,-0.0018,-0.9918,0.1226,-0.0889,0.0195,-0.0398,-0.0236,0.0227,0.0041,-2.9306,1.4442,-3.0640
2024-10-11T12:02:32.823Z,-0.0054,-0.9920,0.1234,-0.0428,0.0010,0.0072,-0.0255,0.0163,0.0054,-2.9320,1.4449,-3.0623
2024-10-11T12:02:32.833Z,-0.0022,-0.9904,0.1266,-0.0428,0.0010,0.0072,-0.0255,0.0163,0.0054,-2.9320,1.4449,-3.0623
2024-10-11T12:02:32.842Z,-0.0082,-0.9874,0.1305,-0.0428,0.0010,0.0072,-0.0304,0.0216,0.0045,-2.9320,1.4449,-3.0623
2024-10-11T12:02:32.853Z,-0.0124,-0.9828,0.1387,0.0107,-0.0813,-0.1220,-0.0269,0.0189,0.0051,-2.9337,1.4456,-3.0604
2024-10-11T12:02:32.863Z,-0.0074,-0.9874,0.1258,0.0107,-0.0813,-0.1220,-0.0272,0.0157,0.0016,-2.9337,1.4456,-3.0604
2024-10-11T12:02:32.873Z,-0.0106,-0.9908,0.1217,0.0107,-0.0813,-0.1220,-0.0266,0.0188,0.0004,-2.9337,1.4456,-3.0604
2024-10-11T12:02:32.882Z,-0.0105,-0.9918,0.1201,0.0058,-0.0093,0.0327,-0.0266,0.0188,0.0004,-2.9348,1.4464,-3.0591
2024-10-11T12:02:32.892Z,-0.0087,-0.9897,0.1232,0.0058,-0.0093,0.0327,-0.0248,0.0111,0.0017,-2.9348,1.4464,-3.0591
2024-10-11T12:02:32.901Z,-0.0075,-0.9859,0.1177,0.0058,-0.0093,0.0327,-0.0248,0.0111,0.0017,-2.9348,1.4464,-3.0591
2024-10-11T12:02:32.912Z,-0.0130,-0.9865,0.1191,0.0385,-0.0645,0.0406,-0.0258,0.0114,0.0011,-2.9359,1.4470,-3.0579
2024-10-11T12:02:32.922Z,-0.0135,-0.9821,0.1280,0.0385,-0.0645,0.0406,-0.0253,0.0090,0.0019,-2.9359,1.4470,-3.0579
2024-10-11T12:02:32.934Z,-0.0127,-0.9833,0.1243,0.0385,-0.0645,0.0406,-0.0233,0.0122,0.0021,-2.9359,1.4470,-3.0579
2024-10-11T12:02:32.942Z,-0.0116,-0.9860,0.1202,0.0080,-0.0665,0.0179,-0.0244,0.0077,0.0013,-2.9371,1.4477,-3.0568
2024-10-11T12:02:32.953Z,-0.0072,-0.9858,0.1204,0.0080,-0.0665,0.0179,-0.0221,0.0049,0.0041,-2.9371,1.4477,-3.0568
2024-10-11T12:02:32.963Z,-0.0108,-0.9873,0.1205,0.0080,-0.0665,0.0179,-0.0215,0.0044,-0.0011,-2.9371,1.4477,-3.0568
2024-10-11T12:02:32.972Z,-0.0118,-0.9908,0.1174,0.0027,-0.0183,0.0380,-0.0194,0.0057,0.0018,-2.9379,1.4484,-3.0560
2024-10-11T12:02:32.984Z,-0.0059,-0.9941,0.1161,0.0027,-0.0183,0.0380,-0.0182,0.0046,0.0012,-2.9379,1.4484,-3.0560
2024-10-11T12:02:32.992Z,-0.0036,-0.9978,0.1138,0.0027,-0.0183,0.0380,-0.0198,0.0088,-0.0026,-2.9379,1.4484,-3.0560
2024-10-11T12:02:33.002Z,-0.0134,-0.9989,0.1183,0.0372,0.0681,0.0264,-0.0197,0.0089,0.0013,-2.9388,1.4489,-3.0551
2024-10-11T12:02:33.012Z,-0.0135,-0.9971,0.1168,0.0372,0.0681,0.0264,-0.0190,0.0066,-0.0012,-2.9388,1.4489,-3.0551
2024-10-11T12:02:33.023Z,-0.0141,-0.9925,0.1225,0.0372,0.0681,0.0264,-0.0193,-0.0004,-0.0008,-2.9388,1.4489,-3.0551
2024-10-11T12:02:33.034Z,-0.0119,-0.9890,0.1232,0.0289,-0.0243,-0.0393,-0.0186,0.0050,-0.0019,-2.9395,1.4495,-3.0545
2024-10-11T12:02:33.042Z,-0.0151,-0.9891,0.1222,0.0289,-0.0243,-0.0393,-0.0198,0.0031,-0.0022,-2.9395,1.4495,-3.0545
2024-10-11T12:02:33.053Z,-0.0151,-0.9891,0.1222,0.0289,-0.0243,-0.0393,-0.0158,0.0010,-0.0056,-2.9395,1.4495,-3.0545
2024-10-11T12:02:33.062Z,-0.0117,-0.9913,0.1127,0.0128,-0.0118,0.0788,-0.0173,0.0015,-0.0047,-2.9392,1.4500,-3.0549
2024-10-11T12:02:33.073Z,-0.0119,-0.9904,0.1131,0.0128,-0.0118,0.0788,-0.0157,-0.0005,-0.0055,-2.9392,1.4500,-3.0549
2024-10-11T12:02:33.083Z,-0.0115,-0.9870,0.1149,0.0128,-0.0118,0.0788,-0.0150,0.0012,-0.0057,-2.9392,1.4500,-3.0549
2024-10-11T12:02:33.092Z,-0.0154,-0.9889,0.1131,0.0496,-0.0188,0.0847,-0.0121,0.0056,-0.0023,-2.9387,1.4505,-3.0557
2024-10-11T12:02:33.102Z,-0.0116,-0.9905,0.1113,0.0496,-0.0188,0.0847,-0.0106,0.0053,-0.0058,-2.9387,1.4505,-3.0557
2024-10-11T12:02:33.112Z,-0.0077,-0.9923,0.1119,0.0496,-0.0188,0.0847,-0.0096,0.0075,-0.0034,-2.9387,1.4505,-3.0557
2024-10-11T12:02:33.123Z,-0.0063,-0.9951,0.1138,-0.0299,-0.0036,0.0560,-0.0051,0.0058,-0.0053,-2.9381,1.4508,-3.0563
2024-10-11T12:02:33.134Z,-0.0063,-0.9951,0.1138,-0.0299,-0.0036,0.0560,-0.0070,0.0107,-0.0042,-2.9381,1.4508,-3.0563
2024-10-11T12:02:33.142Z,-0.0070,-0.9925,0.1097,-0.0299,-0.0036,0.0560,-0.0041,0.0114,-0.0056,-2.9381,1.4508,-3.0563
2024-10-11T12:02:33.152Z,-0.0062,-0.9906,0.1099,-0.0287,-0.0342,0.1064,-0.0050,0.0133,-0.0047,-2.9378,1.4510,-3.0567
2024-10-11T12:02:33.162Z,-0.0128,-0.9918,0.0989,-0.0287,-0.0342,0.1064,-0.0001,0.0151,-0.0063,-2.9378,1.4510,-3.0567
2024-10-11T12:02:33.172Z,-0.0128,-0.9918,0.0989,-0.0287,-0.0342,0.1064,0.0033,0.0172,-0.0063,-2.9378,1.4510,-3.0567
2024-10-11T12:02:33.184Z,-0.0140,-0.9942,0.0961,0.0383,0.0181,0.2318,0.0055,0.0171,-0.0058,-2.9368,1.4511,-3.0575
2024-10-11T12:02:33.192Z,-0.0119,-0.9917,0.1073,0.0383,0.0181,0.2318,0.0068,0.0211,-0.0057,-2.9368,1.4511,-3.0575
2024-10-11T12:02:33.202Z,-0.0119,-0.9917,0.1073,0.0383,0.0181,0.2318,0.0059,0.0263,-0.0046,-2.9368,1.4511,-3.0575
2024-10-11T12:02:33.212Z,-0.0111,-0.9909,0.1157,-0.0157,-0.0291,0.0933,0.0038,0.0304,-0.0076,-2.9352,1.4510,-3.0587
2024-10-11T12:02:33.222Z,-0.0104,-0.9929,0.1192,-0.0157,-0.0291,0.0933,0.0043,0.0293,-0.0053,-2.9352,1.4510,-3.0587
2024-10-11T12:02:33.233Z,-0.0104,-0.9929,0.1192,-0.0157,-0.0291,0.0933,0.0025,0.0314,-0.0080,-2.9352,1.4510,-3.0587
2024-10-11T12:02:33.242Z,-0.0119,-0.9885,0.1197,-0.0078,-0.0125,-0.0215,0.0020,0.0332,-0.0077,-2.9335,1.4509,-3.0598
2024-10-11T12:02:33.252Z,-0.0146,-0.9872,0.1199,-0.0078,-0.0125,-0.0215,0.0000,0.0309,-0.0093,-2.9335,1.4509,-3.0598
2024-10-11T12:02:33.263Z,-0.0128,-0.9838,0.1253,-0.0078,-0.0125,-0.0215,-0.0012,0.0353,-0.0106,-2.9335,1.4509,-3.0598
2024-10-11T12:02:33.273Z,-0.0142,-0.9865,0.1227,0.0361,-0.0819,-0.0724,-0.0008,0.0369,-0.0111,-2.9320,1.4509,-3.0605
2024-10-11T12:02:33.284Z,-0.0142,-0.9865,0.1227,0.0361,-0.0819,-0.0724,0.0014,0.0368,-0.0107,-2.9320,1.4509,-3.0605
2024-10-11T12:02:33.292Z,-0.0079,-0.9913,0.1203,0.0361,-0.0819,-0.0724,-0.0004,0.0381,-0.0093,-2.9320,1.4509,-3.0605
2024-10-11T12:02:33.302Z,-0.0084,-0.9899,0.1115,0.0382,-0.0128,0.0602,-0.0023,0.0382,-0.0111,-2.9297,1.4510,-3.0620
2024-10-11T12:02:33.313Z,-0.0056,-0.9844,0.1205,0.0382,-0.0128,0.0602,-0.0041,0.0398,-0.0095,-2.9297,1.4510,-3.0620
2024-10-11T12:02:33.322Z,-0.0056,-0.9844,0.1205,0.0382,-0.0128,0.0602,-0.0063,0.0408,-0.0084,-2.9297,1.4510,-3.0620
2024-10-11T12:02:33.332Z,-0.0050,-0.9868,0.1235,-0.0714,-0.0671,-0.0841,-0.0053,0.0392,-0.0087,-2.9278,1.4511,-3.0630
2024-10-11T12:02:33.342Z,-0.0050,-0.9868,0.1235,-0.0714,-0.0671,-0.0841,-0.0026,0.0372,-0.0083,-2.9278,1.4511,-3.0630
2024-10-11T12:02:33.353Z,-0.0095,-0.9911,0.1076,-0.0714,-0.0671,-0.0841,-0.0015,0.0343,-0.0099,-2.9278,1.4511,-3.0630
2024-10-11T12:02:33.362Z,-0.0093,-0.9923,0.1106,0.0050,-0.0157,0.1153,-0.0021,0.0321,-0.0075,-2.9260,1.4512,-3.0640
2024-10-11T12:02:33.373Z,-0.0036,-0.9932,0.1133,0.0050,-0.0157,0.1153,-0.0015,0.0296,-0.0057,-2.9260,1.4512,-3.0640
2024-10-11T12:02:33.383Z,-0.0069,-0.9969,0.1160,0.0050,-0.0157,0.1153,-0.0009,0.0294,-0.0038,-2.9260,1.4512,-3.0640
2024-10-11T12:02:33.392Z,-0.0072,-0.9992,0.1195,-0.0027,0.0454,0.0201,-0.0034,0.0276,-0.0043,-2.9245,1.4513,-3.0648
2024-10-11T12:02:33.403Z,-0.0056,-0.9987,0.1184,-0.0027,0.0454,0.0201,-0.0071,0.0289,-0.0032,-2.9245,1.4513,-3.0648
2024-10-11T12:02:33.412Z,-0.0074,-0.9960,0.1224,-0.0027,0.0454,0.0201,-0.0052,0.0264,-0.0022,-2.9245,1.4513,-3.0648
2024-10-11T12:02:33.422Z,-0.0133,-0.9958,0.1192,-0.0028,0.0311,-0.0188,-0.0067,0.0229,-0.0000,-2.9237,1.4514,-3.0650
2024-10-11T12:02:33.432Z,-0.0120,-0.9927,0.1190,-0.0028,0.0311,-0.0188,-0.0078,0.0205,-0.0002,-2.9237,1.4514,-3.0650
2024-10-11T12:02:33.442Z,-0.0088,-0.9900,0.1198,-0.0028,0.0311,-0.0188,-0.0093,0.0205,-0.0012,-2.9237,1.4514,-3.0650
2024-10-11T12:02:33.453Z,-0.0115,-0.9897,0.1135,0.0062,-0.0298,0.0058,-0.0080,0.0116,-0.0015,-2.9237,1.4516,-3.0646
2024-10-11T12:02:33.463Z,-0.0146,-0.9880,0.1153,0.0062,-0.0298,0.0058,-0.0076,0.0107,0.0000,-2.9237,1.4516,-3.0646
2024-10-11T12:02:33.472Z,-0.0142,-0.9880,0.1150,0.0062,-0.0298,0.0058,-0.0078,0.0131,-0.0005,-2.9237,1.4516,-3.0646
2024-10-11T12:02:33.483Z,-0.0169,-0.9880,0.1088,0.0581,-0.0440,0.0550,-0.0050,0.0100,0.0011,-2.9238,1.4519,-3.0643
2024-10-11T12:02:33.492Z,-0.0130,-0.9877,0.1057,0.0581,-0.0440,0.0550,-0.0087,0.0091,-0.0015,-2.9238,1.4519,-3.0643
2024-10-11T12:02:33.501Z,-0.0130,-0.9877,0.1057,0.0581,-0.0440,0.0550,-0.0079,0.0090,-0.0024,-2.9238,1.4519,-3.0643
2024-10-11T12:02:33.512Z,-0.0131,-0.9887,0.1075,0.0381,-0.0549,0.1100,-0.0052,0.0067,0.0024,-2.9242,1.4521,-3.0640
2024-10-11T12:02:33.522Z,-0.0072,-0.9873,0.1079,0.0381,-0.0549,0.1100,-0.0045,0.0012,0.0030,-2.9242,1.4521,-3.0640
2024-10-11T12:02:33.532Z,-0.0059,-0.9862,0.1099,0.0381,-0.0549,0.1100,-0.0055,0.0045,0.0006,-2.9242,1.4521,-3.0640
2024-10-11T12:02:33.542Z,-0.0145,-0.9827,0.1048,-0.0143,-0.0832,0.0917,-0.0053,0.0046,0.0037,-2.9251,1.4522,-3.0633
2024-10-11T12:02:33.552Z,-0.0145,-0.9827,0.1048,-0.0143,-0.0832,0.0917,-0.0032,0.0023,0.0022,-2.9251,1.4522,-3.0633
2024-10-11T12:02:33.562Z,-0.0081,-0.9811,0.1031,-0.0143,-0.0832,0.0917,-0.0001,0.0045,0.0052,-2.9251,1.4522,-3.0633
2024-10-11T12:02:33.572Z,-0.0077,-0.9834,0.1031,-0.0160,-0.1130,0.1411,0.0007,0.0027,0.0040,-2.9264,1.4523,-3.0621
2024-10-11T12:02:33.582Z,-0.0138,-0.9867,0.1043,-0.0160,-0.1130,0.1411,0.0020,0.0064,0.0038,-2.9264,1.4523,-3.0621
2024-10-11T12:02:33.592Z,-0.0170,-0.9912,0.1090,-0.0160,-0.1130,0.1411,0.0027,0.0070,0.0050,-2.9264,1.4523,-3.0621
2024-10-11T12:02:33.601Z,-0.0170,-0.9912,0.1090,0.0622,-0.0113,0.0878,0.0034,0.0064,0.0039,-2.9279,1.4523,-3.0607
2024-10-11T12:02:33.612Z,-0.0168,-0.9988,0.1126,0.0622,-0.0113,0.0878,0.0043,0.0082,0.0024,-2.9279,1.4523,-3.0607
2024-10-11T12:02:33.622Z,-0.0171,-1.0019,0.1123,0.0622,-0.0113,0.0878,0.0068,0.0047,0.0041,-2.9279,1.4523,-3.0607
2024-10-11T12:02:33.632Z,-0.0169,-1.0012,0.1108,0.0786,0.0882,0.0444,0.0070,0.0064,0.0019,-2.9288,1.4522,-3.0599
2024-10-11T12:02:33.642Z,-0.0122,-1.0012,0.1163,0.0786,0.0882,0.0444,0.0090,0.0090,0.0007,-2.9288,1.4522,-3.0599
2024-10-11T12:02:33.652Z,-0.0122,-1.0012,0.1163,0.0786,0.0882,0.0444,0.0088,0.0071,-0.0000,-2.9288,1.4522,-3.0599
2024-10-11T12:02:33.662Z,-0.0177,-0.9963,0.1256,0.0304,0.0422,-0.0355,0.0072,0.0140,0.0021,-2.9295,1.4520,-3.0591
2024-10-11T12:02:33.672Z,-0.0222,-0.9979,0.1294,0.0304,0.0422,-0.0355,0.0058,0.0160,0.0008,-2.9295,1.4520,-3.0591
2024-10-11T12:02:33.682Z,-0.0150,-0.9976,0.1334,0.0304,0.0422,-0.0355,-0.0002,0.0198,0.0036,-2.9295,1.4520,-3.0591
2024-10-11T12:02:33.692Z,-0.0123,-0.9983,0.1331,0.0368,0.0467,-0.1592,0.0016,0.0181,-0.0015,-2.9301,1.4519,-3.0584
2024-10-11T12:02:33.702Z,-0.0123,-0.9983,0.1331,0.0368,0.0467,-0.1592,0.0020,0.0228,-0.0004,-2.9301,1.4519,-3.0584
2024-10-11T12:02:33.712Z,-0.0071,-1.0001,0.1263,0.0368,0.0467,-0.1592,0.0023,0.0218,0.0012,-2.9301,1.4519,-3.0584
2024-10-11T12:02:33.721Z,-0.0097,-0.9986,0.1255,-0.0389,0.0605,-0.0902,-0.0004,0.0267,0.0015,-2.9307,1.4518,-3.0575
2024-10-11T12:02:33.732Z,-0.0143,-0.9987,0.1302,-0.0389,0.0605,-0.0902,0.0000,0.0301,0.0003,-2.9307,1.4518,-3.0575
2024-10-11T12:02:33.742Z,-0.0159,-0.9980,0.1273,-0.0389,0.0605,-0.0902,-0.0035,0.0317,-0.0012,-2.9307,1.4518,-3.0575
2024-10-11T12:02:33.752Z,-0.0159,-0.9980,0.1273,0.0475,0.0481,-0.0663,-0.0061,0.0354,-0.0034,-2.9310,1.4518,-3.0566
2024-10-11T12:02:33.762Z,-0.0061,-0.9944,0.1273,0.0475,0.0481,-0.0663,-0.0048,0.0338,-0.0030,-2.9310,1.4518,-3.0566
2024-10-11T12:02:33.772Z,-0.0138,-0.9950,0.1264,0.0475,0.0481,-0.0663,-0.0086,0.0276,-0.0018,-2.9310,1.4518,-3.0566
2024-10-11T12:02:33.782Z,-0.0216,-0.9925,0.1268,0.0717,0.0125,-0.0572,-0.0063,0.0317,-0.0055,-2.9309,1.4519,-3.0560
2024-10-11T12:02:33.792Z,-0.0153,-0.9902,0.1250,0.0717,0.0125,-0.0572,-0.0070,0.0335,-0.0039,-2.9309,1.4519,-3.0560
2024-10-11T12:02:33.802Z,-0.0153,-0.9902,0.1250,0.0717,0.0125,-0.0572,-0.0124,0.0367,-0.0074,-2.9309,1.4519,-3.0560
2024-10-11T12:02:33.812Z,-0.0064,-0.9885,0.1217,-0.0078,-0.0297,-0.0369,-0.0143,0.0422,-0.0054,-2.9300,1.4522,-3.0561
2024-10-11T12:02:33.822Z,-0.0067,-0.9867,0.1170,-0.0078,-0.0297,-0.0369,-0.0123,0.0398,-0.0081,-2.9300,1.4522,-3.0561
2024-10-11T12:02:33.832Z,-0.0048,-0.9847,0.1105,-0.0078,-0.0297,-0.0369,-0.0088,0.0366,-0.0067,-2.9300,1.4522,-3.0561
2024-10-11T12:02:33.842Z,0.0010,-0.9850,0.1149,-0.0703,-0.0887,0.0618,-0.0117,0.0350,-0.0065,-2.9288,1.4525,-3.0564
2024-10-11T12:02:33.852Z,-0.0042,-0.9878,0.1144,-0.0703,-0.0887,0.0618,-0.0113,0.0385,-0.0065,-2.9288,1.4525,-3.0564
2024-10-11T12:02:33.862Z,-0.0052,-0.9920,0.1149,-0.0703,-0.0887,0.0618,-0.0107,0.0377,-0.0080,-2.9288,1.4525,-3.0564
2024-10-11T12:02:33.873Z,-0.0018,-0.9945,0.1146,-0.0593,0.0043,0.0341,-0.0118,0.0368,-0.0046,-2.9276,1.4528,-3.0567
2024-10-11T12:02:33.882Z,-0.0048,-0.9923,0.1275,-0.0593,0.0043,0.0341,-0.0146,0.0389,-0.0062,-2.9276,1.4528,-3.0567
2024-10-11T12:02:33.892Z,-0.0021,-0.9909,0.1219,-0.0593,0.0043,0.0341,-0.0111,0.0360,-0.0102,-2.9276,1.4528,-3.0567
2024-10-11T12:02:33.902Z,-0.0079,-0.9915,0.1108,-0.0749,-0.0106,-0.0452,-0.0111,0.0360,-0.0102,-2.9264,1.4531,-3.0571
2024-10-11T12:02:33.912Z,-0.0079,-0.9924,0.1146,-0.0749,-0.0106,-0.0452,-0.0110,0.0309,-0.0109,-2.9264,1.4531,-3.0571
2024-10-11T12:02:33.922Z,-0.0086,-0.9938,0.1137,-0.0749,-0.0106,-0.0452,-0.0102,0.0279,-0.0092,-2.9264,1.4531,-3.0571
2024-10-11T12:02:33.933Z,-0.0107,-0.9957,0.1167,-0.0065,0.0092,0.0208,-0.0103,0.0230,-0.0095,-2.9245,1.4535,-3.0582
2024-10-11T12:02:33.942Z,-0.0068,-0.9958,0.1173,-0.0065,0.0092,0.0208,-0.0135,0.0229,-0.0103,-2.9245,1.4535,-3.0582
2024-10-11T12:02:33.952Z,-0.0041,-0.9958,0.1189,-0.0065,0.0092,0.0208,-0.0123,0.0221,-0.0105,-2.9245,1.4535,-3.0582
2024-10-11T12:02:33.961Z,-0.0021,-0.9966,0.1192,-0.0587,0.0342,-0.0276,-0.0138,0.0193,-0.0069,-2.9223,1.4539,-3.0600
2024-10-11T12:02:33.972Z,-0.0040,-0.9972,0.1179,-0.0587,0.0342,-0.0276,-0.0108,0.0187,-0.0085,-2.9223,1.4539,-3.0600
2024-10-11T12:02:33.982Z,-0.0071,-0.9946,0.1266,-0.0587,0.0342,-0.0276,-0.0147,0.0232,-0.0101,-2.9223,1.4539,-3.0600
2024-10-11T12:02:33.992Z,-0.0063,-0.9985,0.1301,-0.0162,0.0153,-0.1364,-0.0135,0.0215,-0.0071,-2.9206,1.4543,-3.0613
2024-10-11T12:02:34.003Z,-0.0016,-0.9945,0.1343,-0.0162,0.0153,-0.1364,-0.0156,0.0227,-0.0082,-2.9206,1.4543,-3.0613
2024-10-11T12:02:34.012Z,-0.0097,-0.9967,0.1280,-0.0162,0.0153,-0.1364,-0.0166,0.0209,-0.0100,-2.9206,1.4543,-3.0613
2024-10-11T12:02:34.022Z,-0.0088,-1.0010,0.1207,0.0199,0.0338,-0.0827,-0.0195,0.0189,-0.0072,-2.9189,1.4548,-3.0627
2024-10-11T12:02:34.032Z,-0.0120,-1.0030,0.1194,0.0199,0.0338,-0.0827,-0.0160,0.0215,-0.0096,-2.9189,1.4548,-3.0627
2024-10-11T12:02:34.042Z,-0.0085,-1.0040,0.1251,0.0199,0.0338,-0.0827,-0.0197,0.0204,-0.0072,-2.9189,1.4548,-3.0627
2024-10-11T12:02:34.052Z,-0.0034,-1.0034,0.1200,-0.0159,0.1019,-0.0887,-0.0164,0.0217,-0.0064,-2.9175,1.4553,-3.0637
2024-10-11T12:02:34.062Z,-0.0052,-1.0010,0.1198,-0.0159,0.1019,-0.0887,-0.0188,0.0246,-0.0056,-2.9175,1.4553,-3.0637
2024-10-11T12:02:34.072Z,-0.0022,-1.0020,0.1169,-0.0159,0.1019,-0.0887,-0.0201,0.0250,-0.0058,-2.9175,1.4553,-3.0637
2024-10-11T12:02:34.082Z,-0.0017,-1.0001,0.1197,-0.0811,0.0792,-0.0335,-0.0201,0.0249,-0.0044,-2.9166,1.4557,-3.0642
2024-10-11T12:02:34.092Z,-0.0029,-0.9979,0.1133,-0.0811,0.0792,-0.0335,-0.0169,0.0243,-0.0056,-2.9166,1.4557,-3.0642
2024-10-11T12:02:34.103Z,-0.0023,-0.9986,0.1020,-0.0811,0.0792,-0.0335,-0.0179,0.0240,-0.0019,-2.9166,1.4557,-3.0642
2024-10-11T12:02:34.112Z,-0.0007,-0.9966,0.1088,-0.0684,0.0352,0.1030,-0.0171,0.0243,-0.0022,-2.9160,1.4563,-3.0643
2024-10-11T12:02:34.122Z,0.0031,-0.9966,0.1058,-0.0684,0.0352,0.1030,-0.0153,0.0210,-0.0037,-2.9160,1.4563,-3.0643
2024-10-11T12:02:34.132Z,0.0005,-0.9925,0.1124,-0.0684,0.0352,0.1030,-0.0134,0.0226,-0.0013,-2.9160,1.4563,-3.0643
2024-10-11T12:02:34.142Z,0.0027,-0.9911,0.1070,-0.0951,-0.0114,0.0230,-0.0140,0.0202,-0.0007,-2.9161,1.4567,-3.0638
2024-10-11T12:02:34.153Z,-0.0035,-0.9902,0.1111,-0.0951,-0.0114,0.0230,-0.0149,0.0186,-0.0010,-2.9161,1.4567,-3.0638
2024-10-11T12:02:34.162Z,-0.0093,-0.9875,0.1143,-0.0951,-0.0114,0.0230,-0.0124,0.0158,0.0004,-2.9161,1.4567,-3.0638
2024-10-11T12:02:34.172Z,-0.0030,-0.9848,0.1108,-0.0012,-0.0711,-0.0137,-0.0149,0.0159,-0.0002,-2.9162,1.4571,-3.0634
2024-10-11T12:02:34.182Z,0.0010,-0.9832,0.1076,-0.0012,-0.0711,-0.0137,-0.0129,0.0184,-0.0026,-2.9162,1.4571,-3.0634
2024-10-11T12:02:34.192Z,-0.0044,-0.9829,0.1108,-0.0012,-0.0711,-0.0137,-0.0105,0.0124,-0.0004,-2.9162,1.4571,-3.0634
2024-10-11T12:02:34.202Z,-0.0059,-0.9804,0.1075,-0.0347,-0.1030,0.0330,-0.0101,0.0110,-0.0002,-2.9168,1.4575,-3.0626
2024-10-11T12:02:34.212Z,-0.0097,-0.9810,0.1112,-0.0347,-0.1030,0.0330,-0.0100,0.0088,-0.0025,-2.9168,1.4575,-3.0626
2024-10-11T12:02:34.222Z,-0.0095,-0.9833,0.1127,-0.0347,-0.1030,0.0330,-0.0109,0.0067,-0.0010,-2.9168,1.4575,-3.0626
2024-10-11T12:02:34.232Z,-0.0084,-0.9838,0.1097,0.0111,-0.0924,0.0077,-0.0108,0.0057,-0.0015,-2.9167,1.4578,-3.0627
2024-10-11T12:02:34.242Z,-0.0022,-0.9849,0.1106,0.0111,-0.0924,0.0077,-0.0100,0.0036,-0.0018,-2.9167,1.4578,-3.0627
2024-10-11T12:02:34.252Z,-0.0042,-0.9844,0.1078,0.0111,-0.0924,0.0077,-0.0063,0.0020,-0.0027,-2.9167,1.4578,-3.0627
2024-10-11T12:02:34.262Z,-0.0069,-0.9844,0.1084,-0.0387,-0.0886,0.0254,-0.0036,-0.0008,-0.0036,-2.9164,1.4580,-3.0632
2024-10-11T12:02:34.272Z,-0.0029,-0.9854,0.1053,-0.0387,-0.0886,0.0254,-0.0046,-0.0033,-0.0035,-2.9164,1.4580,-3.0632
2024-10-11T12:02:34.282Z,-0.0068,-0.9874,0.1062,-0.0387,-0.0886,0.0254,-0.0050,-0.0030,-0.0017,-2.9164,1.4580,-3.0632
2024-10-11T12:02:34.292Z,-0.0076,-0.9858,0.1051,-0.0137,-0.0628,0.0635,-0.0011,-0.0028,-0.0019,-2.9159,1.4581,-3.0640
2024-10-11T12:02:34.304Z,-0.0056,-0.9847,0.1010,-0.0137,-0.0628,0.0635,-0.0015,-0.0051,-0.0041,-2.9159,1.4581,-3.0640
2024-10-11T12:02:34.312Z,-0.0088,-0.9819,0.1064,-0.0137,-0.0628,0.0635,-0.0016,-0.0054,-0.0054,-2.9159,1.4581,-3.0640
2024-10-11T12:02:34.322Z,-0.0075,-0.9844,0.1051,0.0046,-0.1050,0.0547,0.0009,-0.0101,-0.0023,-2.9151,1.4582,-3.0652
2024-10-11T12:02:34.332Z,-0.0057,-0.9866,0.1046,0.0046,-0.1050,0.0547,0.0034,-0.0108,-0.0031,-2.9151,1.4582,-3.0652
2024-10-11T12:02:34.342Z,-0.0113,-0.9876,0.1052,0.0046,-0.1050,0.0547,0.0010,-0.0105,-0.0054,-2.9151,1.4582,-3.0652
2024-10-11T12:02:34.353Z,-0.0149,-0.9912,0.1106,0.0391,-0.0580,0.0588,0.0042,-0.0132,-0.0033,-2.9138,1.4581,-3.0670
2024-10-11T12:02:34.362Z,-0.0139,-0.9886,0.1130,0.0391,-0.0580,0.0588,0.0025,-0.0103,-0.0055,-2.9138,1.4581,-3.0670
2024-10-11T12:02:34.371Z,-0.0068,-0.9916,0.1086,0.0391,-0.0580,0.0588,0.0014,-0.0090,-0.0053,-2.9138,1.4581,-3.0670
2024-10-11T12:02:34.383Z,-0.0060,-0.9955,0.1101,-0.0288,-0.0078,0.0538,0.0046,-0.0060,-0.0059,-2.9123,1.4580,-3.0691
2024-10-11T12:02:34.392Z,-0.0088,-0.9985,0.1098,-0.0288,-0.0078,0.0538,0.0027,-0.0061,-0.0074,-2.9123,1.4580,-3.0691
2024-10-11T12:02:34.402Z,-0.0097,-1.0025,0.1111,-0.0288,-0.0078,0.0538,0.0047,-0.0044,-0.0034,-2.9123,1.4580,-3.0691
2024-10-11T12:02:34.412Z,-0.0087,-1.0035,0.1185,0.0229,0.0884,-0.0067,-0.0008,-0.0007,-0.0069,-2.9110,1.4580,-3.0709
2024-10-11T12:02:34.421Z,-0.0072,-1.0035,0.1221,0.0229,0.0884,-0.0067,0.0024,0.0000,-0.0043,-2.9110,1.4580,-3.0709
2024-10-11T12:02:34.432Z,-0.0104,-1.0042,0.1239,0.0229,0.0884,-0.0067,0.0014,0.0030,-0.0047,-2.9110,1.4580,-3.0709
2024-10-11T12:02:34.441Z,-0.0117,-1.0072,0.1217,0.0345,0.0991,-0.1180,0.0008,0.0006,-0.0028,-2.9101,1.4579,-3.0721
2024-10-11T12:02:34.452Z,-0.0050,-1.0087,0.1158,0.0345,0.0991,-0.1180,-0.0007,0.0007,-0.0000,-2.9101,1.4579,-3.0721
2024-10-11T12:02:34.462Z,-0.0017,-1.0074,0.1162,0.0345,0.0991,-0.1180,-0.0007,0.0089,-0.0031,-2.9101,1.4579,-3.0721
2024-10-11T12:02:34.471Z,-0.0083,-1.0062,0.1209,-0.0405,0.1322,-0.0566,-0.0037,0.0114,0.0004,-2.9098,1.4579,-3.0725
2024-10-11T12:02:34.482Z,-0.0067,-1.0051,0.1298,-0.0405,0.1322,-0.0566,-0.0046,0.0133,-0.0008,-2.9098,1.4579,-3.0725
2024-10-11T12:02:34.492Z,-0.0033,-1.0058,0.1324,-0.0405,0.1322,-0.0566,-0.0084,0.0174,0.0025,-2.9098,1.4579,-3.0725
2024-10-11T12:02:34.502Z,-0.0134,-1.0094,0.1302,-0.0250,0.1241,-0.1969,-0.0100,0.0188,0.0016,-2.9104,1.4580,-3.0718
2024-10-11T12:02:34.512Z,-0.0135,-1.0088,0.1404,-0.0250,0.1241,-0.1969,-0.0157,0.0209,0.0020,-2.9104,1.4580,-3.0718
2024-10-11T12:02:34.522Z,-0.0121,-1.0063,0.1349,-0.0250,0.1241,-0.1969,-0.0167,0.0238,0.0014,-2.9104,1.4580,-3.0718
2024-10-11T12:02:34.532Z,-0.0099,-1.0077,0.1270,0.0388,0.1361,-0.2050,-0.0194,0.0266,-0.0004,-2.9113,1.4584,-3.0705
2024-10-11T12:02:34.542Z,-0.0112,-1.0043,0.1240,0.0388,0.1361,-0.2050,-0.0201,0.0264,0.0017,-2.9113,1.4584,-3.0705
2024-10-11T12:02:34.552Z,-0.0084,-1.0041,0.1206,0.0388,0.1361,-0.2050,-0.0205,0.0296,0.0040,-2.9113,1.4584,-3.0705
2024-10-11T12:02:34.561Z,-0.0048,-1.0014,0.1078,0.0054,0.1020,-0.0387,-0.0200,0.0291,0.0047,-2.9124,1.4590,-3.0689
2024-10-11T12:02:34.572Z,-0.0004,-0.9987,0.0996,0.0054,0.1020,-0.0387,-0.0161,0.0293,0.0035,-2.9124,1.4590,-3.0689
2024-10-11T12:02:34.582Z,-0.0062,-0.9950,0.1024,0.0054,0.1020,-0.0387,-0.0157,0.0337,0.0047,-2.9124,1.4590,-3.0689
2024-10-11T12:02:34.592Z,-0.0116,-0.9924,0.1003,-0.0042,-0.0015,0.0816,-0.0177,0.0364,0.0045,-2.9143,1.4594,-3.0664
2024-10-11T12:02:34.602Z,-0.0066,-0.9867,0.0973,-0.0042,-0.0015,0.0816,-0.0147,0.0369,0.0044,-2.9143,1.4594,-3.0664
2024-10-11T12:02:34.612Z,-0.0019,-0.9867,0.0954,-0.0042,-0.0015,0.0816,-0.0150,0.0380,0.0055,-2.9143,1.4594,-3.0664
2024-10-11T12:02:34.621Z,-0.0095,-0.9873,0.0986,-0.0456,-0.0724,0.1533,-0.0105,0.0365,0.0068,-2.9162,1.4598,-3.0636
2024-10-11T12:02:34.632Z,-0.0167,-0.9871,0.0951,-0.0456,-0.0724,0.1533,-0.0121,0.0415,0.0040,-2.9162,1.4598,-3.0636
2024-10-11T12:02:34.642Z,-0.0124,-0.9869,0.0902,-0.0456,-0.0724,0.1533,-0.0093,0.0381,0.0042,-2.9162,1.4598,-3.0636
2024-10-11T12:02:34.652Z,-0.0103,-0.9883,0.0866,0.0206,-0.0714,0.2199,-0.0042,0.0402,0.0039,-2.9178,1.4601,-3.0611
2024-10-11T12:02:34.662Z,-0.0112,-0.9867,0.0867,0.0206,-0.0714,0.2199,-0.0029,0.0394,0.0035,-2.9178,1.4601,-3.0611
2024-10-11T12:02:34.672Z,-0.0127,-0.9834,0.0831,0.0206,-0.0714,0.2199,-0.0003,0.0408,0.0018,-2.9178,1.4601,-3.0611
2024-10-11T12:02:34.682Z,-0.0110,-0.9831,0.0825,0.0428,-0.1092,0.2639,0.0018,0.0416,0.0043,-2.9188,1.4602,-3.0591
2024-10-11T12:02:34.692Z,-0.0066,-0.9810,0.0916,0.0428,-0.1092,0.2639,0.0023,0.0401,0.0029,-2.9188,1.4602,-3.0591
2024-10-11T12:02:34.702Z,-0.0095,-0.9801,0.0948,0.0428,-0.1092,0.2639,0.0036,0.0395,0.0037,-2.9188,1.4602,-3.0591
2024-10-11T12:02:34.712Z,-0.0092,-0.9806,0.0957,0.0075,-0.1427,0.1341,0.0054,0.0424,0.0036,-2.9196,1.4601,-3.0573
2024-10-11T12:02:34.723Z,-0.0090,-0.9806,0.0908,0.0075,-0.1427,0.1341,0.0046,0.0451,0.0036,-2.9196,1.4601,-3.0573
2024-10-11T12:02:34.732Z,-0.0098,-0.9817,0.1001,0.0075,-0.1427,0.1341,0.0060,0.0471,-0.0036,-2.9196,1.4601,-3.0573
2024-10-11T12:02:34.742Z,-0.0099,-0.9842,0.0999,-0.0039,-0.1151,0.0852,0.0063,0.0468,0.0005,-2.9203,1.4600,-3.0557
2024-10-11T12:02:34.752Z,-0.0134,-0.9887,0.0976,-0.0039,-0.1151,0.0852,0.0085,0.0445,-0.0024,-2.9203,1.4600,-3.0557
2024-10-11T12:02:34.761Z,-0.0151,-0.9868,0.0984,-0.0039,-0.1151,0.0852,0.0062,0.0467,-0.0053,-2.9203,1.4600,-3.0557
2024-10-11T12:02:34.772Z,-0.0142,-0.9904,0.1056,0.0543,-0.0573,0.0969,0.0119,0.0424,-0.0066,-2.9198,1.4598,-3.0551
2024-10-11T12:02:34.782Z,-0.0083,-0.9883,0.1118,0.0543,-0.0573,0.0969,0.0079,0.0419,-0.0037,-2.9198,1.4598,-3.0551
2024-10-11T12:02:34.792Z,-0.0100,-0.9889,0.1145,0.0543,-0.0573,0.0969,0.0069,0.0443,-0.0042,-2.9198,1.4598,-3.0551
2024-10-11T12:02:34.803Z,-0.0076,-0.9908,0.1116,0.0013,-0.0419,-0.0130,0.0057,0.0409,-0.0046,-2.9187,1.4596,-3.0551
2024-10-11T12:02:34.812Z,-0.0119,-0.9953,0.1133,0.0013,-0.0419,-0.0130,0.0052,0.0389,-0.0053,-2.9187,1.4596,-3.0551
2024-10-11T12:02:34.822Z,-0.0091,-0.9963,0.1138,0.0013,-0.0419,-0.0130,0.0054,0.0388,-0.0068,-2.9187,1.4596,-3.0551
2024-10-11T12:02:34.832Z,-0.0115,-0.9942,0.1088,-0.0031,0.0269,-0.0235,0.0068,0.0392,-0.0069,-2.9175,1.4595,-3.0554
2024-10-11T12:02:34.842Z,-0.0072,-0.9945,0.1088,-0.0031,0.0269,-0.0235,0.0061,0.0395,-0.0071,-2.9175,1.4595,-3.0554
2024-10-11T12:02:34.852Z,-0.0046,-0.9933,0.1118,-0.0031,0.0269,-0.0235,0.0050,0.0386,-0.0059,-2.9175,1.4595,-3.0554
2024-10-11T12:02:34.862Z,-0.0038,-0.9925,0.1142,-0.0557,-0.0117,-0.0329,0.0059,0.0403,-0.0044,-2.9166,1.4593,-3.0554
2024-10-11T12:02:34.872Z,-0.0079,-0.9958,0.1047,-0.0557,-0.0117,-0.0329,0.0058,0.0368,-0.0063,-2.9166,1.4593,-3.0554
2024-10-11T12:02:34.882Z,-0.0079,-0.9982,0.1107,-0.0557,-0.0117,-0.0329,0.0046,0.0408,-0.0065,-2.9166,1.4593,-3.0554
2024-10-11T12:02:34.892Z,-0.0036,-1.0036,0.1156,-0.0264,0.0550,-0.0182,0.0068,0.0407,-0.0069,-2.9155,1.4591,-3.0556
2024-10-11T12:02:34.902Z,-0.0045,-1.0008,0.1130,-0.0264,0.0550,-0.0182,0.0049,0.0404,-0.0060,-2.9155,1.4591,-3.0556
2024-10-11T12:02:34.912Z,-0.0060,-1.0017,0.1085,-0.0264,0.0550,-0.0182,0.0095,0.0359,-0.0067,-2.9155,1.4591,-3.0556
2024-10-11T12:02:34.922Z,-0.0079,-1.0046,0.1000,-0.0336,0.0930,0.0366,0.0089,0.0357,-0.0030,-2.9142,1.4588,-3.0561
2024-10-11T12:02:34.932Z,-0.0017,-1.0025,0.1033,-0.0336,0.0930,0.0366,0.0068,0.0358,-0.0059,-2.9142,1.4588,-3.0561
2024-10-11T12:02:34.943Z,-0.0088,-1.0037,0.1073,0.0131,0.0864,0.0364,0.0064,0.0356,-0.0057,-2.9126,1.4586,-3.0569
2024-10-11T12:02:34.953Z,-0.0101,-1.0005,0.1103,0.0131,0.0864,0.0364,0.0044,0.0360,-0.0074,-2.9126,1.4586,-3.0569
2024-10-11T12:02:34.962Z,-0.0134,-1.0034,0.1102,0.0131,0.0864,0.0364,0.0075,0.0307,-0.0059,-2.9126,1.4586,-3.0569
2024-10-11T12:02:34.971Z,0.0001,-1.0051,0.1133,0.0131,0.0864,0.0364,0.0067,0.0281,-0.0068,-2.9126,1.4586,-3.0569
2024-10-11T12:02:34.982Z,-0.0041,-1.0058,0.1145,-0.1129,0.1197,-0.0141,0.0051,0.0322,-0.0080,-2.9108,1.4584,-3.0580
2024-10-11T12:02:34.992Z,-0.0111,-1.0040,0.1167,-0.1129,0.1197,-0.0141,0.0048,0.0276,-0.0037,-2.9108,1.4584,-3.0580
2024-10-11T12:02:35.004Z,-0.0019,-1.0000,0.1233,-0.0567,0.0429,-0.1287,0.0014,0.0287,-0.0050,-2.9095,1.4582,-3.0587
2024-10-11T12:02:35.012Z,-0.0085,-0.9950,0.1239,-0.0567,0.0429,-0.1287,-0.0011,0.0286,-0.0025,-2.9095,1.4582,-3.0587
2024-10-11T12:02:35.022Z,-0.0111,-0.9941,0.1184,-0.0567,0.0429,-0.1287,-0.0015,0.0276,-0.0027,-2.9095,1.4582,-3.0587
2024-10-11T12:02:35.032Z,-0.0078,-0.9929,0.1179,-0.0567,0.0429,-0.1287,-0.0034,0.0311,-0.0023,-2.9095,1.4582,-3.0587
2024-10-11T12:02:35.043Z,-0.0057,-0.9944,0.1197,-0.0299,-0.0002,-0.0732,-0.0029,0.0292,-0.0031,-2.9087,1.4582,-3.0588
2024-10-11T12:02:35.054Z,-0.0110,-0.9927,0.1145,-0.0299,-0.0002,-0.0732,-0.0039,0.0317,-0.0026,-2.9087,1.4582,-3.0588
2024-10-11T12:02:35.063Z,-0.0111,-0.9915,0.1138,0.0120,-0.0347,-0.0103,-0.0049,0.0307,-0.0022,-2.9082,1.4583,-3.0586
2024-10-11T12:02:35.072Z,-0.0131,-0.9895,0.1130,0.0120,-0.0347,-0.0103,-0.0107,0.0295,-0.0048,-2.9082,1.4583,-3.0586
2024-10-11T12:02:35.082Z,-0.0138,-0.9901,0.1190,0.0120,-0.0347,-0.0103,-0.0100,0.0285,-0.0054,-2.9082,1.4583,-3.0586
2024-10-11T12:02:35.093Z,-0.0093,-0.9898,0.1150,-0.0082,-0.0405,-0.0430,-0.0094,0.0263,-0.0055,-2.9075,1.4585,-3.0587
2024-10-11T12:02:35.102Z,-0.0086,-0.9871,0.1139,-0.0082,-0.0405,-0.0430,-0.0095,0.0267,-0.0017,-2.9075,1.4585,-3.0587
2024-10-11T12:02:35.112Z,-0.0043,-0.9839,0.1142,-0.0082,-0.0405,-0.0430,-0.0122,0.0287,-0.0026,-2.9075,1.4585,-3.0587
2024-10-11T12:02:35.123Z,-0.0012,-0.9849,0.1066,-0.0818,-0.0931,0.0543,-0.0103,0.0279,-0.0034,-2.9070,1.4589,-3.0586
2024-10-11T12:02:35.132Z,-0.0021,-0.9847,0.1042,-0.0818,-0.0931,0.0543,-0.0093,0.0276,-0.0044,-2.9070,1.4589,-3.0586
2024-10-11T12:02:35.142Z,0.0001,-0.9878,0.0992,-0.0818,-0.0931,0.0543,-0.0098,0.0253,-0.0031,-2.9070,1.4589,-3.0586
2024-10-11T12:02:35.154Z,0.0008,-0.9911,0.1022,-0.1036,-0.0278,0.0799,-0.0091,0.0206,-0.0042,-2.9069,1.4591,-3.0582
2024-10-11T12:02:35.162Z,0.0024,-0.9886,0.1042,-0.1036,-0.0278,0.0799,-0.0076,0.0146,-0.0001,-2.9069,1.4591,-3.0582
2024-10-11T12:02:35.172Z,0.0019,-0.9880,0.1036,-0.1036,-0.0278,0.0799,-0.0079,0.0117,-0.0016,-2.9069,1.4591,-3.0582
2024-10-11T12:02:35.183Z,0.0036,-0.9836,0.1088,-0.1312,-0.1087,0.0114,-0.0061,0.0065,0.0002,-2.9071,1.4593,-3.0579
2024-10-11T12:02:35.192Z,0.0041,-0.9820,0.1089,-0.1312,-0.1087,0.0114,-0.0075,0.0052,-0.0010,-2.9071,1.4593,-3.0579
2024-10-11T12:02:35.203Z,-0.0005,-0.9812,0.1106,-0.1312,-0.1087,0.0114,-0.0083,0.0019,0.0001,-2.9071,1.4593,-3.0579
2024-10-11T12:02:35.212Z,0.0060,-0.9814,0.1127,-0.1710,-0.1171,0.0094,-0.0124,-0.0049,0.0015,-2.9070,1.4596,-3.0581
2024-10-11T12:02:35.222Z,0.0087,-0.9839,0.1101,-0.1710,-0.1171,0.0094,-0.0094,-0.0065,0.0001,-2.9070,1.4596,-3.0581
2024-10-11T12:02:35.232Z,0.0039,-0.9887,0.1119,-0.1710,-0.1171,0.0094,-0.0111,-0.0068,-0.0014,-2.9070,1.4596,-3.0581
2024-10-11T12:02:35.242Z,-0.0009,-0.9908,0.1128,-0.1710,-0.1171,0.0094,-0.0079,-0.0118,-0.0005,-2.9070,1.4596,-3.0581
2024-10-11T12:02:35.254Z,0.0001,-0.9931,0.1116,-0.0810,-0.0237,-0.0068,-0.0071,-0.0185,-0.0014,-2.9074,1.4598,-3.0583
2024-10-11T12:02:35.263Z,0.0005,-0.9949,0.1121,-0.0810,-0.0237,-0.0068,-0.0086,-0.0224,-0.0025,-2.9074,1.4598,-3.0583
2024-10-11T12:02:35.273Z,-0.0006,-0.9946,0.1102,-0.0862,0.0067,-0.0134,-0.0101,-0.0264,-0.0034,-2.9072,1.4601,-3.0594
2024-10-11T12:02:35.281Z,-0.0002,-0.9977,0.1137,-0.0862,0.0067,-0.0134,-0.0122,-0.0319,-0.0029,-2.9072,1.4601,-3.0594
2024-10-11T12:02:35.292Z,0.0031,-0.9963,0.1147,-0.0862,0.0067,-0.0134,-0.0113,-0.0385,-0.0029,-2.9072,1.4601,-3.0594
2024-10-11T12:02:35.305Z,0.0021,-0.9928,0.1081,-0.1117,-0.0195,0.0061,-0.0084,-0.0425,-0.0004,-2.9066,1.4604,-3.0613
2024-10-11T12:02:35.312Z,0.0045,-0.9924,0.1067,-0.1117,-0.0195,0.0061,-0.0109,-0.0441,0.0004,-2.9066,1.4604,-3.0613
2024-10-11T12:02:35.322Z,0.0028,-0.9937,0.0981,-0.1117,-0.0195,0.0061,-0.0088,-0.0519,-0.0015,-2.9066,1.4604,-3.0613
2024-10-11T12:02:35.332Z,0.0058,-0.9937,0.0993,-0.1560,0.0011,0.1002,-0.0065,-0.0504,-0.0022,-2.9064,1.4606,-3.0632
2024-10-11T12:02:35.342Z,0.0098,-0.9962,0.0942,-0.1560,0.0011,0.1002,-0.0036,-0.0547,0.0035,-2.9064,1.4606,-3.0632
2024-10-11T12:02:35.353Z,0.0090,-0.9952,0.0986,-0.1560,0.0011,0.1002,-0.0040,-0.0548,0.0007,-2.9064,1.4606,-3.0632
2024-10-11T12:02:35.362Z,0.0047,-0.9937,0.1026,-0.1340,0.0023,0.0450,-0.0037,-0.0581,0.0027,-2.9071,1.4607,-3.0644
2024-10-11T12:02:35.372Z,0.0078,-0.9957,0.1025,-0.1340,0.0023,0.0450,-0.0019,-0.0619,0.0033,-2.9071,1.4607,-3.0644
2024-10-11T12:02:35.382Z,0.0066,-0.9940,0.1041,-0.1340,0.0023,0.0450,-0.0014,-0.0637,0.0038,-2.9071,1.4607,-3.0644
2024-10-11T12:02:35.393Z,0.0029,-0.9957,0.1002,-0.1082,0.0196,0.1048,-0.0012,-0.0664,0.0047,-2.9082,1.4607,-3.0656
2024-10-11T12:02:35.403Z,-0.0001,-0.9945,0.0994,-0.1082,0.0196,0.1048,0.0003,-0.0706,0.0016,-2.9082,1.4607,-3.0656
2024-10-11T12:02:35.412Z,0.0038,-0.9948,0.1005,-0.1082,0.0196,0.1048,0.0023,-0.0784,0.0026,-2.9082,1.4607,-3.0656
2024-10-11T12:02:35.422Z,0.0068,-0.9882,0.1053,-0.1242,-0.0808,0.0397,0.0035,-0.0757,0.0056,-2.9095,1.4606,-3.0668
2024-10-11T12:02:35.432Z,0.0003,-0.9796,0.1122,-0.1242,-0.0808,0.0397,-0.0014,-0.0776,0.0063,-2.9095,1.4606,-3.0668
2024-10-11T12:02:35.442Z,0.0013,-0.9801,0.1090,-0.1242,-0.0808,0.0397,-0.0013,-0.0790,0.0051,-2.9095,1.4606,-3.0668
2024-10-11T12:02:35.454Z,-0.0014,-0.9848,0.1035,-0.0699,-0.0859,0.0557,-0.0006,-0.0762,0.0075,-2.9113,1.4606,-3.0676
2024-10-11T12:02:35.462Z,0.0016,-0.9862,0.1084,-0.0699,-0.0859,0.0557,-0.0004,-0.0776,0.0047,-2.9113,1.4606,-3.0676
2024-10-11T12:02:35.473Z,-0.0030,-0.9878,0.1103,-0.0699,-0.0859,0.0557,-0.0001,-0.0782,0.0031,-2.9113,1.4606,-3.0676
2024-10-11T12:02:35.483Z,-0.0067,-0.9895,0.1182,-0.0060,-0.0488,-0.0808,0.0008,-0.0771,0.0048,-2.9125,1.4606,-3.0690
2024-10-11T12:02:35.491Z,-0.0061,-0.9922,0.1222,-0.0060,-0.0488,-0.0808,-0.0014,-0.0727,0.0016,-2.9125,1.4606,-3.0690
2024-10-11T12:02:35.504Z,-0.0107,-0.9972,0.1201,-0.0060,-0.0488,-0.0808,-0.0038,-0.0728,0.0009,-2.9125,1.4606,-3.0690
2024-10-11T12:02:35.512Z,-0.0116,-0.9987,0.1215,0.0358,0.0674,-0.1081,-0.0041,-0.0727,0.0003,-2.9133,1.4606,-3.0707
2024-10-11T12:02:35.522Z,-0.0088,-1.0034,0.1180,0.0358,0.0674,-0.1081,-0.0046,-0.0733,0.0002,-2.9133,1.4606,-3.0707
2024-10-11T12:02:35.532Z,-0.0068,-1.0051,0.1179,0.0358,0.0674,-0.1081,-0.0022,-0.0718,0.0008,-2.9133,1.4606,-3.0707
2024-10-11T12:02:35.542Z,-0.0036,-1.0047,0.1126,-0.0415,0.1020,-0.0241,-0.0088,-0.0695,0.0009,-2.9140,1.4608,-3.0723
2024-10-11T12:02:35.552Z,-0.0067,-1.0051,0.1125,-0.0415,0.1020,-0.0241,-0.0070,-0.0646,0.0035,-2.9140,1.4608,-3.0723
2024-10-11T12:02:35.562Z,-0.0144,-1.0080,0.1109,-0.0415,0.1020,-0.0241,-0.0079,-0.0621,0.0033,-2.9140,1.4608,-3.0723
2024-10-11T12:02:35.573Z,-0.0086,-1.0123,0.1048,-0.0423,0.1978,0.0306,-0.0077,-0.0712,0.0048,-2.9153,1.4610,-3.0733
2024-10-11T12:02:35.582Z,0.0256,-1.0169,0.1163,-0.0423,0.1978,0.0306,-0.0139,-0.0792,0.0048,-2.9153,1.4610,-3.0733
2024-10-11T12:02:35.592Z,0.0205,-1.0071,0.1156,-0.0423,0.1978,0.0306,-0.0109,-0.0817,0.0041,-2.9153,1.4610,-3.0733
2024-10-11T12:02:35.602Z,0.0112,-1.0123,0.1216,-0.2073,0.1698,-0.1306,-0.0166,-0.0905,0.0037,-2.9171,1.4613,-3.0742
2024-10-11T12:02:35.612Z,0.0161,-1.0039,0.1240,-0.2073,0.1698,-0.1306,-0.0163,-0.1005,0.0048,-2.9171,1.4613,-3.0742
2024-10-11T12:02:35.622Z,0.0185,-1.0074,0.1273,-0.2073,0.1698,-0.1306,-0.0200,-0.1003,0.0076,-2.9171,1.4613,-3.0742
2024-10-11T12:02:35.632Z,0.0120,-1.0030,0.1254,-0.1872,0.0796,-0.1719,-0.0181,-0.1015,0.0073,-2.9192,1.4618,-3.0753
2024-10-11T12:02:35.641Z,0.0099,-1.0049,0.1208,-0.1872,0.0796,-0.1719,-0.0220,-0.1011,0.0091,-2.9192,1.4618,-3.0753
2024-10-11T12:02:35.652Z,-0.0032,-1.0031,0.1141,-0.1872,0.0796,-0.1719,-0.0202,-0.0944,0.0110,-2.9192,1.4618,-3.0753
2024-10-11T12:02:35.663Z,-0.0150,-1.0013,0.1107,0.1369,0.0656,-0.0148,-0.0214,-0.0823,0.0084,-2.9227,1.4624,-3.0751
2024-10-11T12:02:35.672Z,-0.0439,-0.9925,0.0992,0.1369,0.0656,-0.0148,-0.0207,-0.0638,0.0072,-2.9227,1.4624,-3.0751
2024-10-11T12:02:35.682Z,-0.0709,-0.9858,0.0944,0.1369,0.0656,-0.0148,-0.0202,-0.0436,0.0088,-2.9227,1.4624,-3.0751
2024-10-11T12:02:35.693Z,-0.0741,-0.9883,0.0944,0.6054,-0.0430,0.1048,-0.0213,-0.0306,0.0082,-2.9258,1.4630,-3.0738
2024-10-11T12:02:35.702Z,-0.0483,-0.9973,0.0960,0.6054,-0.0430,0.1048,-0.0261,-0.0202,0.0068,-2.9258,1.4630,-3.0738
2024-10-11T12:02:35.712Z,-0.0404,-0.9895,0.0972,0.6054,-0.0430,0.1048,-0.0222,-0.0106,0.0059,-2.9258,1.4630,-3.0738
2024-10-11T12:02:35.722Z,-0.0471,-0.9930,0.0939,0.3934,0.0036,0.1239,-0.0232,-0.0014,0.0044,-2.9284,1.4636,-3.0718
2024-10-11T12:02:35.732Z,-0.0423,-0.9957,0.0945,0.3934,0.0036,0.1239,-0.0216,0.0056,0.0039,-2.9284,1.4636,-3.0718
2024-10-11T12:02:35.741Z,-0.0350,-0.9954,0.0959,0.3934,0.0036,0.1239,-0.0159,0.0206,0.0054,-2.9284,1.4636,-3.0718
2024-10-11T12:02:35.752Z,-0.0519,-0.9863,0.0905,0.4372,-0.0748,0.1488,-0.0131,0.0363,0.0042,-2.9305,1.4642,-3.0696
2024-10-11T12:02:35.762Z,-0.0429,-0.9984,0.0985,0.4372,-0.0748,0.1488,-0.0133,0.0477,0.0041,-2.9305,1.4642,-3.0696
2024-10-11T12:02:35.771Z,-0.0361,-1.0058,0.1026,0.4372,-0.0748,0.1488,-0.0105,0.0511,0.0034,-2.9305,1.4642,-3.0696
2024-10-11T12:02:35.782Z,-0.0279,-1.0102,0.1107,0.2046,0.1651,-0.0389,-0.0113,0.0599,0.0037,-2.9322,1.4645,-3.0667
2024-10-11T12:02:35.792Z,-0.0299,-1.0070,0.1068,0.2046,0.1651,-0.0389,-0.0114,0.0661,0.0035,-2.9322,1.4645,-3.0667
2024-10-11T12:02:35.802Z,-0.0261,-1.0062,0.1095,0.2046,0.1651,-0.0389,-0.0136,0.0650,0.0010,-2.9322,1.4645,-3.0667
2024-10-11T12:02:35.812Z,-0.0325,-1.0038,0.1186,0.2541,0.0779,-0.1189,-0.0153,0.0683,0.0008,-2.9335,1.4648,-3.0636
2024-10-11T12:02:35.821Z,-0.0291,-1.0014,0.1140,0.2541,0.0779,-0.1189,-0.0132,0.0696,0.0001,-2.9335,1.4648,-3.0636
2024-10-11T12:02:35.832Z,-0.0315,-0.9994,0.1087,0.2541,0.0779,-0.1189,-0.0124,0.0725,-0.0005,-2.9335,1.4648,-3.0636
2024-10-11T12:02:35.842Z,-0.0301,-0.9933,0.1061,0.1948,-0.0250,0.0226,-0.0103,0.0779,-0.0025,-2.9342,1.4652,-3.0611
2024-10-11T12:02:35.852Z,-0.0257,-0.9916,0.0988,0.1948,-0.0250,0.0226,-0.0084,0.0809,-0.0001,-2.9342,1.4652,-3.0611
2024-10-11T12:02:35.862Z,-0.0189,-0.9876,0.0945,0.1948,-0.0250,0.0226,-0.0099,0.0826,-0.0012,-2.9342,1.4652,-3.0611
2024-10-11T12:02:35.872Z,-0.0188,-0.9881,0.0957,0.1114,-0.0558,0.0828,-0.0032,0.0881,-0.0019,-2.9346,1.4655,-3.0584
2024-10-11T12:02:35.881Z,-0.0218,-0.9860,0.1000,0.1114,-0.0558,0.0828,-0.0043,0.0871,-0.0013,-2.9346,1.4655,-3.0584
2024-10-11T12:02:35.892Z,-0.0157,-0.9835,0.1009,0.1114,-0.0558,0.0828,-0.0046,0.0880,-0.0025,-2.9346,1.4655,-3.0584
2024-10-11T12:02:35.903Z,-0.0113,-0.9822,0.0974,0.0242,-0.1303,0.0399,-0.0016,0.0897,-0.0040,-2.9342,1.4655,-3.0564
2024-10-11T12:02:35.912Z,-0.0159,-0.9802,0.0989,0.0242,-0.1303,0.0399,-0.0029,0.0883,-0.0044,-2.9342,1.4655,-3.0564
2024-10-11T12:02:35.922Z,-0.0136,-0.9813,0.0951,0.0242,-0.1303,0.0399,-0.0004,0.0862,-0.0047,-2.9342,1.4655,-3.0564
2024-10-11T12:02:35.932Z,-0.0119,-0.9806,0.0908,0.0246,-0.1467,0.1222,0.0031,0.0863,-0.0033,-2.9332,1.4655,-3.0552
2024-10-11T12:02:35.941Z,-0.0114,-0.9779,0.0901,0.0246,-0.1467,0.1222,0.0033,0.0851,-0.0052,-2.9332,1.4655,-3.0552
2024-10-11T12:02:35.952Z,-0.0118,-0.9765,0.0878,0.0246,-0.1467,0.1222,0.0080,0.0836,-0.0062,-2.9332,1.4655,-3.0552
2024-10-11T12:02:35.962Z,-0.0083,-0.9750,0.0909,-0.0286,-0.1824,0.1235,0.0113,0.0839,-0.0075,-2.9318,1.4653,-3.0543
2024-10-11T12:02:35.971Z,-0.0067,-0.9786,0.0925,-0.0286,-0.1824,0.1235,0.0121,0.0851,-0.0061,-2.9318,1.4653,-3.0543
2024-10-11T12:02:35.982Z,-0.0147,-0.9836,0.0983,-0.0286,-0.1824,0.1235,0.0146,0.0836,-0.0070,-2.9318,1.4653,-3.0543
2024-10-11T12:02:35.992Z,-0.0166,-0.9882,0.0965,0.0600,-0.0507,0.0773,0.0152,0.0833,-0.0077,-2.9299,1.4648,-3.0540
2024-10-11T12:02:36.002Z,-0.0124,-0.9895,0.0988,0.0600,-0.0507,0.0773,0.0190,0.0824,-0.0086,-2.9299,1.4648,-3.0540
2024-10-11T12:02:36.012Z,-0.0113,-0.9889,0.1060,0.0600,-0.0507,0.0773,0.0154,0.0800,-0.0064,-2.9299,1.4648,-3.0540
2024-10-11T12:02:36.022Z,-0.0117,-0.9926,0.1081,0.0263,-0.0080,-0.0072,0.0168,0.0774,-0.0108,-2.9274,1.4644,-3.0544
2024-10-11T12:02:36.032Z,-0.0095,-0.9941,0.1105,0.0263,-0.0080,-0.0072,0.0188,0.0706,-0.0089,-2.9274,1.4644,-3.0544
2024-10-11T12:02:36.041Z,-0.0053,-0.9947,0.1076,0.0263,-0.0080,-0.0072,0.0171,0.0652,-0.0105,-2.9274,1.4644,-3.0544
2024-10-11T12:02:36.052Z,-0.0026,-0.9950,0.1089,-0.0650,0.0025,-0.0167,0.0206,0.0629,-0.0121,-2.9241,1.4638,-3.0559
2024-10-11T12:02:36.062Z,-0.0012,-0.9922,0.1155,-0.0650,0.0025,-0.0167,0.0170,0.0620,-0.0107,-2.9241,1.4638,-3.0559
2024-10-11T12:02:36.072Z,0.0090,-0.9903,0.1218,-0.0650,0.0025,-0.0167,0.0142,0.0570,-0.0100,-2.9241,1.4638,-3.0559
2024-10-11T12:02:36.082Z,0.0067,-0.9938,0.1266,-0.1365,0.0036,-0.1981,0.0136,0.0577,-0.0097,-2.9211,1.4634,-3.0574
2024-10-11T12:02:36.092Z,0.0055,-0.9972,0.1295,-0.1365,0.0036,-0.1981,0.0107,0.0514,-0.0091,-2.9211,1.4634,-3.0574
2024-10-11T12:02:36.102Z,0.0065,-0.9983,0.1243,-0.1365,0.0036,-0.1981,0.0104,0.0457,-0.0082,-2.9211,1.4634,-3.0574
2024-10-11T12:02:36.112Z,0.0064,-0.9986,0.1258,-0.1634,0.0301,-0.1679,0.0102,0.0407,-0.0096,-2.9186,1.4630,-3.0587
2024-10-11T12:02:36.122Z,0.0125,-0.9941,0.1278,-0.1634,0.0301,-0.1679,0.0069,0.0322,-0.0098,-2.9186,1.4630,-3.0587
2024-10-11T12:02:36.132Z,0.0138,-0.9960,0.1332,-0.1634,0.0301,-0.1679,0.0050,0.0284,-0.0055,-2.9186,1.4630,-3.0587
2024-10-11T12:02:36.142Z,0.0128,-0.9971,0.1283,-0.2078,0.0332,-0.1982,0.0038,0.0237,-0.0041,-2.9173,1.4628,-3.0594
2024-10-11T12:02:36.153Z,0.0134,-0.9986,0.1209,-0.2078,0.0332,-0.1982,0.0007,0.0190,-0.0023,-2.9173,1.4628,-3.0594
2024-10-11T12:02:36.162Z,0.0075,-0.9989,0.1222,-0.2078,0.0332,-0.1982,0.0029,0.0156,-0.0035,-2.9173,1.4628,-3.0594
2024-10-11T12:02:36.171Z,0.0110,-1.0011,0.1196,-0.2012,0.0602,-0.1238,0.0013,0.0123,-0.0043,-2.9166,1.4628,-3.0598
2024-10-11T12:02:36.182Z,0.0091,-1.0001,0.1214,-0.2012,0.0602,-0.1238,-0.0015,0.0132,0.0005,-2.9166,1.4628,-3.0598
2024-10-11T12:02:36.192Z,0.0020,-0.9973,0.1199,-0.2012,0.0602,-0.1238,-0.0048,0.0121,0.0015,-2.9166,1.4628,-3.0598
2024-10-11T12:02:36.202Z,-0.0007,-0.9922,0.1251,-0.0820,-0.0184,-0.1712,-0.0065,0.0109,0.0014,-2.9167,1.4629,-3.0597
2024-10-11T12:02:36.212Z,-0.0004,-0.9930,0.1195,-0.0820,-0.0184,-0.1712,-0.0104,0.0075,0.0000,-2.9167,1.4629,-3.0597
2024-10-11T12:02:36.222Z,-0.0060,-0.9951,0.1176,-0.0820,-0.0184,-0.1712,-0.0117,0.0060,-0.0001,-2.9167,1.4629,-3.0597
2024-10-11T12:02:36.232Z,-0.0089,-0.9952,0.1214,0.0017,0.0204,-0.1567,-0.0107,0.0018,0.0005,-2.9169,1.4631,-3.0595
2024-10-11T12:02:36.242Z,-0.0095,-0.9995,0.1177,0.0017,0.0204,-0.1567,-0.0116,0.0051,0.0029,-2.9169,1.4631,-3.0595
2024-10-11T12:02:36.251Z,-0.0043,-1.0041,0.1095,0.0017,0.0204,-0.1567,-0.0154,0.0046,0.0014,-2.9169,1.4631,-3.0595
2024-10-11T12:02:36.262Z,-0.0055,-1.0024,0.1149,-0.0180,0.0706,-0.0673,-0.0129,0.0026,0.0005,-2.9178,1.4635,-3.0588
2024-10-11T12:02:36.272Z,-0.0111,-0.9993,0.1155,-0.0180,0.0706,-0.0673,-0.0152,0.0047,-0.0001,-2.9178,1.4635,-3.0588
2024-10-11T12:02:36.282Z,-0.0099,-1.0000,0.1174,-0.0180,0.0706,-0.0673,-0.0173,0.0013,-0.0009,-2.9178,1.4635,-3.0588
2024-10-11T12:02:36.292Z,-0.0048,-0.9961,0.1150,-0.0367,0.0140,-0.0618,-0.0197,-0.0002,0.0034,-2.9192,1.4640,-3.0576
2024-10-11T12:02:36.302Z,-0.0115,-0.9949,0.1060,-0.0367,0.0140,-0.0618,-0.0187,0.0014,0.0013,-2.9192,1.4640,-3.0576
2024-10-11T12:02:36.312Z,-0.0153,-0.9951,0.1114,-0.0367,0.0140,-0.0618,-0.0209,-0.0000,0.0030,-2.9192,1.4640,-3.0576
2024-10-11T12:02:36.322Z,-0.0055,-0.9940,0.1122,-0.0484,-0.0220,-0.0837,-0.0228,-0.0022,0.0037,-2.9204,1.4645,-3.0566
2024-10-11T12:02:36.332Z,-0.0042,-0.9917,0.1180,-0.0484,-0.0220,-0.0837,-0.0207,-0.0010,0.0032,-2.9204,1.4645,-3.0566
2024-10-11T12:02:36.342Z,-0.0154,-0.9946,0.1100,-0.0484,-0.0220,-0.0837,-0.0224,-0.0013,0.0020,-2.9204,1.4645,-3.0566
2024-10-11T12:02:36.352Z,-0.0112,-0.9958,0.1099,-0.0048,0.0065,-0.0441,-0.0243,0.0003,0.0035,-2.9218,1.4651,-3.0555
2024-10-11T12:02:36.362Z,-0.0001,-0.9931,0.1104,-0.0048,0.0065,-0.0441,-0.0218,0.0001,0.0038,-2.9218,1.4651,-3.0555
2024-10-11T12:02:36.372Z,0.0003,-0.9941,0.1009,-0.0048,0.0065,-0.0441,-0.0201,-0.0021,0.0056,-2.9218,1.4651,-3.0555
2024-10-11T12:02:36.382Z,-0.0017,-0.9923,0.1016,-0.0712,-0.0398,0.0184,-0.0223,-0.0033,0.0049,-2.9239,1.4658,-3.0538
2024-10-11T12:02:36.392Z,-0.0002,-0.9855,0.0928,-0.0712,-0.0398,0.0184,-0.0207,-0.0023,0.0039,-2.9239,1.4658,-3.0538
2024-10-11T12:02:36.401Z,-0.0052,-0.9853,0.0863,-0.0712,-0.0398,0.0184,-0.0178,-0.0061,0.0041,-2.9239,1.4658,-3.0538
2024-10-11T12:02:36.412Z,-0.0174,-0.9869,0.0769,0.1025,-0.0731,0.2835,-0.0145,-0.0122,0.0021,-2.9258,1.4663,-3.0524
2024-10-11T12:02:36.422Z,-0.0228,-0.9880,0.0736,0.1025,-0.0731,0.2835,-0.0107,-0.0122,-0.0008,-2.9258,1.4663,-3.0524
2024-10-11T12:02:36.431Z,-0.0276,-0.9879,0.0767,0.1025,-0.0731,0.2835,-0.0108,-0.0106,-0.0046,-2.9258,1.4663,-3.0524
2024-10-11T12:02:36.442Z,-0.0201,-0.9899,0.0798,0.1004,-0.0477,0.2537,-0.0056,-0.0102,-0.0032,-2.9255,1.4665,-3.0532
2024-10-11T12:02:36.452Z,-0.0221,-0.9855,0.0780,0.1004,-0.0477,0.2537,-0.0013,-0.0095,-0.0063,-2.9255,1.4665,-3.0532
2024-10-11T12:02:36.462Z,-0.0269,-0.9876,0.0826,0.1004,-0.0477,0.2537,-0.0029,-0.0070,-0.0079,-2.9255,1.4665,-3.0532
2024-10-11T12:02:36.473Z,-0.0250,-0.9872,0.0899,0.1388,-0.0672,0.1184,0.0019,-0.0102,-0.0087,-2.9236,1.4665,-3.0557
2024-10-11T12:02:36.482Z,-0.0177,-0.9869,0.0957,0.1388,-0.0672,0.1184,0.0014,-0.0089,-0.0102,-2.9236,1.4665,-3.0557
2024-10-11T12:02:36.491Z,-0.0180,-0.9835,0.1004,0.1388,-0.0672,0.1184,0.0022,-0.0026,-0.0100,-2.9236,1.4665,-3.0557
2024-10-11T12:02:36.502Z,-0.0200,-0.9924,0.0999,0.0985,-0.0099,0.0206,-0.0008,0.0016,-0.0095,-2.9212,1.4665,-3.0584
2024-10-11T12:02:36.512Z,-0.0159,-0.9966,0.1072,0.0985,-0.0099,0.0206,0.0007,0.0032,-0.0102,-2.9212,1.4665,-3.0584
2024-10-11T12:02:36.522Z,-0.0165,-1.0045,0.1034,0.0985,-0.0099,0.0206,-0.0013,0.0025,-0.0150,-2.9212,1.4665,-3.0584
2024-10-11T12:02:36.532Z,-0.0188,-1.0078,0.1088,0.1049,0.1396,-0.0669,-0.0000,0.0047,-0.0136,-2.9182,1.4666,-3.0616
2024-10-11T12:02:36.542Z,-0.0175,-1.0070,0.1127,0.1049,0.1396,-0.0669,-0.0005,0.0018,-0.0167,-2.9182,1.4666,-3.0616
2024-10-11T12:02:36.552Z,-0.0118,-1.0038,0.1169,0.1049,0.1396,-0.0669,-0.0008,0.0024,-0.0178,-2.9182,1.4666,-3.0616
2024-10-11T12:02:36.561Z,-0.0054,-1.0011,0.1171,-0.0438,0.0673,-0.1512,-0.0050,0.0050,-0.0157,-2.9141,1.4667,-3.0658
2024-10-11T12:02:36.573Z,0.0002,-1.0017,0.1134,-0.0438,0.0673,-0.1512,-0.0052,0.0029,-0.0181,-2.9141,1.4667,-3.0658
2024-10-11T12:02:36.581Z,0.0005,-0.9995,0.1212,-0.0438,0.0673,-0.1512,-0.0075,0.0024,-0.0159,-2.9141,1.4667,-3.0658
2024-10-11T12:02:36.593Z,-0.0013,-0.9969,0.1136,-0.0799,0.0222,-0.0876,-0.0067,0.0031,-0.0182,-2.9095,1.4669,-3.0705
2024-10-11T12:02:36.602Z,0.0062,-0.9962,0.1077,-0.0799,0.0222,-0.0876,-0.0047,-0.0021,-0.0187,-2.9095,1.4669,-3.0705
2024-10-11T12:02:36.611Z,0.0073,-0.9980,0.1089,-0.0799,0.0222,-0.0876,-0.0061,-0.0015,-0.0177,-2.9095,1.4669,-3.0705
2024-10-11T12:02:36.623Z,0.0057,-0.9962,0.1180,-0.1382,0.0208,-0.1419,-0.0042,-0.0041,-0.0159,-2.9049,1.4671,-3.0754
2024-10-11T12:02:36.632Z,0.0151,-0.9958,0.1136,-0.1382,0.0208,-0.1419,-0.0051,-0.0096,-0.0168,-2.9049,1.4671,-3.0754
2024-10-11T12:02:36.641Z,0.0181,-0.9996,0.1081,-0.1382,0.0208,-0.1419,-0.0042,-0.0136,-0.0147,-2.9049,1.4671,-3.0754
2024-10-11T12:02:36.652Z,0.0103,-1.0002,0.1062,-0.1677,0.0625,-0.0093,-0.0043,-0.0126,-0.0140,-2.9007,1.4672,-3.0802
2024-10-11T12:02:36.662Z,0.0146,-1.0036,0.1001,-0.1677,0.0625,-0.0093,-0.0026,-0.0114,-0.0138,-2.9007,1.4672,-3.0802
2024-10-11T12:02:36.672Z,0.0112,-1.0092,0.0951,-0.1677,0.0625,-0.0093,0.0032,-0.0168,-0.0101,-2.9007,1.4672,-3.0802
2024-10-11T12:02:36.682Z,0.0171,-1.0177,0.0921,-0.2429,0.2432,0.1328,0.0026,-0.0131,-0.0117,-2.8972,1.4672,-3.0844
2024-10-11T12:02:36.692Z,0.0122,-1.0217,0.0932,-0.2429,0.2432,0.1328,0.0060,-0.0063,-0.0071,-2.8972,1.4672,-3.0844
2024-10-11T12:02:36.702Z,-0.0012,-1.0186,0.0971,-0.2429,0.2432,0.1328,0.0050,0.0044,-0.0065,-2.8972,1.4672,-3.0844
2024-10-11T12:02:36.712Z,-0.0130,-1.0049,0.1087,0.1041,0.0757,-0.0426,0.0047,0.0124,-0.0030,-2.8954,1.4670,-3.0864
2024-10-11T12:02:36.722Z,-0.0216,-0.9960,0.1162,0.1041,0.0757,-0.0426,0.0029,0.0215,-0.0017,-2.8954,1.4670,-3.0864
2024-10-11T12:02:36.732Z,-0.0246,-0.9916,0.1168,0.1041,0.0757,-0.0426,0.0032,0.0301,-0.0025,-2.8954,1.4670,-3.0864
2024-10-11T12:02:36.742Z,-0.0396,-0.9958,0.1124,0.3398,0.0334,-0.0919,0.0015,0.0354,-0.0019,-2.8947,1.4669,-3.0866
2024-10-11T12:02:36.752Z,-0.0306,-1.0106,0.1135,0.3398,0.0334,-0.0919,0.0016,0.0378,-0.0011,-2.8947,1.4669,-3.0866
2024-10-11T12:02:36.762Z,-0.0186,-1.0280,0.1116,0.3398,0.0334,-0.0919,0.0015,0.0455,-0.0033,-2.8947,1.4669,-3.0866
2024-10-11T12:02:36.772Z,-0.0217,-1.0443,0.1042,0.1613,0.5133,-0.0289,0.0048,0.0502,-0.0040,-2.8942,1.4668,-3.0859
2024-10-11T12:02:36.782Z,-0.0208,-1.0520,0.1091,0.1613,0.5133,-0.0289,0.0069,0.0533,-0.0037,-2.8942,1.4668,-3.0859
2024-10-11T12:02:36.792Z,-0.0159,-1.0514,0.1173,0.1613,0.5133,-0.0289,0.0003,0.0570,-0.0038,-2.8942,1.4668,-3.0859
2024-10-11T12:02:36.802Z,-0.0151,-1.0351,0.1222,0.0826,0.3636,-0.2169,-0.0005,0.0559,-0.0035,-2.8936,1.4667,-3.0853
2024-10-11T12:02:36.812Z,-0.0074,-1.0213,0.1306,0.0826,0.3636,-0.2169,-0.0064,0.0570,-0.0027,-2.8936,1.4667,-3.0853
2024-10-11T12:02:36.822Z,-0.0108,-1.0152,0.1335,0.0826,0.3636,-0.2169,-0.0142,0.0603,-0.0047,-2.8936,1.4667,-3.0853
2024-10-11T12:02:36.832Z,-0.0116,-1.0237,0.1178,0.0326,0.3221,-0.1107,-0.0132,0.0652,-0.0033,-2.8933,1.4670,-3.0841
2024-10-11T12:02:36.842Z,-0.0063,-1.0386,0.0981,0.0326,0.3221,-0.1107,-0.0119,0.0704,-0.0047,-2.8933,1.4670,-3.0841
2024-10-11T12:02:36.852Z,-0.0055,-1.0549,0.0873,0.0326,0.3221,-0.1107,-0.0076,0.0705,-0.0038,-2.8933,1.4670,-3.0841
2024-10-11T12:02:36.862Z,0.0042,-1.0677,0.0801,-0.1025,0.7238,0.2438,-0.0060,0.0684,-0.0017,-2.8929,1.4672,-3.0826
2024-10-11T12:02:36.872Z,0.0051,-1.0674,0.0761,-0.1025,0.7238,0.2438,0.0013,0.0632,0.0033,-2.8929,1.4672,-3.0826
2024-10-11T12:02:36.882Z,0.0092,-1.0602,0.0790,-0.1025,0.7238,0.2438,0.0015,0.0625,0.0063,-2.8929,1.4672,-3.0826
2024-10-11T12:02:36.892Z,0.0114,-1.0477,0.0963,-0.1407,0.4944,0.0673,-0.0011,0.0579,0.0040,-2.8942,1.4671,-3.0798
2024-10-11T12:02:36.902Z,-0.0010,-1.0308,0.1060,-0.1407,0.4944,0.0673,-0.0003,0.0575,0.0066,-2.8942,1.4671,-3.0798
2024-10-11T12:02:36.912Z,0.0059,-1.0168,0.1167,-0.1407,0.4944,0.0673,0.0025,0.0556,0.0053,-2.8942,1.4671,-3.0798
2024-10-11T12:02:36.923Z,-0.0026,-1.0126,0.1207,-0.0071,0.1810,-0.1588,-0.0002,0.0552,0.0028,-2.8958,1.4670,-3.0768
2024-10-11T12:02:36.932Z,-0.0083,-1.0127,0.1172,-0.0071,0.1810,-0.1588,0.0013,0.0502,0.0031,-2.8958,1.4670,-3.0768
2024-10-11T12:02:36.942Z,-0.0052,-1.0078,0.1118,-0.0071,0.1810,-0.1588,0.0051,0.0483,0.0037,-2.8958,1.4670,-3.0768
2024-10-11T12:02:36.952Z,-0.0148,-1.0023,0.1127,0.0945,0.0612,-0.0985,0.0090,0.0503,0.0023,-2.8968,1.4669,-3.0746
2024-10-11T12:02:36.962Z,-0.0172,-0.9984,0.1233,0.0945,0.0612,-0.0985,0.0078,0.0508,0.0003,-2.8968,1.4669,-3.0746
2024-10-11T12:02:36.972Z,-0.0292,-0.9824,0.1270,0.0945,0.0612,-0.0985,0.0030,0.0576,-0.0029,-2.8968,1.4669,-3.0746
2024-10-11T12:02:36.982Z,-0.0314,-0.9727,0.1354,0.2459,-0.2416,-0.3191,0.0046,0.0613,-0.0055,-2.8962,1.4667,-3.0737
2024-10-11T12:02:36.992Z,-0.0316,-0.9656,0.1362,0.2459,-0.2416,-0.3191,0.0009,0.0656,-0.0099,-2.8962,1.4667,-3.0737
2024-10-11T12:02:37.002Z,-0.0289,-0.9647,0.1346,0.2459,-0.2416,-0.3191,-0.0019,0.0702,-0.0107,-2.8962,1.4667,-3.0737
2024-10-11T12:02:37.012Z,-0.0284,-0.9673,0.1266,0.1868,-0.2451,-0.2130,-0.0028,0.0717,-0.0102,-2.8939,1.4668,-3.0743
2024-10-11T12:02:37.024Z,-0.0213,-0.9825,0.1113,0.1868,-0.2451,-0.2130,-0.0034,0.0753,-0.0129,-2.8939,1.4668,-3.0743
2024-10-11T12:02:37.033Z,-0.0210,-0.9902,0.0953,0.1868,-0.2451,-0.2130,-0.0032,0.0718,-0.0122,-2.8939,1.4668,-3.0743
2024-10-11T12:02:37.042Z,-0.0182,-0.9931,0.0867,0.1117,-0.0190,0.1606,0.0033,0.0739,-0.0145,-2.8902,1.4668,-3.0760
2024-10-11T12:02:37.052Z,-0.0174,-0.9881,0.0911,0.1117,-0.0190,0.1606,0.0020,0.0731,-0.0139,-2.8902,1.4668,-3.0760
2024-10-11T12:02:37.062Z,-0.0121,-0.9798,0.1011,0.1117,-0.0190,0.1606,0.0027,0.0690,-0.0122,-2.8902,1.4668,-3.0760
2024-10-11T12:02:37.072Z,-0.0119,-0.9683,0.1093,0.0656,-0.2764,-0.0784,0.0029,0.0695,-0.0113,-2.8867,1.4667,-3.0776
2024-10-11T12:02:37.082Z,-0.0143,-0.9648,0.1140,0.0656,-0.2764,-0.0784,0.0020,0.0737,-0.0106,-2.8867,1.4667,-3.0776
2024-10-11T12:02:37.091Z,-0.0079,-0.9624,0.1106,0.0656,-0.2764,-0.0784,0.0017,0.0770,-0.0116,-2.8867,1.4667,-3.0776
2024-10-11T12:02:37.102Z,-0.0048,-0.9628,0.1109,-0.0158,-0.3155,-0.0754,0.0038,0.0801,-0.0124,-2.8837,1.4667,-3.0785
2024-10-11T12:02:37.112Z,-0.0080,-0.9598,0.1101,-0.0158,-0.3155,-0.0754,0.0078,0.0867,-0.0127,-2.8837,1.4667,-3.0785
2024-10-11T12:02:37.123Z,-0.0030,-0.9570,0.0927,-0.0158,-0.3155,-0.0754,0.0112,0.0871,-0.0172,-2.8837,1.4667,-3.0785
2024-10-11T12:02:37.132Z,-0.0053,-0.9528,0.0873,-0.0133,-0.4053,0.1944,0.0156,0.0859,-0.0183,-2.8799,1.4663,-3.0800
2024-10-11T12:02:37.142Z,-0.0013,-0.9575,0.0813,-0.0133,-0.4053,0.1944,0.0191,0.0827,-0.0183,-2.8799,1.4663,-3.0800
2024-10-11T12:02:37.152Z,0.0012,-0.9662,0.0792,-0.0133,-0.4053,0.1944,0.0222,0.0831,-0.0202,-2.8799,1.4663,-3.0800
2024-10-11T12:02:37.162Z,0.0005,-0.9736,0.0842,-0.0808,-0.1985,0.1948,0.0269,0.0809,-0.0196,-2.8742,1.4656,-3.0836
2024-10-11T12:02:37.173Z,0.0045,-0.9767,0.0826,-0.0808,-0.1985,0.1948,0.0283,0.0784,-0.0229,-2.8742,1.4656,-3.0836
2024-10-11T12:02:37.181Z,0.0057,-0.9783,0.0814,-0.0808,-0.1985,0.1948,0.0340,0.0779,-0.0215,-2.8742,1.4656,-3.0836
2024-10-11T12:02:37.192Z,0.0052,-0.9782,0.0786,-0.1144,-0.1689,0.2584,0.0347,0.0808,-0.0219,-2.8677,1.4647,-3.0879
2024-10-11T12:02:37.201Z,0.0101,-0.9742,0.0859,-0.1144,-0.1689,0.2584,0.0378,0.0820,-0.0233,-2.8677,1.4647,-3.0879
2024-10-11T12:02:37.212Z,0.0092,-0.9759,0.0914,-0.1144,-0.1689,0.2584,0.0375,0.0809,-0.0223,-2.8677,1.4647,-3.0879
2024-10-11T12:02:37.223Z,0.0132,-0.9750,0.0954,-0.1892,-0.1962,0.0885,0.0402,0.0797,-0.0184,-2.8617,1.4636,-3.0918
2024-10-11T12:02:37.232Z,0.0169,-0.9729,0.0992,-0.1892,-0.1962,0.0885,0.0401,0.0726,-0.0177,-2.8617,1.4636,-3.0918
2024-10-11T12:02:37.242Z,0.0194,-0.9705,0.1089,-0.1892,-0.1962,0.0885,0.0407,0.0697,-0.0186,-2.8617,1.4636,-3.0918
2024-10-11T12:02:37.253Z,0.0228,-0.9715,0.1147,-0.3017,-0.2193,-0.1159,0.0401,0.0655,-0.0161,-2.8569,1.4623,-3.0947
2024-10-11T12:02:37.262Z,0.0322,-0.9720,0.1295,-0.3017,-0.2193,-0.1159,0.0387,0.0536,-0.0122,-2.8569,1.4623,-3.0947
2024-10-11T12:02:37.272Z,0.0297,-0.9692,0.1323,-0.3017,-0.2193,-0.1159,0.0393,0.0484,-0.0125,-2.8569,1.4623,-3.0947
2024-10-11T12:02:37.281Z,0.0322,-0.9728,0.1363,-0.3850,-0.2046,-0.2503,0.0317,0.0374,-0.0111,-2.8531,1.4612,-3.0972
2024-10-11T12:02:37.292Z,0.0362,-0.9716,0.1367,-0.3850,-0.2046,-0.2503,0.0301,0.0301,-0.0088,-2.8531,1.4612,-3.0972
2024-10-11T12:02:37.302Z,0.0322,-0.9747,0.1311,-0.3850,-0.2046,-0.2503,0.0259,0.0196,-0.0094,-2.8531,1.4612,-3.0972
2024-10-11T12:02:37.312Z,0.0365,-0.9737,0.1373,-0.4180,-0.1988,-0.2501,0.0233,0.0102,-0.0075,-2.8504,1.4604,-3.0995
2024-10-11T12:02:37.323Z,0.0332,-0.9737,0.1306,-0.4180,-0.1988,-0.2501,0.0206,0.0053,-0.0092,-2.8504,1.4604,-3.0995
2024-10-11T12:02:37.332Z,0.0288,-0.9721,0.1281,-0.4180,-0.1988,-0.2501,0.0181,-0.0045,-0.0097,-2.8504,1.4604,-3.0995
2024-10-11T12:02:37.342Z,0.0360,-0.9680,0.1305,-0.3935,-0.2761,-0.2019,0.0161,-0.0135,-0.0060,-2.8482,1.4598,-3.1021
2024-10-11T12:02:37.352Z,0.0282,-0.9632,0.1370,-0.3935,-0.2761,-0.2019,0.0096,-0.0177,-0.0040,-2.8482,1.4598,-3.1021
2024-10-11T12:02:37.362Z,0.0231,-0.9651,0.1321,-0.3935,-0.2761,-0.2019,0.0089,-0.0222,-0.0033,-2.8482,1.4598,-3.1021
2024-10-11T12:02:37.373Z,0.0220,-0.9746,0.1203,-0.2252,-0.1642,-0.0364,0.0046,-0.0265,-0.0033,-2.8473,1.4595,-3.1040
2024-10-11T12:02:37.382Z,0.0108,-0.9840,0.1085,-0.2252,-0.1642,-0.0364,0.0053,-0.0304,-0.0053,-2.8473,1.4595,-3.1040
2024-10-11T12:02:37.392Z,0.0121,-0.9948,0.1050,-0.2252,-0.1642,-0.0364,0.0076,-0.0346,-0.0020,-2.8473,1.4595,-3.1040
2024-10-11T12:02:37.402Z,0.0213,-0.9937,0.1071,-0.2538,0.0077,0.0077,0.0098,-0.0364,-0.0012,-2.8466,1.4593,-3.1060
2024-10-11T12:02:37.412Z,0.0239,-0.9998,0.1101,-0.2538,0.0077,0.0077,0.0073,-0.0431,0.0018,-2.8466,1.4593,-3.1060
2024-10-11T12:02:37.423Z,0.0248,-0.9961,0.1186,-0.2538,0.0077,0.0077,0.0079,-0.0479,0.0064,-2.8466,1.4593,-3.1060
2024-10-11T12:02:37.432Z,0.0167,-0.9950,0.1184,-0.1801,0.0093,-0.1025,0.0068,-0.0543,0.0085,-2.8478,1.4590,-3.1065
2024-10-11T12:02:37.442Z,0.0109,-0.9947,0.1231,-0.1801,0.0093,-0.1025,0.0080,-0.0639,0.0137,-2.8478,1.4590,-3.1065
2024-10-11T12:02:37.452Z,0.0085,-0.9974,0.1258,-0.1801,0.0093,-0.1025,0.0121,-0.0715,0.0173,-2.8478,1.4590,-3.1065
2024-10-11T12:02:37.462Z,0.0069,-1.0009,0.1263,-0.1018,0.0840,-0.1364,0.0153,-0.0814,0.0199,-2.8521,1.4586,-3.1046
2024-10-11T12:02:37.474Z,-0.0022,-1.0053,0.1227,-0.1018,0.0840,-0.1364,0.0216,-0.0863,0.0249,-2.8521,1.4586,-3.1046
2024-10-11T12:02:37.482Z,-0.0108,-1.0102,0.1238,-0.1018,0.0840,-0.1364,0.0220,-0.0919,0.0257,-2.8521,1.4586,-3.1046
2024-10-11T12:02:37.492Z,-0.0128,-1.0103,0.1281,0.1041,0.1611,-0.1454,0.0261,-0.0977,0.0336,-2.8595,1.4578,-3.1003
2024-10-11T12:02:37.502Z,-0.0245,-1.0108,0.1254,0.1041,0.1611,-0.1454,0.0244,-0.0930,0.0296,-2.8595,1.4578,-3.1003
2024-10-11T12:02:37.512Z,-0.0379,-1.0164,0.1294,0.1041,0.1611,-0.1454,0.0260,-0.0886,0.0303,-2.8595,1.4578,-3.1003
2024-10-11T12:02:37.523Z,-0.0391,-1.0185,0.1299,0.3360,0.2422,-0.1687,0.0229,-0.0794,0.0297,-2.8676,1.4570,-3.0950
2024-10-11T12:02:37.532Z,-0.0426,-1.0177,0.1370,0.3360,0.2422,-0.1687,0.0217,-0.0686,0.0290,-2.8676,1.4570,-3.0950
2024-10-11T12:02:37.542Z,-0.0424,-1.0157,0.1318,0.3360,0.2422,-0.1687,0.0205,-0.0641,0.0269,-2.8676,1.4570,-3.0950
2024-10-11T12:02:37.552Z,-0.0412,-1.0132,0.1393,0.3734,0.1887,-0.2330,0.0239,-0.0589,0.0280,-2.8750,1.4563,-3.0900
2024-10-11T12:02:37.562Z,-0.0458,-1.0124,0.1432,0.3734,0.1887,-0.2330,0.0234,-0.0612,0.0284,-2.8750,1.4563,-3.0900
2024-10-11T12:02:37.573Z,-0.0328,-1.0143,0.1343,0.3734,0.1887,-0.2330,0.0208,-0.0617,0.0260,-2.8750,1.4563,-3.0900
2024-10-11T12:02:37.582Z,-0.0299,-1.0135,0.1368,0.2263,0.1777,-0.2224,0.0140,-0.0603,0.0303,-2.8822,1.4556,-3.0849
2024-10-11T12:02:37.592Z,-0.0261,-1.0078,0.1444,0.2263,0.1777,-0.2224,0.0111,-0.0673,0.0309,-2.8822,1.4556,-3.0849
2024-10-11T12:02:37.603Z,-0.0271,-0.9974,0.1496,0.2263,0.1777,-0.2224,-0.0022,-0.0821,0.0298,-2.8822,1.4556,-3.0849
2024-10-11T12:02:37.611Z,-0.0266,-0.9926,0.1468,0.1643,-0.0354,-0.3318,-0.0022,-0.0821,0.0298,-2.8901,1.4553,-3.0797
2024-10-11T12:02:37.622Z,-0.0228,-0.9798,0.1544,0.1643,-0.0354,-0.3318,-0.0132,-0.0943,0.0290,-2.8901,1.4553,-3.0797
2024-10-11T12:02:37.633Z,-0.0325,-0.9702,0.1548,0.1643,-0.0354,-0.3318,-0.0247,-0.1107,0.0246,-2.8901,1.4553,-3.0797
2024-10-11T12:02:37.643Z,-0.0329,-0.9692,0.1443,0.2215,-0.2477,-0.2892,-0.0304,-0.1201,0.0207,-2.8977,1.4557,-3.0753
2024-10-11T12:02:37.651Z,-0.0252,-0.9677,0.1434,0.2215,-0.2477,-0.2892,-0.0304,-0.1201,0.0207,-2.8977,1.4557,-3.0753
2024-10-11T12:02:37.663Z,-0.0276,-0.9715,0.1452,0.2215,-0.2477,-0.2892,-0.0400,-0.1459,0.0142,-2.8977,1.4557,-3.0753
2024-10-11T12:02:37.673Z,-0.0221,-0.9758,0.1400,0.1103,-0.1700,-0.2806,-0.0461,-0.1612,0.0132,-2.9034,1.4567,-3.0739
2024-10-11T12:02:37.682Z,-0.0094,-0.9732,0.1418,0.1103,-0.1700,-0.2806,-0.0461,-0.1612,0.0132,-2.9034,1.4567,-3.0739
2024-10-11T12:02:37.693Z,-0.0084,-0.9646,0.1442,0.1103,-0.1700,-0.2806,-0.0549,-0.1898,0.0110,-2.9034,1.4567,-3.0739
2024-10-11T12:02:37.703Z,-0.0065,-0.9567,0.1408,-0.0132,-0.3820,-0.2981,-0.0561,-0.2009,0.0127,-2.9083,1.4581,-3.0744
2024-10-11T12:02:37.712Z,-0.0055,-0.9482,0.1393,-0.0132,-0.3820,-0.2981,-0.0561,-0.2009,0.0127,-2.9083,1.4581,-3.0744
2024-10-11T12:02:37.723Z,-0.0021,-0.9424,0.1284,-0.0132,-0.3820,-0.2981,-0.0587,-0.2186,0.0128,-2.9083,1.4581,-3.0744
2024-10-11T12:02:37.733Z,0.0024,-0.9377,0.1215,-0.0903,-0.5565,-0.0781,-0.0587,-0.2265,0.0129,-2.9129,1.4597,-3.0762
2024-10-11T12:02:37.743Z,0.0010,-0.9330,0.1114,-0.0903,-0.5565,-0.0781,-0.0559,-0.2370,0.0126,-2.9129,1.4597,-3.0762
2024-10-11T12:02:37.753Z,0.0092,-0.9261,0.1147,-0.0903,-0.5565,-0.0781,-0.0571,-0.2524,0.0167,-2.9129,1.4597,-3.0762
2024-10-11T12:02:37.763Z,0.0078,-0.9125,0.1212,-0.1461,-0.8299,-0.0999,-0.0563,-0.2638,0.0208,-2.9183,1.4614,-3.0782
2024-10-11T12:02:37.772Z,0.0092,-0.8987,0.1207,-0.1461,-0.8299,-0.0999,-0.0559,-0.2634,0.0242,-2.9183,1.4614,-3.0782
2024-10-11T12:02:37.783Z,-0.0006,-0.8827,0.1305,-0.1461,-0.8299,-0.0999,-0.0577,-0.2517,0.0204,-2.9183,1.4614,-3.0782
2024-10-11T12:02:37.791Z,-0.0021,-0.8746,0.1277,-0.0551,-1.1814,-0.1822,-0.0577,-0.2517,0.0204,-2.9256,1.4630,-3.0790
2024-10-11T12:02:37.803Z,-0.0035,-0.8726,0.1214,-0.0551,-1.1814,-0.1822,-0.0504,-0.2245,0.0178,-2.9256,1.4630,-3.0790
2024-10-11T12:02:37.813Z,-0.0175,-0.8801,0.1049,-0.0551,-1.1814,-0.1822,-0.0436,-0.2093,0.0189,-2.9256,1.4630,-3.0790
2024-10-11T12:02:37.822Z,-0.0192,-0.8979,0.0775,0.1243,-0.8983,0.3493,-0.0350,-0.1947,0.0200,-2.9323,1.4645,-3.0795
2024-10-11T12:02:37.832Z,-0.0175,-0.9184,0.0542,0.1243,-0.8983,0.3493,-0.0244,-0.1820,0.0206,-2.9323,1.4645,-3.0795
2024-10-11T12:02:37.841Z,-0.0214,-0.9433,0.0253,0.1243,-0.8983,0.3493,-0.0244,-0.1820,0.0206,-2.9323,1.4645,-3.0795
2024-10-11T12:02:37.853Z,-0.0270,-0.9700,0.0069,0.2018,-0.1857,0.9705,-0.0004,-0.1500,0.0208,-2.9384,1.4651,-3.0792
2024-10-11T12:02:37.863Z,-0.0289,-0.9913,0.0004,0.2018,-0.1857,0.9705,0.0122,-0.1401,0.0218,-2.9384,1.4651,-3.0792
2024-10-11T12:02:37.872Z,-0.0292,-1.0015,0.0025,0.2018,-0.1857,0.9705,0.0309,-0.1301,0.0207,-2.9384,1.4651,-3.0792
2024-10-11T12:02:37.882Z,-0.0320,-1.0048,0.0138,0.2615,0.1000,0.8578,0.0383,-0.1231,0.0217,-2.9444,1.4647,-3.0778
2024-10-11T12:02:37.892Z,-0.0347,-1.0056,0.0246,0.2615,0.1000,0.8578,0.0383,-0.1231,0.0217,-2.9444,1.4647,-3.0778
2024-10-11T12:02:37.902Z,-0.0298,-1.0035,0.0399,0.2615,0.1000,0.8578,0.0588,-0.0950,0.0248,-2.9444,1.4647,-3.0778
2024-10-11T12:02:37.913Z,-0.0282,-0.9986,0.0562,0.2247,0.0431,0.4711,0.0667,-0.0795,0.0217,-2.9505,1.4632,-3.0754
2024-10-11T12:02:37.922Z,-0.0365,-1.0001,0.0668,0.2247,0.0431,0.4711,0.0764,-0.0628,0.0190,-2.9505,1.4632,-3.0754
2024-10-11T12:02:37.932Z,-0.0408,-1.0051,0.0775,0.2247,0.0431,0.4711,0.0792,-0.0419,0.0118,-2.9505,1.4632,-3.0754
2024-10-11T12:02:37.943Z,-0.0390,-1.0149,0.0842,0.3115,0.2335,0.2368,0.0881,-0.0258,0.0101,-2.9548,1.4610,-3.0734
2024-10-11T12:02:37.952Z,-0.0408,-1.0280,0.0850,0.3115,0.2335,0.2368,0.0906,-0.0123,0.0043,-2.9548,1.4610,-3.0734
2024-10-11T12:02:37.963Z,-0.0438,-1.0410,0.0916,0.3115,0.2335,0.2368,0.0915,0.0049,0.0002,-2.9548,1.4610,-3.0734
2024-10-11T12:02:37.972Z,-0.0422,-1.0554,0.0932,0.3324,0.6401,0.1665,0.0916,0.0159,-0.0014,-2.9549,1.4583,-3.0740
2024-10-11T12:02:37.983Z,-0.0443,-1.0802,0.1047,0.3324,0.6401,0.1665,0.0934,0.0247,-0.0033,-2.9549,1.4583,-3.0740
2024-10-11T12:02:37.993Z,-0.0443,-1.0802,0.1047,0.3324,0.6401,0.1665,0.0959,0.0344,-0.0066,-2.9549,1.4583,-3.0740
2024-10-11T12:02:38.002Z,-0.0448,-1.0785,0.1093,0.3849,0.8240,0.0483,0.0977,0.0372,-0.0091,-2.9523,1.4555,-3.0762
2024-10-11T12:02:38.012Z,-0.0477,-1.0763,0.1117,0.3849,0.8240,0.0483,0.0935,0.0428,-0.0126,-2.9523,1.4555,-3.0762
2024-10-11T12:02:38.023Z,-0.0391,-1.0668,0.1275,0.3849,0.8240,0.0483,0.0941,0.0449,-0.0108,-2.9523,1.4555,-3.0762
2024-10-11T12:02:38.032Z,-0.0391,-1.0668,0.1275,0.2790,0.6884,-0.1199,0.0889,0.0492,-0.0112,-2.9486,1.4527,-3.0789
2024-10-11T12:02:38.042Z,-0.0260,-1.0512,0.1354,0.2790,0.6884,-0.1199,0.0861,0.0494,-0.0136,-2.9486,1.4527,-3.0789
2024-10-11T12:02:38.052Z,-0.0206,-1.0395,0.1413,0.2790,0.6884,-0.1199,0.0851,0.0501,-0.0178,-2.9486,1.4527,-3.0789
2024-10-11T12:02:38.063Z,-0.0258,-1.0318,0.1513,0.1756,0.4095,-0.2681,0.0815,0.0478,-0.0222,-2.9440,1.4500,-3.0822
2024-10-11T12:02:38.072Z,-0.0258,-1.0318,0.1513,0.1756,0.4095,-0.2681,0.0802,0.0427,-0.0266,-2.9440,1.4500,-3.0822
2024-10-11T12:02:38.083Z,-0.0349,-1.0209,0.1420,0.1756,0.4095,-0.2681,0.0731,0.0471,-0.0329,-2.9440,1.4500,-3.0822
2024-10-11T12:02:38.092Z,-0.0349,-1.0209,0.1420,0.2778,0.2803,-0.1641,0.0731,0.0471,-0.0329,-2.9368,1.4477,-3.0881
2024-10-11T12:02:38.103Z,-0.0239,-1.0096,0.1180,0.2778,0.2803,-0.1641,0.0698,0.0470,-0.0377,-2.9368,1.4477,-3.0881
2024-10-11T12:02:38.113Z,-0.0239,-1.0096,0.1180,0.2778,0.2803,-0.1641,0.0701,0.0405,-0.0391,-2.9368,1.4477,-3.0881
2024-10-11T12:02:38.123Z,-0.0096,-0.9995,0.1021,0.0596,0.1139,0.1921,0.0697,0.0361,-0.0414,-2.9274,1.4456,-3.0964
2024-10-11T12:02:38.132Z,-0.0096,-0.9995,0.1021,0.0596,0.1139,0.1921,0.0679,0.0240,-0.0431,-2.9274,1.4456,-3.0964
2024-10-11T12:02:38.142Z,-0.0002,-0.9981,0.1046,0.0596,0.1139,0.1921,0.0653,0.0145,-0.0441,-2.9274,1.4456,-3.0964
2024-10-11T12:02:38.152Z,0.0109,-0.9960,0.1088,-0.1600,0.0304,0.1860,0.0672,0.0021,-0.0407,-2.9174,1.4436,-3.1058
2024-10-11T12:02:38.162Z,0.0124,-0.9928,0.1062,-0.1600,0.0304,0.1860,0.0661,-0.0007,-0.0397,-2.9174,1.4436,-3.1058
2024-10-11T12:02:38.173Z,0.0130,-0.9906,0.1142,-0.1600,0.0304,0.1860,0.0622,-0.0044,-0.0437,-2.9174,1.4436,-3.1058
2024-10-11T12:02:38.183Z,0.0143,-0.9939,0.1199,-0.1607,-0.0075,0.1406,0.0599,-0.0035,-0.0419,-2.9076,1.4416,-3.1158
2024-10-11T12:02:38.193Z,0.0143,-0.9939,0.1199,-0.1607,-0.0075,0.1406,0.0597,-0.0227,-0.0436,-2.9076,1.4416,-3.1158
2024-10-11T12:02:38.203Z,0.0115,-0.9879,0.1258,-0.1607,-0.0075,0.1406,0.0598,-0.0248,-0.0451,-2.9076,1.4416,-3.1158
2024-10-11T12:02:38.212Z,0.0115,-0.9879,0.1258,-0.0389,-0.0396,0.0088,0.0531,-0.0332,-0.0411,-2.8980,1.4398,-3.1263
2024-10-11T12:02:38.223Z,0.0244,-0.9918,0.1524,-0.0389,-0.0396,0.0088,0.0497,-0.0419,-0.0399,-2.8980,1.4398,-3.1263
2024-10-11T12:02:38.232Z,0.0244,-0.9918,0.1524,-0.0389,-0.0396,0.0088,0.0425,-0.0445,-0.0370,-2.8980,1.4398,-3.1263
2024-10-11T12:02:38.243Z,0.0041,-0.9904,0.1577,-0.0432,0.0010,-0.2795,0.0309,-0.0436,-0.0419,-2.8890,1.4383,-3.1366
2024-10-11T12:02:38.252Z,0.0085,-0.9878,0.1710,-0.0432,0.0010,-0.2795,0.0273,-0.0511,-0.0388,-2.8890,1.4383,-3.1366
2024-10-11T12:02:38.262Z,0.0083,-0.9885,0.1719,-0.0432,0.0010,-0.2795,0.0151,-0.0540,-0.0385,-2.8890,1.4383,-3.1366
2024-10-11T12:02:38.272Z,0.0102,-0.9906,0.1745,-0.0737,-0.0333,-0.3921,0.0099,-0.0570,-0.0385,-2.8803,1.4375,3.1361
2024-10-11T12:02:38.282Z,0.0102,-0.9906,0.1745,-0.0737,-0.0333,-0.3921,0.0046,-0.0523,-0.0376,-2.8803,1.4375,3.1361
2024-10-11T12:02:38.293Z,0.0095,-0.9926,0.1660,-0.0737,-0.0333,-0.3921,-0.0006,-0.0524,-0.0309,-2.8803,1.4375,3.1361
2024-10-11T12:02:38.303Z,0.0197,-0.9833,0.1501,-0.1610,-0.0423,-0.2098,-0.0036,-0.0553,-0.0300,-2.8727,1.4372,3.1267
2024-10-11T12:02:38.312Z,0.0197,-0.9833,0.1501,-0.1610,-0.0423,-0.2098,-0.0071,-0.0578,-0.0296,-2.8727,1.4372,3.1267
2024-10-11T12:02:38.323Z,0.0216,-0.9803,0.1423,-0.1610,-0.0423,-0.2098,-0.0071,-0.0611,-0.0239,-2.8727,1.4372,3.1267
2024-10-11T12:02:38.333Z,0.0117,-0.9679,0.1208,-0.1959,-0.1981,-0.0180,-0.0079,-0.0522,-0.0187,-2.8667,1.4373,3.1187
2024-10-11T12:02:38.342Z,0.0117,-0.9679,0.1208,-0.1959,-0.1981,-0.0180,-0.0087,-0.0534,-0.0177,-2.8667,1.4373,3.1187
2024-10-11T12:02:38.352Z,0.0214,-0.9891,0.1100,-0.1959,-0.1981,-0.0180,-0.0077,-0.0596,-0.0153,-2.8667,1.4373,3.1187
2024-10-11T12:02:38.363Z,0.0263,-0.9882,0.1211,-0.1548,-0.0199,0.2006,-0.0080,-0.0605,-0.0093,-2.8630,1.4375,3.1130
2024-10-11T12:02:38.372Z,0.0300,-0.9795,0.1327,-0.1548,-0.0199,0.2006,-0.0080,-0.0616,-0.0060,-2.8630,1.4375,3.1130
2024-10-11T12:02:38.383Z,0.0244,-0.9732,0.1454,-0.1548,-0.0199,0.2006,-0.0083,-0.0598,-0.0008,-2.8630,1.4375,3.1130
2024-10-11T12:02:38.393Z,0.0244,-0.9732,0.1454,-0.1935,-0.1855,-0.1249,-0.0113,-0.0584,0.0020,-2.8619,1.4377,3.1098
2024-10-11T12:02:38.402Z,0.0280,-0.9719,0.1415,-0.1935,-0.1855,-0.1249,-0.0082,-0.0550,0.0073,-2.8619,1.4377,3.1098
2024-10-11T12:02:38.412Z,0.0267,-0.9714,0.1355,-0.1935,-0.1855,-0.1249,-0.0084,-0.0539,0.0111,-2.8619,1.4377,3.1098
2024-10-11T12:02:38.422Z,0.0291,-0.9669,0.1370,-0.2213,-0.2108,-0.0095,-0.0080,-0.0477,0.0141,-2.8633,1.4379,3.1091
2024-10-11T12:02:38.432Z,0.0298,-0.9693,0.1350,-0.2213,-0.2108,-0.0095,-0.0032,-0.0438,0.0201,-2.8633,1.4379,3.1091
2024-10-11T12:02:38.443Z,0.0298,-0.9693,0.1350,-0.2213,-0.2108,-0.0095,-0.0034,-0.0385,0.0272,-2.8633,1.4379,3.1091
