time,gFx,gFy,gFz,ax,ay,az,wx,wy,wz,yaw,pitch,roll
2024-10-11T12:27:27.485Z,-0.0287,-0.9856,0.1786,0.1276,-0.0432,-0.0170,-0.0051,0.0012,-0.0157,-2.5784,1.3948,-3.0841
2024-10-11T12:27:27.494Z,-0.0208,-0.9954,0.1971,0.1101,0.1062,-0.2203,-0.0024,0.0096,-0.0186,-2.5759,1.3950,-3.0868
2024-10-11T12:27:27.504Z,-0.0203,-0.9988,0.1992,0.1101,0.1062,-0.2203,-0.0021,-0.0088,-0.0187,-2.5759,1.3950,-3.0868
2024-10-11T12:27:27.514Z,-0.0155,-1.0022,0.1933,0.1101,0.1062,-0.2203,-0.0035,-0.0120,-0.0211,-2.5759,1.3950,-3.0868
2024-10-11T12:27:27.524Z,-0.0123,-1.0015,0.1873,0.0331,0.1652,-0.1258,-0.0013,-0.0168,-0.0243,-2.5729,1.3952,-3.0903
2024-10-11T12:27:27.534Z,-0.0072,-1.0036,0.1840,0.0331,0.1652,-0.1258,-0.0034,-0.0195,-0.0236,-2.5729,1.3952,-3.0903
2024-10-11T12:27:27.544Z,-0.0076,-1.0028,0.1777,0.0331,0.1652,-0.1258,-0.0046,-0.0198,-0.0250,-2.5729,1.3952,-3.0903
2024-10-11T12:27:27.554Z,-0.0094,-1.0019,0.1732,0.0122,0.1693,0.0120,-0.0026,-0.0210,-0.0241,-2.5693,1.3953,-3.0946
2024-10-11T12:27:27.564Z,-0.0107,-1.0011,0.1732,0.0122,0.1693,0.0120,-0.0007,-0.0228,-0.0280,-2.5693,1.3953,-3.0946
2024-10-11T12:27:27.574Z,-0.0063,-0.9985,0.1720,0.0122,0.1693,0.0120,-0.0011,-0.0238,-0.0211,-2.5693,1.3953,-3.0946
2024-10-11T12:27:27.584Z,-0.0040,-0.9929,0.1734,-0.0328,0.0815,0.0115,0.0001,-0.0200,-0.0225,-2.5654,1.3952,-3.0993
2024-10-11T12:27:27.594Z,-0.0052,-0.9865,0.1703,-0.0328,0.0815,0.0115,-0.0013,-0.0216,-0.0213,-2.5654,1.3952,-3.0993
2024-10-11T12:27:27.604Z,-0.0099,-0.9801,0.1689,-0.0328,0.0815,0.0115,-0.0032,-0.0173,-0.0191,-2.5654,1.3952,-3.0993
2024-10-11T12:27:27.614Z,-0.0100,-0.9769,0.1705,0.0325,-0.0761,0.0395,-0.0012,-0.0143,-0.0189,-2.5623,1.3952,-3.1033
2024-10-11T12:27:27.624Z,-0.0143,-0.9742,0.1708,0.0325,-0.0761,0.0395,-0.0059,-0.0128,-0.0156,-2.5623,1.3952,-3.1033
2024-10-11T12:27:27.634Z,-0.0169,-0.9709,0.1673,0.0325,-0.0761,0.0395,-0.0004,-0.0123,-0.0144,-2.5623,1.3952,-3.1033
2024-10-11T12:27:27.644Z,-0.0169,-0.9709,0.1673,0.0718,-0.1820,0.0669,-0.0018,-0.0095,-0.0147,-2.5598,1.3953,-3.1063
2024-10-11T12:27:27.655Z,-0.0119,-0.9625,0.1717,0.0718,-0.1820,0.0669,-0.0036,-0.0099,-0.0150,-2.5598,1.3953,-3.1063
2024-10-11T12:27:27.664Z,-0.0161,-0.9615,0.1721,0.0718,-0.1820,0.0669,-0.0033,-0.0104,-0.0151,-2.5598,1.3953,-3.1063
2024-10-11T12:27:27.674Z,-0.0191,-0.9623,0.1668,0.1325,-0.2190,0.0751,-0.0023,-0.0107,-0.0153,-2.5573,1.3954,-3.1093
2024-10-11T12:27:27.684Z,-0.0202,-0.9641,0.1627,0.1325,-0.2190,0.0751,-0.0032,-0.0133,-0.0183,-2.5573,1.3954,-3.1093
2024-10-11T12:27:27.694Z,-0.0168,-0.9662,0.1667,0.1325,-0.2190,0.0751,-0.0058,-0.0127,-0.0182,-2.5573,1.3954,-3.1093
2024-10-11T12:27:27.704Z,-0.0099,-0.9718,0.1682,0.0473,-0.1259,0.0601,-0.0036,-0.0162,-0.0158,-2.5546,1.3955,-3.1126
2024-10-11T12:27:27.714Z,-0.0083,-0.9759,0.1702,0.0473,-0.1259,0.0601,-0.0062,-0.0158,-0.0167,-2.5546,1.3955,-3.1126
2024-10-11T12:27:27.724Z,-0.0063,-0.9795,0.1694,0.0473,-0.1259,0.0601,-0.0077,-0.0170,-0.0151,-2.5546,1.3955,-3.1126
2024-10-11T12:27:27.734Z,-0.0058,-0.9853,0.1727,0.0120,0.0058,0.0142,-0.0098,-0.0164,-0.0135,-2.5524,1.3957,-3.1155
2024-10-11T12:27:27.744Z,-0.0057,-0.9883,0.1732,0.0120,0.0058,0.0142,-0.0096,-0.0135,-0.0135,-2.5524,1.3957,-3.1155
2024-10-11T12:27:27.754Z,-0.0046,-0.9916,0.1713,0.0120,0.0058,0.0142,-0.0076,-0.0132,-0.0124,-2.5524,1.3957,-3.1155
2024-10-11T12:27:27.764Z,-0.0023,-0.9931,0.1644,-0.0186,0.0814,0.0927,-0.0074,-0.0088,-0.0097,-2.5507,1.3960,-3.1177
2024-10-11T12:27:27.774Z,0.0069,-0.9897,0.1620,-0.0186,0.0814,0.0927,-0.0064,-0.0034,-0.0055,-2.5507,1.3960,-3.1177
2024-10-11T12:27:27.784Z,0.0175,-0.9887,0.1613,-0.0186,0.0814,0.0927,-0.0036,-0.0004,-0.0045,-2.5507,1.3960,-3.1177
2024-10-11T12:27:27.794Z,0.0175,-0.9887,0.1613,-0.1411,0.0351,0.1881,0.0016,0.0052,-0.0002,-2.5505,1.3961,-3.1183
2024-10-11T12:27:27.804Z,0.0061,-0.9890,0.1505,-0.1411,0.0351,0.1881,0.0043,0.0082,0.0031,-2.5505,1.3961,-3.1183
2024-10-11T12:27:27.814Z,0.0103,-0.9885,0.1510,-0.1411,0.0351,0.1881,0.0075,0.0127,0.0045,-2.5505,1.3961,-3.1183
2024-10-11T12:27:27.826Z,0.0096,-0.9886,0.1518,-0.1354,0.0384,0.2173,0.0094,0.0138,0.0088,-2.5514,1.3959,-3.1173
2024-10-11T12:27:27.834Z,0.0070,-0.9882,0.1493,-0.1354,0.0384,0.2173,0.0146,0.0175,0.0130,-2.5514,1.3959,-3.1173
2024-10-11T12:27:27.845Z,0.0065,-0.9830,0.1521,-0.1354,0.0384,0.2173,0.0157,0.0183,0.0154,-2.5514,1.3959,-3.1173
2024-10-11T12:27:27.854Z,0.0059,-0.9785,0.1550,-0.1028,-0.0606,0.1904,0.0185,0.0244,0.0162,-2.5534,1.3954,-3.1151
2024-10-11T12:27:27.864Z,0.0043,-0.9751,0.1583,-0.1028,-0.0606,0.1904,0.0178,0.0181,0.0140,-2.5534,1.3954,-3.1151
2024-10-11T12:27:27.876Z,-0.0013,-0.9754,0.1610,-0.1028,-0.0606,0.1904,0.0209,0.0174,0.0148,-2.5534,1.3954,-3.1151
2024-10-11T12:27:27.884Z,-0.0089,-0.9745,0.1591,0.0381,-0.0986,0.1543,0.0230,0.0133,0.0139,-2.5552,1.3950,-3.1130
2024-10-11T12:27:27.894Z,-0.0117,-0.9742,0.1628,0.0381,-0.0986,0.1543,0.0200,0.0141,0.0128,-2.5552,1.3950,-3.1130
2024-10-11T12:27:27.904Z,-0.0107,-0.9731,0.1696,0.0381,-0.0986,0.1543,0.0220,0.0023,0.0156,-2.5552,1.3950,-3.1130
2024-10-11T12:27:27.914Z,-0.0045,-0.9758,0.1750,-0.0080,-0.0858,0.0031,0.0215,0.0055,0.0108,-2.5567,1.3945,-3.1114
2024-10-11T12:27:27.925Z,-0.0053,-0.9771,0.1744,-0.0080,-0.0858,0.0031,0.0193,0.0083,0.0117,-2.5567,1.3945,-3.1114
2024-10-11T12:27:27.934Z,-0.0064,-0.9770,0.1775,-0.0080,-0.0858,0.0031,0.0181,0.0128,0.0109,-2.5567,1.3945,-3.1114
2024-10-11T12:27:27.944Z,-0.0077,-0.9802,0.1772,0.0213,-0.0416,-0.0138,0.0177,0.0125,0.0081,-2.5581,1.3940,-3.1099
2024-10-11T12:27:27.954Z,-0.0143,-0.9844,0.1736,0.0213,-0.0416,-0.0138,0.0172,0.0119,0.0072,-2.5581,1.3940,-3.1099
2024-10-11T12:27:27.964Z,-0.0183,-0.9833,0.1756,0.0213,-0.0416,-0.0138,0.0188,0.0147,0.0066,-2.5581,1.3940,-3.1099
2024-10-11T12:27:27.975Z,-0.0095,-0.9836,0.1819,0.0356,-0.0075,-0.0555,0.0187,0.0167,0.0083,-2.5595,1.3935,-3.1084
2024-10-11T12:27:27.984Z,-0.0073,-0.9871,0.1782,0.0356,-0.0075,-0.0555,0.0184,0.0225,0.0094,-2.5595,1.3935,-3.1084
2024-10-11T12:27:27.994Z,-0.0156,-0.9882,0.1783,0.0356,-0.0075,-0.0555,0.0152,0.0244,0.0089,-2.5595,1.3935,-3.1084
2024-10-11T12:27:28.004Z,-0.0164,-0.9884,0.1779,0.1000,0.0411,-0.0116,0.0183,0.0258,0.0095,-2.5609,1.3930,-3.1065
2024-10-11T12:27:28.014Z,-0.0157,-0.9864,0.1780,0.1000,0.0411,-0.0116,0.0152,0.0315,0.0099,-2.5609,1.3930,-3.1065
2024-10-11T12:27:28.025Z,-0.0146,-0.9853,0.1799,0.1000,0.0411,-0.0116,0.0114,0.0368,0.0111,-2.5609,1.3930,-3.1065
2024-10-11T12:27:28.034Z,-0.0068,-0.9843,0.1827,0.0009,0.0014,-0.0549,0.0081,0.0436,0.0132,-2.5629,1.3926,-3.1038
2024-10-11T12:27:28.044Z,-0.0130,-0.9829,0.1824,0.0009,0.0014,-0.0549,0.0105,0.0469,0.0134,-2.5629,1.3926,-3.1038
2024-10-11T12:27:28.054Z,-0.0189,-0.9824,0.1852,0.0009,0.0014,-0.0549,0.0075,0.0516,0.0161,-2.5629,1.3926,-3.1038
2024-10-11T12:27:28.064Z,-0.0218,-0.9832,0.1907,0.1411,-0.0095,-0.1305,0.0046,0.0532,0.0147,-2.5656,1.3923,-3.0999
2024-10-11T12:27:28.075Z,-0.0229,-0.9865,0.1900,0.1411,-0.0095,-0.1305,0.0032,0.0531,0.0144,-2.5656,1.3923,-3.0999
2024-10-11T12:27:28.084Z,-0.0219,-0.9884,0.1895,0.1411,-0.0095,-0.1305,0.0011,0.0546,0.0109,-2.5656,1.3923,-3.0999
2024-10-11T12:27:28.095Z,-0.0113,-0.9904,0.1919,0.0308,0.0616,-0.1420,0.0014,0.0600,0.0139,-2.5681,1.3922,-3.0959
2024-10-11T12:27:28.105Z,-0.0161,-0.9944,0.1888,0.0308,0.0616,-0.1420,-0.0036,0.0605,0.0118,-2.5681,1.3922,-3.0959
2024-10-11T12:27:28.114Z,-0.0130,-0.9972,0.1881,0.0308,0.0616,-0.1420,-0.0023,0.0628,0.0141,-2.5681,1.3922,-3.0959
2024-10-11T12:27:28.125Z,-0.0153,-0.9986,0.1921,0.0630,0.1422,-0.1446,-0.0068,0.0620,0.0145,-2.5707,1.3922,-3.0917
2024-10-11T12:27:28.134Z,-0.0174,-1.0018,0.1937,0.0630,0.1422,-0.1446,-0.0089,0.0624,0.0147,-2.5707,1.3922,-3.0917
2024-10-11T12:27:28.144Z,-0.0176,-1.0022,0.1891,0.0630,0.1422,-0.1446,-0.0101,0.0612,0.0116,-2.5707,1.3922,-3.0917
2024-10-11T12:27:28.154Z,-0.0269,-1.0026,0.1899,0.1698,0.1812,-0.1251,-0.0129,0.0597,0.0101,-2.5731,1.3924,-3.0878
2024-10-11T12:27:28.164Z,-0.0298,-1.0034,0.1897,0.1698,0.1812,-0.1251,-0.0146,0.0552,0.0089,-2.5731,1.3924,-3.0878
2024-10-11T12:27:28.175Z,-0.0309,-1.0036,0.1931,0.1698,0.1812,-0.1251,-0.0141,0.0519,0.0029,-2.5731,1.3924,-3.0878
2024-10-11T12:27:28.184Z,-0.0345,-1.0031,0.1975,0.2403,0.1849,-0.2030,-0.0179,0.0463,0.0034,-2.5745,1.3928,-3.0851
2024-10-11T12:27:28.194Z,-0.0332,-1.0022,0.1980,0.2403,0.1849,-0.2030,-0.0225,0.0406,0.0005,-2.5745,1.3928,-3.0851
2024-10-11T12:27:28.204Z,-0.0276,-1.0027,0.1955,0.2403,0.1849,-0.2030,-0.0220,0.0364,-0.0014,-2.5745,1.3928,-3.0851
2024-10-11T12:27:28.214Z,-0.0289,-1.0040,0.1953,0.1836,0.1935,-0.1881,-0.0271,0.0319,-0.0031,-2.5748,1.3935,-3.0840
2024-10-11T12:27:28.225Z,-0.0229,-1.0025,0.1909,0.1836,0.1935,-0.1881,-0.0265,0.0307,-0.0012,-2.5748,1.3935,-3.0840
2024-10-11T12:27:28.234Z,-0.0146,-0.9989,0.1871,0.1836,0.1935,-0.1881,-0.0306,0.0306,-0.0012,-2.5748,1.3935,-3.0840
2024-10-11T12:27:28.244Z,-0.0074,-0.9931,0.1860,-0.0284,0.0849,-0.1050,-0.0307,0.0294,-0.0032,-2.5751,1.3943,-3.0830
2024-10-11T12:27:28.254Z,-0.0001,-0.9886,0.1768,-0.0284,0.0849,-0.1050,-0.0306,0.0311,-0.0009,-2.5751,1.3943,-3.0830
2024-10-11T12:27:28.264Z,-0.0105,-0.9867,0.1665,-0.0284,0.0849,-0.1050,-0.0271,0.0267,-0.0004,-2.5751,1.3943,-3.0830
2024-10-11T12:27:28.275Z,-0.0122,-0.9800,0.1655,0.0179,-0.0453,0.0885,-0.0271,0.0241,-0.0028,-2.5754,1.3951,-3.0822
2024-10-11T12:27:28.284Z,-0.0108,-0.9766,0.1681,0.0179,-0.0453,0.0885,-0.0227,0.0238,-0.0038,-2.5754,1.3951,-3.0822
2024-10-11T12:27:28.294Z,-0.0073,-0.9739,0.1659,0.0179,-0.0453,0.0885,-0.0209,0.0222,-0.0019,-2.5754,1.3951,-3.0822
2024-10-11T12:27:28.304Z,-0.0051,-0.9701,0.1644,-0.0522,-0.1433,0.0931,-0.0189,0.0212,-0.0022,-2.5757,1.3957,-3.0815
2024-10-11T12:27:28.314Z,-0.0080,-0.9677,0.1615,-0.0522,-0.1433,0.0931,-0.0168,0.0182,-0.0022,-2.5757,1.3957,-3.0815
2024-10-11T12:27:28.326Z,-0.0091,-0.9692,0.1579,-0.0522,-0.1433,0.0931,-0.0136,0.0183,0.0002,-2.5757,1.3957,-3.0815
2024-10-11T12:27:28.334Z,-0.0107,-0.9712,0.1593,0.0020,-0.1335,0.1394,-0.0140,0.0151,-0.0036,-2.5757,1.3961,-3.0813
2024-10-11T12:27:28.344Z,-0.0103,-0.9704,0.1631,0.0020,-0.1335,0.1394,-0.0090,0.0121,-0.0025,-2.5757,1.3961,-3.0813
2024-10-11T12:27:28.354Z,-0.0117,-0.9709,0.1640,0.0020,-0.1335,0.1394,-0.0082,0.0095,-0.0041,-2.5757,1.3961,-3.0813
2024-10-11T12:27:28.364Z,-0.0086,-0.9723,0.1652,-0.0179,-0.1233,0.0783,-0.0108,0.0071,-0.0059,-2.5753,1.3964,-3.0816
2024-10-11T12:27:28.375Z,-0.0090,-0.9716,0.1677,-0.0179,-0.1233,0.0783,-0.0071,0.0062,-0.0039,-2.5753,1.3964,-3.0816
2024-10-11T12:27:28.384Z,-0.0089,-0.9726,0.1705,-0.0179,-0.1233,0.0783,-0.0070,0.0046,-0.0056,-2.5753,1.3964,-3.0816
2024-10-11T12:27:28.394Z,-0.0083,-0.9731,0.1738,-0.0185,-0.1153,-0.0076,-0.0037,0.0036,-0.0054,-2.5744,1.3966,-3.0826
2024-10-11T12:27:28.404Z,-0.0044,-0.9740,0.1785,-0.0185,-0.1153,-0.0076,-0.0041,-0.0004,-0.0064,-2.5744,1.3966,-3.0826
2024-10-11T12:27:28.414Z,-0.0040,-0.9757,0.1803,-0.0185,-0.1153,-0.0076,-0.0049,-0.0008,-0.0055,-2.5744,1.3966,-3.0826
2024-10-11T12:27:28.425Z,-0.0016,-0.9735,0.1831,-0.0829,-0.1114,-0.1007,-0.0048,-0.0050,-0.0033,-2.5737,1.3968,-3.0836
2024-10-11T12:27:28.434Z,-0.0024,-0.9731,0.1868,-0.0829,-0.1114,-0.1007,-0.0059,-0.0018,-0.0052,-2.5737,1.3968,-3.0836
2024-10-11T12:27:28.444Z,-0.0016,-0.9743,0.1872,-0.0829,-0.1114,-0.1007,-0.0048,-0.0032,-0.0040,-2.5737,1.3968,-3.0836
2024-10-11T12:27:28.454Z,-0.0040,-0.9735,0.1860,-0.0583,-0.1125,-0.1313,-0.0045,-0.0029,-0.0041,-2.5733,1.3970,-3.0843
2024-10-11T12:27:28.464Z,-0.0018,-0.9749,0.1823,-0.0583,-0.1125,-0.1313,-0.0044,-0.0028,-0.0033,-2.5733,1.3970,-3.0843
2024-10-11T12:27:28.475Z,0.0029,-0.9748,0.1794,-0.0583,-0.1125,-0.1313,-0.0018,-0.0037,-0.0010,-2.5733,1.3970,-3.0843
2024-10-11T12:27:28.484Z,0.0052,-0.9782,0.1787,-0.1473,-0.0664,-0.0604,-0.0009,-0.0006,0.0025,-2.5732,1.3971,-3.0848
2024-10-11T12:27:28.494Z,0.0083,-0.9801,0.1787,-0.1473,-0.0664,-0.0604,-0.0021,0.0017,0.0034,-2.5732,1.3971,-3.0848
2024-10-11T12:27:28.504Z,0.0051,-0.9804,0.1774,-0.1473,-0.0664,-0.0604,0.0002,0.0011,0.0039,-2.5732,1.3971,-3.0848
2024-10-11T12:27:28.514Z,-0.0009,-0.9821,0.1725,-0.0876,-0.0279,0.0007,0.0003,0.0001,0.0054,-2.5738,1.3970,-3.0844
2024-10-11T12:27:28.526Z,-0.0043,-0.9846,0.1683,-0.0876,-0.0279,0.0007,-0.0001,0.0035,0.0063,-2.5738,1.3970,-3.0844
2024-10-11T12:27:28.535Z,-0.0027,-0.9841,0.1694,-0.0876,-0.0279,0.0007,0.0022,-0.0001,0.0054,-2.5738,1.3970,-3.0844
2024-10-11T12:27:28.544Z,0.0022,-0.9831,0.1700,-0.1195,-0.0174,0.0272,0.0038,0.0001,0.0077,-2.5748,1.3969,-3.0837
2024-10-11T12:27:28.554Z,0.0005,-0.9823,0.1726,-0.1195,-0.0174,0.0272,0.0060,-0.0027,0.0098,-2.5748,1.3969,-3.0837
2024-10-11T12:27:28.564Z,-0.0011,-0.9818,0.1708,-0.1195,-0.0174,0.0272,0.0080,-0.0040,0.0081,-2.5748,1.3969,-3.0837
2024-10-11T12:27:28.574Z,-0.0051,-0.9846,0.1710,-0.0495,-0.0027,0.0199,0.0061,-0.0026,0.0087,-2.5758,1.3966,-3.0831
2024-10-11T12:27:28.584Z,-0.0029,-0.9822,0.1731,-0.0495,-0.0027,0.0199,0.0098,-0.0073,0.0097,-2.5758,1.3966,-3.0831
2024-10-11T12:27:28.594Z,-0.0050,-0.9824,0.1743,-0.0495,-0.0027,0.0199,0.0076,-0.0093,0.0087,-2.5758,1.3966,-3.0831
2024-10-11T12:27:28.604Z,-0.0089,-0.9801,0.1767,-0.0135,-0.0457,-0.0328,0.0105,-0.0086,0.0095,-2.5771,1.3963,-3.0823
2024-10-11T12:27:28.614Z,-0.0091,-0.9803,0.1800,-0.0135,-0.0457,-0.0328,0.0093,-0.0085,0.0091,-2.5771,1.3963,-3.0823
2024-10-11T12:27:28.624Z,-0.0078,-0.9787,0.1837,-0.0135,-0.0457,-0.0328,0.0080,-0.0061,0.0126,-2.5771,1.3963,-3.0823
2024-10-11T12:27:28.634Z,-0.0008,-0.9772,0.1849,-0.0945,-0.0740,-0.1112,0.0087,-0.0080,0.0141,-2.5786,1.3960,-3.0814
2024-10-11T12:27:28.644Z,-0.0050,-0.9789,0.1795,-0.0945,-0.0740,-0.1112,0.0105,-0.0101,0.0153,-2.5786,1.3960,-3.0814
2024-10-11T12:27:28.654Z,-0.0054,-0.9773,0.1781,-0.0945,-0.0740,-0.1112,0.0109,-0.0117,0.0131,-2.5786,1.3960,-3.0814
2024-10-11T12:27:28.664Z,-0.0090,-0.9745,0.1728,-0.0168,-0.1000,0.0101,0.0075,-0.0125,0.0148,-2.5807,1.3957,-3.0799
2024-10-11T12:27:28.674Z,-0.0062,-0.9745,0.1711,-0.0168,-0.1000,0.0101,0.0099,-0.0111,0.0139,-2.5807,1.3957,-3.0799
2024-10-11T12:27:28.684Z,-0.0022,-0.9741,0.1695,-0.0168,-0.1000,0.0101,0.0113,-0.0126,0.0161,-2.5807,1.3957,-3.0799
2024-10-11T12:27:28.694Z,-0.0045,-0.9760,0.1646,-0.0647,-0.0845,0.0948,0.0084,-0.0064,0.0162,-2.5832,1.3953,-3.0780
2024-10-11T12:27:28.704Z,-0.0090,-0.9757,0.1600,-0.0647,-0.0845,0.0948,0.0165,-0.0102,0.0182,-2.5832,1.3953,-3.0780
2024-10-11T12:27:28.714Z,-0.0076,-0.9758,0.1594,-0.0647,-0.0845,0.0948,0.0156,-0.0102,0.0150,-2.5832,1.3953,-3.0780
2024-10-11T12:27:28.724Z,-0.0112,-0.9819,0.1581,-0.0023,-0.0260,0.1636,0.0190,-0.0139,0.0150,-2.5856,1.3947,-3.0762
2024-10-11T12:27:28.734Z,-0.0127,-0.9833,0.1629,-0.0023,-0.0260,0.1636,0.0180,-0.0153,0.0165,-2.5856,1.3947,-3.0762
2024-10-11T12:27:28.743Z,-0.0118,-0.9885,0.1676,-0.0023,-0.0260,0.1636,0.0208,-0.0176,0.0148,-2.5856,1.3947,-3.0762
2024-10-11T12:27:28.753Z,-0.0098,-0.9896,0.1704,-0.0189,0.0504,0.0485,0.0211,-0.0201,0.0143,-2.5879,1.3941,-3.0747
2024-10-11T12:27:28.764Z,-0.0134,-0.9950,0.1731,-0.0189,0.0504,0.0485,0.0197,-0.0196,0.0130,-2.5879,1.3941,-3.0747
2024-10-11T12:27:28.774Z,-0.0142,-0.9966,0.1763,-0.0189,0.0504,0.0485,0.0183,-0.0232,0.0147,-2.5879,1.3941,-3.0747
2024-10-11T12:27:28.784Z,-0.0165,-0.9958,0.1810,0.0445,0.1128,-0.0495,0.0217,-0.0243,0.0114,-2.5899,1.3935,-3.0736
2024-10-11T12:27:28.794Z,-0.0195,-0.9956,0.1845,0.0445,0.1128,-0.0495,0.0187,-0.0270,0.0121,-2.5899,1.3935,-3.0736
2024-10-11T12:27:28.804Z,-0.0200,-0.9951,0.1848,0.0445,0.1128,-0.0495,0.0186,-0.0274,0.0084,-2.5899,1.3935,-3.0736
2024-10-11T12:27:28.814Z,-0.0230,-0.9946,0.1864,0.1073,0.1015,-0.0984,0.0166,-0.0280,0.0074,-2.5914,1.3931,-3.0732
2024-10-11T12:27:28.824Z,-0.0171,-0.9929,0.1911,0.1073,0.1015,-0.0984,0.0156,-0.0309,0.0087,-2.5914,1.3931,-3.0732
2024-10-11T12:27:28.834Z,-0.0196,-0.9940,0.1933,0.1073,0.1015,-0.0984,0.0121,-0.0320,0.0080,-2.5914,1.3931,-3.0732
2024-10-11T12:27:28.844Z,-0.0219,-0.9959,0.1928,0.0961,0.1149,-0.1572,0.0103,-0.0313,0.0039,-2.5926,1.3927,-3.0731
2024-10-11T12:27:28.854Z,-0.0252,-0.9984,0.1923,0.0961,0.1149,-0.1572,0.0061,-0.0337,0.0058,-2.5926,1.3927,-3.0731
2024-10-11T12:27:28.864Z,-0.0210,-0.9977,0.1924,0.0961,0.1149,-0.1572,0.0060,-0.0350,0.0034,-2.5926,1.3927,-3.0731
2024-10-11T12:27:28.874Z,-0.0206,-0.9975,0.1933,0.0838,0.1307,-0.1605,0.0032,-0.0406,0.0025,-2.5934,1.3925,-3.0737
2024-10-11T12:27:28.884Z,-0.0168,-0.9956,0.1927,0.0838,0.1307,-0.1605,-0.0001,-0.0398,0.0022,-2.5934,1.3925,-3.0737
2024-10-11T12:27:28.894Z,-0.0139,-0.9933,0.1887,0.0838,0.1307,-0.1605,-0.0006,-0.0425,0.0009,-2.5934,1.3925,-3.0737
2024-10-11T12:27:28.904Z,-0.0166,-0.9927,0.1899,0.0468,0.0836,-0.1267,-0.0008,-0.0464,-0.0007,-2.5939,1.3924,-3.0748
2024-10-11T12:27:28.914Z,-0.0164,-0.9917,0.1853,0.0468,0.0836,-0.1267,-0.0063,-0.0430,0.0010,-2.5939,1.3924,-3.0748
2024-10-11T12:27:28.924Z,-0.0155,-0.9878,0.1810,0.0468,0.0836,-0.1267,-0.0072,-0.0457,-0.0003,-2.5939,1.3924,-3.0748
2024-10-11T12:27:28.934Z,-0.0163,-0.9845,0.1757,0.0456,0.0032,0.0122,-0.0061,-0.0483,-0.0002,-2.5942,1.3925,-3.0760
2024-10-11T12:27:28.945Z,-0.0179,-0.9839,0.1749,0.0456,0.0032,0.0122,-0.0067,-0.0470,-0.0018,-2.5942,1.3925,-3.0760
2024-10-11T12:27:28.954Z,-0.0202,-0.9835,0.1775,0.0456,0.0032,0.0122,-0.0106,-0.0487,-0.0018,-2.5942,1.3925,-3.0760
2024-10-11T12:27:28.964Z,-0.0177,-0.9838,0.1798,0.0628,-0.0038,-0.0294,-0.0103,-0.0523,-0.0039,-2.5940,1.3927,-3.0779
2024-10-11T12:27:28.975Z,-0.0171,-0.9826,0.1766,0.0628,-0.0038,-0.0294,-0.0119,-0.0544,-0.0045,-2.5940,1.3927,-3.0779
2024-10-11T12:27:28.984Z,-0.0105,-0.9821,0.1744,0.0628,-0.0038,-0.0294,-0.0116,-0.0585,-0.0038,-2.5940,1.3927,-3.0779
2024-10-11T12:27:28.993Z,-0.0101,-0.9836,0.1759,-0.0080,-0.0065,0.0057,-0.0167,-0.0554,-0.0064,-2.5938,1.3931,-3.0801
2024-10-11T12:27:29.004Z,-0.0125,-0.9854,0.1741,-0.0080,-0.0065,0.0057,-0.0134,-0.0585,-0.0054,-2.5938,1.3931,-3.0801
2024-10-11T12:27:29.014Z,-0.0113,-0.9841,0.1742,-0.0080,-0.0065,0.0057,-0.0142,-0.0589,-0.0050,-2.5938,1.3931,-3.0801
2024-10-11T12:27:29.024Z,-0.0133,-0.9843,0.1756,0.0279,0.0000,0.0041,-0.0146,-0.0600,-0.0072,-2.5934,1.3935,-3.0825
2024-10-11T12:27:29.034Z,-0.0136,-0.9846,0.1752,0.0279,0.0000,0.0041,-0.0148,-0.0590,-0.0078,-2.5934,1.3935,-3.0825
2024-10-11T12:27:29.044Z,-0.0168,-0.9829,0.1771,0.0279,0.0000,0.0041,-0.0194,-0.0614,-0.0078,-2.5934,1.3935,-3.0825
2024-10-11T12:27:29.054Z,-0.0198,-0.9823,0.1799,0.0972,-0.0208,-0.0426,-0.0196,-0.0645,-0.0090,-2.5927,1.3940,-3.0853
2024-10-11T12:27:29.064Z,-0.0182,-0.9840,0.1838,0.0972,-0.0208,-0.0426,-0.0216,-0.0624,-0.0061,-2.5927,1.3940,-3.0853
2024-10-11T12:27:29.074Z,-0.0159,-0.9839,0.1864,0.0972,-0.0208,-0.0426,-0.0258,-0.0608,-0.0088,-2.5927,1.3940,-3.0853
2024-10-11T12:27:29.084Z,-0.0180,-0.9819,0.1846,0.0844,-0.0256,-0.0948,-0.0246,-0.0600,-0.0077,-2.5918,1.3947,-3.0882
2024-10-11T12:27:29.094Z,-0.0151,-0.9822,0.1782,0.0844,-0.0256,-0.0948,-0.0240,-0.0602,-0.0101,-2.5918,1.3947,-3.0882
2024-10-11T12:27:29.104Z,-0.0180,-0.9855,0.1765,0.0844,-0.0256,-0.0948,-0.0222,-0.0580,-0.0081,-2.5918,1.3947,-3.0882
2024-10-11T12:27:29.114Z,-0.0163,-0.9866,0.1745,0.0738,0.0190,-0.0011,-0.0220,-0.0584,-0.0128,-2.5907,1.3953,-3.0912
2024-10-11T12:27:29.124Z,-0.0166,-0.9880,0.1732,0.0738,0.0190,-0.0011,-0.0217,-0.0577,-0.0082,-2.5907,1.3953,-3.0912
2024-10-11T12:27:29.134Z,-0.0139,-0.9888,0.1677,0.0738,0.0190,-0.0011,-0.0196,-0.0586,-0.0074,-2.5907,1.3953,-3.0912
2024-10-11T12:27:29.144Z,-0.0121,-0.9897,0.1622,0.0382,0.0488,0.1138,-0.0181,-0.0560,-0.0077,-2.5898,1.3959,-3.0941
2024-10-11T12:27:29.154Z,-0.0093,-0.9920,0.1621,0.0382,0.0488,0.1138,-0.0175,-0.0567,-0.0052,-2.5898,1.3959,-3.0941
2024-10-11T12:27:29.164Z,-0.0094,-0.9926,0.1636,0.0382,0.0488,0.1138,-0.0149,-0.0557,-0.0061,-2.5898,1.3959,-3.0941
2024-10-11T12:27:29.174Z,-0.0135,-0.9943,0.1641,0.0556,0.0927,0.0915,-0.0130,-0.0505,-0.0064,-2.5891,1.3963,-3.0966
2024-10-11T12:27:29.184Z,-0.0186,-0.9924,0.1605,0.0556,0.0927,0.0915,-0.0131,-0.0509,-0.0062,-2.5891,1.3963,-3.0966
2024-10-11T12:27:29.195Z,-0.0171,-0.9894,0.1641,0.0556,0.0927,0.0915,-0.0129,-0.0512,-0.0056,-2.5891,1.3963,-3.0966
2024-10-11T12:27:29.204Z,-0.0152,-0.9871,0.1677,0.0773,0.0222,0.0534,-0.0102,-0.0491,-0.0059,-2.5884,1.3966,-3.0991
2024-10-11T12:27:29.214Z,-0.0199,-0.9868,0.1655,0.0773,0.0222,0.0534,-0.0083,-0.0499,-0.0084,-2.5884,1.3966,-3.0991
2024-10-11T12:27:29.224Z,-0.0223,-0.9862,0.1652,0.0773,0.0222,0.0534,-0.0076,-0.0484,-0.0097,-2.5884,1.3966,-3.0991
2024-10-11T12:27:29.234Z,-0.0194,-0.9851,0.1650,0.1234,0.0020,0.0790,-0.0040,-0.0512,-0.0086,-2.5872,1.3968,-3.1019
2024-10-11T12:27:29.244Z,-0.0176,-0.9813,0.1657,0.1234,0.0020,0.0790,-0.0033,-0.0451,-0.0061,-2.5872,1.3968,-3.1019
2024-10-11T12:27:29.254Z,-0.0093,-0.9816,0.1674,0.1234,0.0020,0.0790,-0.0028,-0.0413,-0.0047,-2.5872,1.3968,-3.1019
2024-10-11T12:27:29.264Z,0.0006,-0.9810,0.1669,-0.0696,-0.0387,0.0598,-0.0020,-0.0354,-0.0012,-2.5864,1.3968,-3.1043
2024-10-11T12:27:29.274Z,-0.0001,-0.9799,0.1664,-0.0696,-0.0387,0.0598,-0.0002,-0.0295,0.0001,-2.5864,1.3968,-3.1043
2024-10-11T12:27:29.284Z,0.0002,-0.9779,0.1693,-0.0696,-0.0387,0.0598,-0.0023,-0.0263,0.0005,-2.5864,1.3968,-3.1043
2024-10-11T12:27:29.294Z,-0.0059,-0.9761,0.1716,-0.0047,-0.0868,0.0132,-0.0030,-0.0202,0.0030,-2.5869,1.3968,-3.1049
2024-10-11T12:27:29.304Z,-0.0100,-0.9732,0.1715,-0.0047,-0.0868,0.0132,-0.0012,-0.0141,0.0047,-2.5869,1.3968,-3.1049
2024-10-11T12:27:29.314Z,-0.0056,-0.9706,0.1762,-0.0047,-0.0868,0.0132,-0.0037,-0.0119,0.0098,-2.5869,1.3968,-3.1049
2024-10-11T12:27:29.324Z,-0.0070,-0.9688,0.1764,0.0042,-0.1580,-0.0340,-0.0034,-0.0056,0.0081,-2.5886,1.3969,-3.1038
2024-10-11T12:27:29.334Z,-0.0078,-0.9687,0.1735,0.0042,-0.1580,-0.0340,-0.0017,-0.0030,0.0107,-2.5886,1.3969,-3.1038
2024-10-11T12:27:29.344Z,-0.0065,-0.9688,0.1703,0.0042,-0.1580,-0.0340,-0.0028,0.0019,0.0131,-2.5886,1.3969,-3.1038
2024-10-11T12:27:29.354Z,-0.0065,-0.9680,0.1717,-0.0034,-0.1665,0.0113,0.0014,0.0035,0.0139,-2.5907,1.3970,-3.1020
2024-10-11T12:27:29.364Z,-0.0057,-0.9715,0.1673,-0.0034,-0.1665,0.0113,-0.0030,0.0048,0.0136,-2.5907,1.3970,-3.1020
2024-10-11T12:27:29.374Z,-0.0104,-0.9758,0.1633,-0.0034,-0.1665,0.0113,-0.0009,0.0084,0.0140,-2.5907,1.3970,-3.1020
2024-10-11T12:27:29.384Z,-0.0130,-0.9789,0.1615,0.0560,-0.0589,0.1106,-0.0000,0.0054,0.0131,-2.5931,1.3970,-3.0997
2024-10-11T12:27:29.395Z,-0.0106,-0.9805,0.1617,0.0560,-0.0589,0.1106,0.0020,0.0044,0.0185,-2.5931,1.3970,-3.0997
2024-10-11T12:27:29.404Z,-0.0102,-0.9824,0.1627,0.0560,-0.0589,0.1106,-0.0005,0.0076,0.0171,-2.5931,1.3970,-3.0997
2024-10-11T12:27:29.415Z,-0.0151,-0.9811,0.1655,0.0724,-0.0372,0.0724,-0.0018,0.0079,0.0147,-2.5957,1.3969,-3.0971
2024-10-11T12:27:29.425Z,-0.0167,-0.9820,0.1633,0.0724,-0.0372,0.0724,0.0024,0.0031,0.0158,-2.5957,1.3969,-3.0971
2024-10-11T12:27:29.434Z,-0.0238,-0.9839,0.1632,0.0724,-0.0372,0.0724,0.0011,0.0048,0.0125,-2.5957,1.3969,-3.0971
2024-10-11T12:27:29.444Z,-0.0160,-0.9832,0.1713,0.0776,-0.0162,0.0161,0.0024,0.0048,0.0133,-2.5982,1.3968,-3.0948
2024-10-11T12:27:29.454Z,-0.0171,-0.9823,0.1767,0.0776,-0.0162,0.0161,0.0023,0.0056,0.0109,-2.5982,1.3968,-3.0948
2024-10-11T12:27:29.464Z,-0.0158,-0.9816,0.1785,0.0776,-0.0162,0.0161,0.0057,0.0032,0.0127,-2.5982,1.3968,-3.0948
2024-10-11T12:27:29.474Z,-0.0115,-0.9813,0.1791,0.0295,-0.0354,-0.0593,0.0039,0.0028,0.0115,-2.6005,1.3967,-3.0926
2024-10-11T12:27:29.484Z,-0.0166,-0.9841,0.1787,0.0295,-0.0354,-0.0593,0.0032,0.0033,0.0133,-2.6005,1.3967,-3.0926
2024-10-11T12:27:29.494Z,-0.0150,-0.9848,0.1744,0.0295,-0.0354,-0.0593,-0.0005,0.0038,0.0134,-2.6005,1.3967,-3.0926
2024-10-11T12:27:29.504Z,-0.0156,-0.9872,0.1779,0.0659,0.0229,-0.0474,-0.0007,0.0063,0.0128,-2.6029,1.3966,-3.0904
2024-10-11T12:27:29.513Z,-0.0091,-0.9871,0.1810,0.0659,0.0229,-0.0474,-0.0001,0.0037,0.0131,-2.6029,1.3966,-3.0904
2024-10-11T12:27:29.524Z,-0.0115,-0.9905,0.1788,0.0659,0.0229,-0.0474,0.0008,0.0066,0.0141,-2.6029,1.3966,-3.0904
2024-10-11T12:27:29.534Z,-0.0083,-0.9917,0.1774,-0.0103,0.0669,-0.0426,-0.0010,0.0086,0.0113,-2.6057,1.3966,-3.0878
2024-10-11T12:27:29.544Z,-0.0114,-0.9905,0.1770,-0.0103,0.0669,-0.0426,-0.0007,0.0093,0.0124,-2.6057,1.3966,-3.0878
2024-10-11T12:27:29.554Z,-0.0123,-0.9897,0.1731,-0.0103,0.0669,-0.0426,-0.0012,0.0069,0.0126,-2.6057,1.3966,-3.0878
2024-10-11T12:27:29.563Z,-0.0142,-0.9888,0.1728,0.0431,0.0390,0.0031,0.0009,0.0080,0.0133,-2.6084,1.3965,-3.0852
2024-10-11T12:27:29.574Z,-0.0161,-0.9888,0.1727,0.0431,0.0390,0.0031,0.0014,0.0016,0.0136,-2.6084,1.3965,-3.0852
2024-10-11T12:27:29.584Z,-0.0186,-0.9873,0.1684,0.0431,0.0390,0.0031,0.0020,0.0047,0.0129,-2.6084,1.3965,-3.0852
2024-10-11T12:27:29.594Z,-0.0191,-0.9858,0.1684,0.0879,0.0099,0.0475,0.0018,0.0017,0.0125,-2.6108,1.3964,-3.0829
2024-10-11T12:27:29.604Z,-0.0165,-0.9851,0.1706,0.0879,0.0099,0.0475,0.0056,-0.0002,0.0103,-2.6108,1.3964,-3.0829
2024-10-11T12:27:29.614Z,-0.0219,-0.9845,0.1712,0.0879,0.0099,0.0475,0.0040,-0.0019,0.0119,-2.6108,1.3964,-3.0829
2024-10-11T12:27:29.624Z,-0.0225,-0.9865,0.1749,0.1177,0.0170,-0.0144,0.0040,-0.0003,0.0085,-2.6127,1.3962,-3.0813
2024-10-11T12:27:29.635Z,-0.0211,-0.9879,0.1730,0.1177,0.0170,-0.0144,0.0054,-0.0008,0.0093,-2.6127,1.3962,-3.0813
2024-10-11T12:27:29.645Z,-0.0282,-0.9893,0.1735,0.1177,0.0170,-0.0144,0.0059,-0.0002,0.0055,-2.6127,1.3962,-3.0813
2024-10-11T12:27:29.654Z,-0.0265,-0.9896,0.1763,0.1551,0.0477,-0.0268,0.0031,0.0016,0.0031,-2.6140,1.3960,-3.0802
2024-10-11T12:27:29.664Z,-0.0225,-0.9877,0.1827,0.1551,0.0477,-0.0268,0.0028,-0.0004,0.0039,-2.6140,1.3960,-3.0802
2024-10-11T12:27:29.674Z,-0.0253,-0.9863,0.1866,0.1551,0.0477,-0.0268,-0.0043,-0.0016,0.0014,-2.6140,1.3960,-3.0802
2024-10-11T12:27:29.684Z,-0.0273,-0.9853,0.1844,0.1630,0.0052,-0.1061,-0.0020,-0.0029,-0.0021,-2.6146,1.3960,-3.0799
2024-10-11T12:27:29.694Z,-0.0290,-0.9868,0.1837,0.1630,0.0052,-0.1061,-0.0051,-0.0072,-0.0010,-2.6146,1.3960,-3.0799
2024-10-11T12:27:29.704Z,-0.0248,-0.9871,0.1808,0.1630,0.0052,-0.1061,-0.0054,-0.0096,-0.0026,-2.6146,1.3960,-3.0799
2024-10-11T12:27:29.714Z,-0.0187,-0.9849,0.1846,0.0790,0.0010,-0.1092,-0.0055,-0.0073,-0.0058,-2.6146,1.3961,-3.0804
2024-10-11T12:27:29.724Z,-0.0154,-0.9839,0.1895,0.0790,0.0010,-0.1092,-0.0056,-0.0080,-0.0045,-2.6146,1.3961,-3.0804
2024-10-11T12:27:29.734Z,-0.0198,-0.9823,0.1901,0.0790,0.0010,-0.1092,-0.0100,-0.0053,-0.0056,-2.6146,1.3961,-3.0804
2024-10-11T12:27:29.744Z,-0.0211,-0.9855,0.1856,0.1045,0.0065,-0.1218,-0.0091,-0.0074,-0.0049,-2.6142,1.3964,-3.0812
2024-10-11T12:27:29.754Z,-0.0196,-0.9880,0.1845,0.1045,0.0065,-0.1218,-0.0109,-0.0057,-0.0086,-2.6142,1.3964,-3.0812
2024-10-11T12:27:29.764Z,-0.0193,-0.9886,0.1821,0.1045,0.0065,-0.1218,-0.0149,-0.0046,-0.0077,-2.6142,1.3964,-3.0812
2024-10-11T12:27:29.774Z,-0.0147,-0.9894,0.1820,0.0432,0.0441,-0.0895,-0.0139,-0.0033,-0.0070,-2.6138,1.3967,-3.0819
2024-10-11T12:27:29.784Z,-0.0106,-0.9900,0.1792,0.0432,0.0441,-0.0895,-0.0149,-0.0001,-0.0060,-2.6138,1.3967,-3.0819
2024-10-11T12:27:29.794Z,-0.0118,-0.9927,0.1752,0.0432,0.0441,-0.0895,-0.0132,-0.0004,-0.0040,-2.6138,1.3967,-3.0819
2024-10-11T12:27:29.804Z,-0.0135,-0.9923,0.1686,0.0330,0.0724,0.0388,-0.0128,0.0002,-0.0080,-2.6133,1.3970,-3.0827
2024-10-11T12:27:29.814Z,-0.0109,-0.9928,0.1666,0.0330,0.0724,0.0388,-0.0132,0.0046,-0.0043,-2.6133,1.3970,-3.0827
2024-10-11T12:27:29.824Z,-0.0094,-0.9890,0.1667,0.0330,0.0724,0.0388,-0.0115,0.0026,-0.0058,-2.6133,1.3970,-3.0827
2024-10-11T12:27:29.834Z,-0.0150,-0.9869,0.1652,0.0489,0.0185,0.0701,-0.0120,0.0037,-0.0055,-2.6128,1.3973,-3.0833
2024-10-11T12:27:29.845Z,-0.0190,-0.9855,0.1610,0.0489,0.0185,0.0701,-0.0110,0.0032,-0.0042,-2.6128,1.3973,-3.0833
2024-10-11T12:27:29.855Z,-0.0196,-0.9809,0.1597,0.0489,0.0185,0.0701,-0.0111,0.0064,-0.0056,-2.6128,1.3973,-3.0833
2024-10-11T12:27:29.864Z,-0.0188,-0.9824,0.1606,0.0873,-0.0258,0.1127,-0.0093,0.0076,-0.0061,-2.6122,1.3976,-3.0840
2024-10-11T12:27:29.874Z,-0.0153,-0.9832,0.1602,0.0873,-0.0258,0.1127,-0.0071,0.0109,-0.0049,-2.6122,1.3976,-3.0840
2024-10-11T12:27:29.884Z,-0.0181,-0.9807,0.1612,0.0873,-0.0258,0.1127,-0.0050,0.0115,-0.0042,-2.6122,1.3976,-3.0840
2024-10-11T12:27:29.894Z,-0.0203,-0.9800,0.1604,0.1028,-0.0501,0.1128,-0.0056,0.0117,-0.0046,-2.6116,1.3978,-3.0846
2024-10-11T12:27:29.904Z,-0.0248,-0.9808,0.1618,0.1028,-0.0501,0.1128,-0.0053,0.0122,-0.0032,-2.6116,1.3978,-3.0846
2024-10-11T12:27:29.914Z,-0.0187,-0.9795,0.1665,0.1028,-0.0501,0.1128,-0.0040,0.0160,-0.0058,-2.6116,1.3978,-3.0846
2024-10-11T12:27:29.924Z,-0.0129,-0.9772,0.1684,0.0310,-0.0772,0.0325,-0.0033,0.0210,-0.0055,-2.6111,1.3979,-3.0849
2024-10-11T12:27:29.934Z,-0.0116,-0.9778,0.1668,0.0310,-0.0772,0.0325,-0.0047,0.0244,-0.0048,-2.6111,1.3979,-3.0849
2024-10-11T12:27:29.944Z,-0.0152,-0.9774,0.1623,0.0310,-0.0772,0.0325,-0.0048,0.0260,0.0011,-2.6111,1.3979,-3.0849
2024-10-11T12:27:29.954Z,-0.0163,-0.9779,0.1626,0.0632,-0.0706,0.0884,-0.0046,0.0287,-0.0019,-2.6113,1.3981,-3.0842
2024-10-11T12:27:29.963Z,-0.0128,-0.9767,0.1610,0.0632,-0.0706,0.0884,-0.0039,0.0336,-0.0016,-2.6113,1.3981,-3.0842
2024-10-11T12:27:29.974Z,-0.0116,-0.9760,0.1600,0.0632,-0.0706,0.0884,-0.0036,0.0364,0.0008,-2.6113,1.3981,-3.0842
2024-10-11T12:27:29.984Z,-0.0103,-0.9732,0.1611,0.0017,-0.1171,0.1005,-0.0029,0.0358,0.0001,-2.6122,1.3983,-3.0825
2024-10-11T12:27:29.994Z,-0.0099,-0.9730,0.1601,0.0017,-0.1171,0.1005,0.0014,0.0415,0.0014,-2.6122,1.3983,-3.0825
2024-10-11T12:27:30.004Z,-0.0091,-0.9746,0.1617,0.0017,-0.1171,0.1005,0.0038,0.0378,0.0029,-2.6122,1.3983,-3.0825
2024-10-11T12:27:30.014Z,-0.0022,-0.9743,0.1598,-0.0808,-0.1068,0.1133,0.0041,0.0390,0.0016,-2.6128,1.3982,-3.0810
2024-10-11T12:27:30.024Z,-0.0020,-0.9775,0.1567,-0.0808,-0.1068,0.1133,0.0054,0.0444,0.0014,-2.6128,1.3982,-3.0810
2024-10-11T12:27:30.034Z,-0.0023,-0.9797,0.1533,-0.0808,-0.1068,0.1133,0.0091,0.0428,0.0035,-2.6128,1.3982,-3.0810
2024-10-11T12:27:30.044Z,-0.0035,-0.9806,0.1546,-0.0711,-0.0446,0.1669,0.0115,0.0416,0.0033,-2.6135,1.3980,-3.0792
2024-10-11T12:27:30.055Z,-0.0034,-0.9819,0.1562,-0.0711,-0.0446,0.1669,0.0169,0.0397,0.0016,-2.6135,1.3980,-3.0792
2024-10-11T12:27:30.064Z,-0.0091,-0.9849,0.1580,-0.0711,-0.0446,0.1669,0.0169,0.0397,0.0016,-2.6135,1.3980,-3.0792
2024-10-11T12:27:30.075Z,-0.0127,-0.9875,0.1601,0.0168,0.0240,0.1169,0.0177,0.0353,0.0027,-2.6139,1.3976,-3.0779
2024-10-11T12:27:30.084Z,-0.0123,-0.9875,0.1632,0.0168,0.0240,0.1169,0.0190,0.0281,0.0038,-2.6139,1.3976,-3.0779
2024-10-11T12:27:30.095Z,-0.0166,-0.9874,0.1629,0.0168,0.0240,0.1169,0.0193,0.0248,0.0006,-2.6139,1.3976,-3.0779
2024-10-11T12:27:30.104Z,-0.0214,-0.9881,0.1693,0.1014,0.0307,0.0316,0.0176,0.0186,-0.0007,-2.6138,1.3971,-3.0775
2024-10-11T12:27:30.116Z,-0.0201,-0.9886,0.1739,0.1014,0.0307,0.0316,0.0150,0.0133,-0.0046,-2.6138,1.3971,-3.0775
2024-10-11T12:27:30.124Z,-0.0156,-0.9894,0.1787,0.1014,0.0307,0.0316,0.0150,0.0133,-0.0046,-2.6138,1.3971,-3.0775
2024-10-11T12:27:30.135Z,-0.0130,-0.9895,0.1819,0.0195,0.0449,-0.0894,0.0113,0.0123,-0.0029,-2.6131,1.3967,-3.0780
2024-10-11T12:27:30.145Z,-0.0085,-0.9910,0.1800,0.0195,0.0449,-0.0894,0.0113,0.0123,-0.0029,-2.6131,1.3967,-3.0780
2024-10-11T12:27:30.155Z,-0.0041,-0.9904,0.1782,0.0195,0.0449,-0.0894,0.0102,0.0110,0.0012,-2.6131,1.3967,-3.0780
2024-10-11T12:27:30.164Z,-0.0008,-0.9887,0.1814,-0.1002,0.0382,-0.0817,0.0102,0.0110,0.0012,-2.6129,1.3965,-3.0782
2024-10-11T12:27:30.175Z,-0.0024,-0.9919,0.1787,-0.1002,0.0382,-0.0817,0.0066,0.0087,0.0027,-2.6129,1.3965,-3.0782
2024-10-11T12:27:30.185Z,-0.0021,-0.9915,0.1729,-0.1002,0.0382,-0.0817,0.0049,0.0097,0.0050,-2.6129,1.3965,-3.0782
2024-10-11T12:27:30.195Z,-0.0037,-0.9899,0.1768,-0.0728,0.0504,-0.0346,0.0049,0.0097,0.0050,-2.6138,1.3963,-3.0773
2024-10-11T12:27:30.205Z,-0.0016,-0.9892,0.1810,-0.0728,0.0504,-0.0346,0.0016,0.0081,0.0063,-2.6138,1.3963,-3.0773
2024-10-11T12:27:30.216Z,-0.0026,-0.9892,0.1805,-0.0728,0.0504,-0.0346,0.0057,0.0102,0.0064,-2.6138,1.3963,-3.0773
2024-10-11T12:27:30.226Z,-0.0089,-0.9876,0.1761,-0.0244,0.0276,-0.0263,0.0037,0.0048,0.0073,-2.6149,1.3961,-3.0761
2024-10-11T12:27:30.235Z,-0.0079,-0.9864,0.1779,-0.0244,0.0276,-0.0263,0.0017,0.0055,0.0078,-2.6149,1.3961,-3.0761
2024-10-11T12:27:30.247Z,-0.0059,-0.9828,0.1734,-0.0272,-0.0168,0.0293,0.0017,0.0055,0.0078,-2.6163,1.3959,-3.0749
2024-10-11T12:27:30.255Z,-0.0088,-0.9830,0.1706,-0.0272,-0.0168,0.0293,0.0050,0.0001,0.0070,-2.6163,1.3959,-3.0749
2024-10-11T12:27:30.265Z,-0.0142,-0.9841,0.1696,-0.0272,-0.0168,0.0293,0.0057,-0.0029,0.0071,-2.6163,1.3959,-3.0749
2024-10-11T12:27:30.275Z,-0.0179,-0.9857,0.1640,-0.0272,-0.0168,0.0293,0.0043,-0.0023,0.0063,-2.6163,1.3959,-3.0749
2024-10-11T12:27:30.284Z,-0.0172,-0.9874,0.1649,0.0533,0.0259,0.0869,0.0043,-0.0023,0.0063,-2.6172,1.3957,-3.0742
2024-10-11T12:27:30.295Z,-0.0153,-0.9863,0.1700,0.0533,0.0259,0.0869,0.0060,-0.0073,0.0062,-2.6172,1.3957,-3.0742
2024-10-11T12:27:30.305Z,-0.0161,-0.9866,0.1736,0.0533,0.0259,0.0869,0.0046,-0.0121,0.0017,-2.6172,1.3957,-3.0742
2024-10-11T12:27:30.316Z,-0.0182,-0.9852,0.1722,0.0633,0.0049,0.0170,0.0055,-0.0134,-0.0009,-2.6178,1.3955,-3.0742
2024-10-11T12:27:30.325Z,-0.0219,-0.9826,0.1775,0.0633,0.0049,0.0170,0.0058,-0.0149,0.0004,-2.6178,1.3955,-3.0742
2024-10-11T12:27:30.335Z,-0.0242,-0.9823,0.1795,0.0633,0.0049,0.0170,0.0034,-0.0173,-0.0025,-2.6178,1.3955,-3.0742
2024-10-11T12:27:30.346Z,-0.0252,-0.9819,0.1807,0.1330,-0.0270,-0.0650,0.0005,-0.0176,-0.0049,-2.6178,1.3954,-3.0750
2024-10-11T12:27:30.355Z,-0.0278,-0.9798,0.1835,0.1330,-0.0270,-0.0650,0.0007,-0.0221,-0.0054,-2.6178,1.3954,-3.0750
2024-10-11T12:27:30.365Z,-0.0254,-0.9772,0.1862,0.1330,-0.0270,-0.0650,0.0004,-0.0200,-0.0095,-2.6178,1.3954,-3.0750
2024-10-11T12:27:30.375Z,-0.0229,-0.9781,0.1850,0.1131,-0.0644,-0.1062,-0.0029,-0.0213,-0.0114,-2.6172,1.3954,-3.0764
2024-10-11T12:27:30.385Z,-0.0234,-0.9801,0.1810,0.1131,-0.0644,-0.1062,-0.0036,-0.0212,-0.0088,-2.6172,1.3954,-3.0764
2024-10-11T12:27:30.397Z,-0.0206,-0.9818,0.1781,0.0295,-0.0154,-0.0150,-0.0031,-0.0212,-0.0071,-2.6160,1.3954,-3.0784
2024-10-11T12:27:30.404Z,-0.0140,-0.9831,0.1757,0.0295,-0.0154,-0.0150,-0.0011,-0.0204,-0.0084,-2.6160,1.3954,-3.0784
2024-10-11T12:27:30.413Z,-0.0113,-0.9828,0.1744,0.0295,-0.0154,-0.0150,-0.0011,-0.0204,-0.0084,-2.6160,1.3954,-3.0784
2024-10-11T12:27:30.424Z,-0.0132,-0.9850,0.1700,0.0295,-0.0154,-0.0150,-0.0009,-0.0186,-0.0093,-2.6160,1.3954,-3.0784
2024-10-11T12:27:30.433Z,-0.0134,-0.9852,0.1681,0.0259,0.0050,0.0595,-0.0009,-0.0186,-0.0093,-2.6151,1.3954,-3.0801
2024-10-11T12:27:30.445Z,-0.0133,-0.9848,0.1684,0.0259,0.0050,0.0595,-0.0022,-0.0151,-0.0096,-2.6151,1.3954,-3.0801
2024-10-11T12:27:30.454Z,-0.0117,-0.9835,0.1692,0.0259,0.0050,0.0595,0.0013,-0.0154,-0.0082,-2.6151,1.3954,-3.0801
2024-10-11T12:27:30.464Z,-0.0136,-0.9857,0.1660,0.0315,0.0099,0.0812,0.0007,-0.0142,-0.0121,-2.6141,1.3954,-3.0818
2024-10-11T12:27:30.475Z,-0.0117,-0.9838,0.1695,0.0315,0.0099,0.0812,0.0006,-0.0127,-0.0081,-2.6141,1.3954,-3.0818
2024-10-11T12:27:30.486Z,-0.0117,-0.9838,0.1695,-0.0076,-0.0095,0.0192,0.0024,-0.0073,-0.0070,-2.6128,1.3952,-3.0837
2024-10-11T12:27:30.496Z,-0.0093,-0.9837,0.1724,-0.0076,-0.0095,0.0192,0.0047,-0.0070,-0.0100,-2.6128,1.3952,-3.0837
2024-10-11T12:27:30.504Z,-0.0124,-0.9836,0.1726,-0.0076,-0.0095,0.0192,0.0013,-0.0074,-0.0092,-2.6128,1.3952,-3.0837
2024-10-11T12:27:30.515Z,-0.0199,-0.9868,0.1761,-0.0076,-0.0095,0.0192,0.0013,-0.0074,-0.0092,-2.6128,1.3952,-3.0837
2024-10-11T12:27:30.524Z,-0.0199,-0.9868,0.1761,0.0991,0.0211,-0.0159,0.0019,-0.0061,-0.0128,-2.6114,1.3952,-3.0856
2024-10-11T12:27:30.534Z,-0.0171,-0.9880,0.1762,0.0991,0.0211,-0.0159,0.0030,-0.0085,-0.0113,-2.6114,1.3952,-3.0856
2024-10-11T12:27:30.546Z,-0.0168,-0.9888,0.1830,0.0526,0.0539,-0.0991,0.0020,-0.0107,-0.0134,-2.6094,1.3952,-3.0880
2024-10-11T12:27:30.555Z,-0.0147,-0.9901,0.1846,0.0526,0.0539,-0.0991,-0.0014,-0.0098,-0.0163,-2.6094,1.3952,-3.0880
2024-10-11T12:27:30.563Z,-0.0136,-0.9898,0.1856,0.0526,0.0539,-0.0991,-0.0014,-0.0098,-0.0163,-2.6094,1.3952,-3.0880
2024-10-11T12:27:30.574Z,-0.0106,-0.9887,0.1904,0.0526,0.0539,-0.0991,-0.0035,-0.0171,-0.0161,-2.6094,1.3952,-3.0880
2024-10-11T12:27:30.584Z,-0.0083,-0.9854,0.1898,-0.0053,0.0079,-0.1511,-0.0044,-0.0212,-0.0170,-2.6070,1.3953,-3.0910
2024-10-11T12:27:30.596Z,-0.0103,-0.9829,0.1866,-0.0053,0.0079,-0.1511,-0.0033,-0.0222,-0.0174,-2.6070,1.3953,-3.0910
2024-10-11T12:27:30.604Z,-0.0103,-0.9829,0.1866,-0.0053,0.0079,-0.1511,-0.0057,-0.0251,-0.0197,-2.6070,1.3953,-3.0910
2024-10-11T12:27:30.615Z,-0.0035,-0.9830,0.1860,0.0054,-0.0133,-0.1080,-0.0052,-0.0271,-0.0184,-2.6045,1.3954,-3.0944
2024-10-11T12:27:30.625Z,-0.0055,-0.9814,0.1835,0.0054,-0.0133,-0.1080,-0.0063,-0.0315,-0.0173,-2.6045,1.3954,-3.0944
2024-10-11T12:27:30.635Z,-0.0055,-0.9814,0.1835,-0.0499,-0.0417,-0.0782,-0.0077,-0.0272,-0.0180,-2.6019,1.3956,-3.0981
2024-10-11T12:27:30.644Z,-0.0025,-0.9804,0.1821,-0.0499,-0.0417,-0.0782,-0.0091,-0.0321,-0.0152,-2.6019,1.3956,-3.0981
2024-10-11T12:27:30.655Z,0.0070,-0.9824,0.1765,-0.0499,-0.0417,-0.0782,-0.0080,-0.0356,-0.0134,-2.6019,1.3956,-3.0981
2024-10-11T12:27:30.664Z,0.0070,-0.9824,0.1765,-0.0499,-0.0417,-0.0782,-0.0046,-0.0310,-0.0105,-2.6019,1.3956,-3.0981
2024-10-11T12:27:30.675Z,0.0060,-0.9827,0.1729,-0.1630,-0.0332,-0.0169,-0.0020,-0.0284,-0.0104,-2.5998,1.3957,-3.1014
2024-10-11T12:27:30.685Z,0.0041,-0.9837,0.1721,-0.1630,-0.0332,-0.0169,0.0024,-0.0292,-0.0065,-2.5998,1.3957,-3.1014
2024-10-11T12:27:30.694Z,0.0041,-0.9837,0.1721,-0.1630,-0.0332,-0.0169,0.0016,-0.0284,-0.0048,-2.5998,1.3957,-3.1014
2024-10-11T12:27:30.705Z,0.0017,-0.9807,0.1659,-0.1422,-0.0105,0.0373,0.0037,-0.0257,-0.0041,-2.5985,1.3956,-3.1037
2024-10-11T12:27:30.714Z,0.0017,-0.9807,0.1659,-0.1422,-0.0105,0.0373,0.0057,-0.0266,-0.0056,-2.5985,1.3956,-3.1037
2024-10-11T12:27:30.726Z,-0.0006,-0.9821,0.1648,-0.0548,-0.0263,0.0452,0.0070,-0.0248,-0.0021,-2.5976,1.3954,-3.1057
2024-10-11T12:27:30.734Z,-0.0007,-0.9820,0.1698,-0.0548,-0.0263,0.0452,0.0085,-0.0231,0.0006,-2.5976,1.3954,-3.1057
2024-10-11T12:27:30.745Z,0.0032,-0.9896,0.1769,-0.0548,-0.0263,0.0452,0.0060,-0.0233,0.0034,-2.5976,1.3954,-3.1057
2024-10-11T12:27:30.755Z,0.0032,-0.9896,0.1769,-0.1179,0.0580,-0.0333,0.0083,-0.0191,0.0031,-2.5973,1.3952,-3.1069
2024-10-11T12:27:30.764Z,0.0060,-0.9905,0.1780,-0.1179,0.0580,-0.0333,0.0071,-0.0150,0.0052,-2.5973,1.3952,-3.1069
2024-10-11T12:27:30.775Z,0.0005,-0.9973,0.1919,-0.1179,0.0580,-0.0333,0.0068,-0.0124,0.0090,-2.5973,1.3952,-3.1069
2024-10-11T12:27:30.785Z,0.0005,-0.9973,0.1919,-0.0221,0.1134,-0.1778,0.0074,-0.0116,0.0078,-2.5981,1.3950,-3.1067
2024-10-11T12:27:30.795Z,-0.0069,-0.9970,0.1905,-0.0221,0.1134,-0.1778,0.0026,-0.0100,0.0099,-2.5981,1.3950,-3.1067
2024-10-11T12:27:30.805Z,-0.0079,-0.9940,0.1910,-0.0221,0.1134,-0.1778,0.0026,-0.0065,0.0109,-2.5981,1.3950,-3.1067
2024-10-11T12:27:30.814Z,-0.0079,-0.9940,0.1910,-0.0221,0.1134,-0.1778,0.0019,-0.0086,0.0117,-2.5981,1.3950,-3.1067
2024-10-11T12:27:30.824Z,-0.0083,-0.9868,0.1912,-0.0302,0.0643,-0.1769,0.0002,-0.0051,0.0113,-2.5999,1.3949,-3.1055
2024-10-11T12:27:30.835Z,-0.0106,-0.9824,0.1884,-0.0302,0.0643,-0.1769,-0.0005,-0.0031,0.0122,-2.5999,1.3949,-3.1055
2024-10-11T12:27:30.844Z,-0.0106,-0.9824,0.1884,-0.0302,0.0643,-0.1769,-0.0037,0.0008,0.0121,-2.5999,1.3949,-3.1055
2024-10-11T12:27:30.854Z,-0.0110,-0.9800,0.1803,0.0499,-0.0434,-0.0910,-0.0008,-0.0017,0.0118,-2.6019,1.3948,-3.1040
2024-10-11T12:27:30.864Z,-0.0097,-0.9785,0.1756,0.0499,-0.0434,-0.0910,-0.0008,-0.0017,0.0118,-2.6019,1.3948,-3.1040
2024-10-11T12:27:30.874Z,-0.0097,-0.9785,0.1756,0.0764,-0.0736,0.0227,-0.0033,0.0028,0.0121,-2.6041,1.3948,-3.1020
2024-10-11T12:27:30.884Z,-0.0152,-0.9777,0.1718,0.0764,-0.0736,0.0227,-0.0008,0.0062,0.0137,-2.6041,1.3948,-3.1020
2024-10-11T12:27:30.894Z,-0.0147,-0.9799,0.1675,0.0764,-0.0736,0.0227,-0.0012,0.0067,0.0133,-2.6041,1.3948,-3.1020
2024-10-11T12:27:30.905Z,-0.0147,-0.9799,0.1675,0.1384,-0.0632,0.1136,-0.0032,0.0082,0.0109,-2.6062,1.3948,-3.1000
2024-10-11T12:27:30.914Z,-0.0214,-0.9781,0.1634,0.1384,-0.0632,0.1136,-0.0032,0.0082,0.0109,-2.6062,1.3948,-3.1000
2024-10-11T12:27:30.925Z,-0.0314,-0.9817,0.1637,0.1384,-0.0632,0.1136,-0.0017,0.0163,0.0113,-2.6062,1.3948,-3.1000
2024-10-11T12:27:30.935Z,-0.0314,-0.9817,0.1637,0.1075,0.0016,0.0765,-0.0010,0.0210,0.0113,-2.6086,1.3947,-3.0975
2024-10-11T12:27:30.944Z,-0.0187,-0.9847,0.1673,0.1075,0.0016,0.0765,0.0006,0.0273,0.0142,-2.6086,1.3947,-3.0975
2024-10-11T12:27:30.955Z,-0.0374,-0.9871,0.1654,0.1075,0.0016,0.0765,-0.0001,0.0245,0.0117,-2.6086,1.3947,-3.0975
2024-10-11T12:27:30.964Z,-0.0374,-0.9871,0.1654,0.1075,0.0016,0.0765,-0.0005,0.0335,0.0106,-2.6086,1.3947,-3.0975
2024-10-11T12:27:30.974Z,-0.0302,-0.9873,0.1841,0.1419,-0.0157,0.0480,-0.0007,0.0377,0.0109,-2.6110,1.3946,-3.0945
2024-10-11T12:27:30.985Z,-0.0248,-0.9888,0.1876,0.1419,-0.0157,0.0480,-0.0029,0.0414,0.0105,-2.6110,1.3946,-3.0945
2024-10-11T12:27:30.994Z,-0.0248,-0.9888,0.1876,0.1963,0.0618,-0.1712,-0.0032,0.0444,0.0093,-2.6133,1.3947,-3.0913
2024-10-11T12:27:31.004Z,-0.0236,-0.9888,0.1920,0.1963,0.0618,-0.1712,-0.0055,0.0482,0.0091,-2.6133,1.3947,-3.0913
2024-10-11T12:27:31.014Z,-0.0236,-0.9888,0.1920,0.1963,0.0618,-0.1712,-0.0073,0.0451,0.0095,-2.6133,1.3947,-3.0913
2024-10-11T12:27:31.025Z,-0.0145,-0.9832,0.1908,0.0287,-0.0315,-0.1607,-0.0096,0.0413,0.0110,-2.6159,1.3950,-3.0876
2024-10-11T12:27:31.034Z,-0.0061,-0.9772,0.1900,0.0287,-0.0315,-0.1607,-0.0126,0.0359,0.0079,-2.6159,1.3950,-3.0876
2024-10-11T12:27:31.044Z,-0.0021,-0.9763,0.1841,0.0287,-0.0315,-0.1607,-0.0126,0.0359,0.0079,-2.6159,1.3950,-3.0876
2024-10-11T12:27:31.055Z,-0.0021,-0.9763,0.1841,-0.0969,-0.0730,-0.0669,-0.0141,0.0229,0.0094,-2.6188,1.3953,-3.0841
2024-10-11T12:27:31.065Z,-0.0002,-0.9772,0.1811,-0.0969,-0.0730,-0.0669,-0.0165,0.0205,0.0119,-2.6188,1.3953,-3.0841
2024-10-11T12:27:31.074Z,-0.0087,-0.9759,0.1738,-0.0969,-0.0730,-0.0669,-0.0143,0.0178,0.0096,-2.6188,1.3953,-3.0841
2024-10-11T12:27:31.085Z,-0.0072,-0.9723,0.1705,-0.0316,-0.1212,0.0345,-0.0144,0.0223,0.0072,-2.6212,1.3956,-3.0815
2024-10-11T12:27:31.094Z,-0.0159,-0.9725,0.1685,-0.0316,-0.1212,0.0345,-0.0087,0.0183,0.0075,-2.6212,1.3956,-3.0815
2024-10-11T12:27:31.104Z,-0.0086,-0.9684,0.1649,-0.0316,-0.1212,0.0345,-0.0091,0.0146,0.0051,-2.6212,1.3956,-3.0815
2024-10-11T12:27:31.114Z,-0.0086,-0.9684,0.1649,0.0766,-0.1671,0.0921,-0.0091,0.0146,0.0051,-2.6223,1.3957,-3.0801
2024-10-11T12:27:31.124Z,-0.0201,-0.9703,0.1631,0.0766,-0.1671,0.0921,-0.0038,0.0155,0.0022,-2.6223,1.3957,-3.0801
2024-10-11T12:27:31.135Z,-0.0182,-0.9686,0.1601,0.0766,-0.1671,0.0921,-0.0011,0.0186,0.0034,-2.6223,1.3957,-3.0801
2024-10-11T12:27:31.144Z,-0.0182,-0.9686,0.1601,0.1415,-0.1373,0.1307,-0.0014,0.0180,0.0015,-2.6225,1.3957,-3.0796
2024-10-11T12:27:31.155Z,-0.0189,-0.9747,0.1628,0.1415,-0.1373,0.1307,0.0009,0.0161,0.0023,-2.6225,1.3957,-3.0796
2024-10-11T12:27:31.164Z,-0.0189,-0.9747,0.1628,0.1415,-0.1373,0.1307,0.0014,0.0169,0.0001,-2.6225,1.3957,-3.0796
2024-10-11T12:27:31.174Z,-0.0185,-0.9744,0.1622,0.0458,-0.0557,0.0614,-0.0018,0.0163,-0.0017,-2.6228,1.3957,-3.0792
2024-10-11T12:27:31.185Z,-0.0161,-0.9761,0.1684,0.0458,-0.0557,0.0614,0.0019,0.0168,-0.0003,-2.6228,1.3957,-3.0792
2024-10-11T12:27:31.194Z,-0.0132,-0.9757,0.1680,0.0458,-0.0557,0.0614,0.0054,0.0197,-0.0004,-2.6228,1.3957,-3.0792
2024-10-11T12:27:31.205Z,-0.0181,-0.9777,0.1699,0.0698,-0.0685,0.0410,0.0091,0.0206,-0.0004,-2.6231,1.3955,-3.0786
2024-10-11T12:27:31.214Z,-0.0181,-0.9777,0.1699,0.0698,-0.0685,0.0410,0.0113,0.0313,-0.0018,-2.6231,1.3955,-3.0786
2024-10-11T12:27:31.224Z,-0.0302,-0.9812,0.1773,0.0698,-0.0685,0.0410,0.0121,0.0395,-0.0036,-2.6231,1.3955,-3.0786
2024-10-11T12:27:31.234Z,-0.0302,-0.9812,0.1773,0.1935,-0.0108,-0.0545,0.0110,0.0429,-0.0063,-2.6229,1.3952,-3.0781
2024-10-11T12:27:31.244Z,-0.0268,-0.9862,0.1758,0.1935,-0.0108,-0.0545,0.0160,0.0384,-0.0036,-2.6229,1.3952,-3.0781
2024-10-11T12:27:31.254Z,-0.0200,-0.9875,0.1762,0.1935,-0.0108,-0.0545,0.0116,0.0465,-0.0007,-2.6229,1.3952,-3.0781
2024-10-11T12:27:31.265Z,-0.0200,-0.9875,0.1762,0.2570,0.0621,-0.0130,0.0130,0.0497,-0.0026,-2.6225,1.3948,-3.0774
2024-10-11T12:27:31.274Z,-0.0226,-0.9898,0.1711,0.2570,0.0621,-0.0130,0.0097,0.0603,-0.0053,-2.6225,1.3948,-3.0774
2024-10-11T12:27:31.284Z,-0.0356,-0.9925,0.1703,0.2570,0.0621,-0.0130,0.0131,0.0604,-0.0038,-2.6225,1.3948,-3.0774
2024-10-11T12:27:31.295Z,-0.0336,-0.9964,0.1717,0.2168,0.1173,0.0336,0.0144,0.0641,-0.0023,-2.6223,1.3944,-3.0763
2024-10-11T12:27:31.304Z,-0.0282,-0.9991,0.1728,0.2168,0.1173,0.0336,0.0159,0.0710,-0.0059,-2.6223,1.3944,-3.0763
2024-10-11T12:27:31.315Z,-0.0397,-1.0014,0.1717,0.2168,0.1173,0.0336,0.0174,0.0764,-0.0037,-2.6223,1.3944,-3.0763
2024-10-11T12:27:31.325Z,-0.0361,-0.9942,0.1669,0.2387,0.0959,0.0859,0.0189,0.0681,-0.0076,-2.6221,1.3938,-3.0746
2024-10-11T12:27:31.334Z,-0.0233,-0.9911,0.1684,0.2387,0.0959,0.0859,0.0184,0.0821,-0.0069,-2.6221,1.3938,-3.0746
2024-10-11T12:27:31.344Z,-0.0316,-0.9920,0.1703,0.2387,0.0959,0.0859,0.0196,0.0802,-0.0083,-2.6221,1.3938,-3.0746
2024-10-11T12:27:31.354Z,-0.0316,-0.9920,0.1703,-0.0110,0.0284,0.0699,0.0202,0.0809,-0.0099,-2.6209,1.3933,-3.0736
2024-10-11T12:27:31.364Z,-0.0109,-0.9872,0.1690,-0.0110,0.0284,0.0699,0.0182,0.0794,-0.0084,-2.6209,1.3933,-3.0736
2024-10-11T12:27:31.374Z,-0.0086,-0.9826,0.1742,-0.0110,0.0284,0.0699,0.0167,0.0745,-0.0076,-2.6209,1.3933,-3.0736
2024-10-11T12:27:31.384Z,-0.0083,-0.9798,0.1787,-0.0370,-0.0436,-0.0199,0.0176,0.0711,-0.0100,-2.6193,1.3927,-3.0731
2024-10-11T12:27:31.394Z,-0.0007,-0.9808,0.1827,-0.0370,-0.0436,-0.0199,0.0178,0.0652,-0.0093,-2.6193,1.3927,-3.0731
2024-10-11T12:27:31.405Z,0.0036,-0.9773,0.1874,-0.0370,-0.0436,-0.0199,0.0160,0.0603,-0.0093,-2.6193,1.3927,-3.0731
2024-10-11T12:27:31.415Z,0.0036,-0.9773,0.1874,-0.1598,-0.0663,-0.1378,0.0110,0.0513,-0.0080,-2.6177,1.3923,-3.0731
2024-10-11T12:27:31.424Z,0.0187,-0.9761,0.1895,-0.1598,-0.0663,-0.1378,0.0099,0.0470,-0.0087,-2.6177,1.3923,-3.0731
2024-10-11T12:27:31.434Z,0.0123,-0.9833,0.1880,-0.1598,-0.0663,-0.1378,0.0105,0.0376,-0.0075,-2.6177,1.3923,-3.0731
2024-10-11T12:27:31.445Z,0.0209,-0.9852,0.1937,-0.3239,0.0111,-0.1591,0.0086,0.0264,-0.0086,-2.6165,1.3920,-3.0733
2024-10-11T12:27:31.454Z,0.0256,-0.9879,0.1910,-0.3239,0.0111,-0.1591,0.0096,0.0126,-0.0078,-2.6165,1.3920,-3.0733
2024-10-11T12:27:31.465Z,0.0355,-0.9902,0.1889,-0.3239,0.0111,-0.1591,0.0030,-0.0004,-0.0064,-2.6165,1.3920,-3.0733
2024-10-11T12:27:31.474Z,0.0341,-0.9964,0.1868,-0.4517,0.1214,-0.0903,0.0036,-0.0175,-0.0040,-2.6153,1.3918,-3.0746
2024-10-11T12:27:31.484Z,0.0398,-0.9987,0.1880,-0.4517,0.1214,-0.0903,0.0020,-0.0295,-0.0027,-2.6153,1.3918,-3.0746
2024-10-11T12:27:31.494Z,0.0388,-0.9994,0.1850,-0.4517,0.1214,-0.0903,0.0005,-0.0462,-0.0040,-2.6153,1.3918,-3.0746
2024-10-11T12:27:31.504Z,0.0388,-0.9994,0.1850,-0.5637,0.1387,-0.0618,-0.0052,-0.0619,-0.0003,-2.6147,1.3918,-3.0767
2024-10-11T12:27:31.515Z,0.0426,-0.9933,0.1852,-0.5637,0.1387,-0.0618,-0.0054,-0.0727,0.0012,-2.6147,1.3918,-3.0767
2024-10-11T12:27:31.524Z,0.0333,-0.9901,0.1872,-0.5637,0.1387,-0.0618,-0.0087,-0.0800,0.0022,-2.6147,1.3918,-3.0767
2024-10-11T12:27:31.535Z,0.0314,-0.9816,0.1864,-0.4162,-0.0240,-0.0868,-0.0075,-0.0843,0.0030,-2.6146,1.3919,-3.0794
2024-10-11T12:27:31.544Z,0.0282,-0.9767,0.1880,-0.4162,-0.0240,-0.0868,-0.0090,-0.0862,0.0058,-2.6146,1.3919,-3.0794
2024-10-11T12:27:31.554Z,0.0216,-0.9747,0.1821,-0.4162,-0.0240,-0.0868,-0.0067,-0.0870,0.0058,-2.6146,1.3919,-3.0794
2024-10-11T12:27:31.566Z,0.0216,-0.9747,0.1821,-0.2762,-0.1159,-0.0185,-0.0050,-0.0871,0.0073,-2.6157,1.3921,-3.0811
2024-10-11T12:27:31.574Z,0.0060,-0.9679,0.1782,-0.2762,-0.1159,-0.0185,-0.0019,-0.0884,0.0097,-2.6157,1.3921,-3.0811
2024-10-11T12:27:31.584Z,0.0048,-0.9717,0.1763,-0.2762,-0.1159,-0.0185,-0.0013,-0.0823,0.0098,-2.6157,1.3921,-3.0811
2024-10-11T12:27:31.595Z,-0.0035,-0.9775,0.1740,-0.0694,-0.0649,0.0336,-0.0001,-0.0787,0.0150,-2.6177,1.3921,-3.0820
2024-10-11T12:27:31.604Z,-0.0048,-0.9799,0.1734,-0.0694,-0.0649,0.0336,-0.0019,-0.0745,0.0166,-2.6177,1.3921,-3.0820
2024-10-11T12:27:31.615Z,0.0000,-0.9796,0.1757,-0.0694,-0.0649,0.0336,-0.0002,-0.0674,0.0171,-2.6177,1.3921,-3.0820
2024-10-11T12:27:31.625Z,-0.0029,-0.9813,0.1802,-0.0758,-0.0275,-0.0277,-0.0025,-0.0629,0.0199,-2.6205,1.3921,-3.0816
2024-10-11T12:27:31.633Z,-0.0077,-0.9798,0.1827,-0.0758,-0.0275,-0.0277,-0.0035,-0.0527,0.0214,-2.6205,1.3921,-3.0816
2024-10-11T12:27:31.644Z,-0.0166,-0.9801,0.1821,-0.0758,-0.0275,-0.0277,-0.0056,-0.0423,0.0212,-2.6205,1.3921,-3.0816
2024-10-11T12:27:31.654Z,-0.0171,-0.9802,0.1878,0.0596,-0.0380,-0.1031,-0.0086,-0.0350,0.0227,-2.6243,1.3922,-3.0796
2024-10-11T12:27:31.664Z,-0.0230,-0.9838,0.1900,0.0596,-0.0380,-0.1031,-0.0077,-0.0280,0.0221,-2.6243,1.3922,-3.0796
2024-10-11T12:27:31.674Z,-0.0261,-0.9855,0.1889,0.0596,-0.0380,-0.1031,-0.0116,-0.0248,0.0208,-2.6243,1.3922,-3.0796
2024-10-11T12:27:31.684Z,-0.0261,-0.9855,0.1889,0.1992,0.0484,-0.0763,-0.0123,-0.0156,0.0221,-2.6284,1.3925,-3.0767
2024-10-11T12:27:31.694Z,-0.0341,-0.9868,0.1880,0.1992,0.0484,-0.0763,-0.0143,-0.0074,0.0213,-2.6284,1.3925,-3.0767
2024-10-11T12:27:31.704Z,-0.0381,-0.9824,0.1892,0.1992,0.0484,-0.0763,-0.0126,-0.0081,0.0214,-2.6284,1.3925,-3.0767
2024-10-11T12:27:31.715Z,-0.0381,-0.9824,0.1892,0.1409,-0.0579,-0.0670,-0.0138,-0.0028,0.0193,-2.6322,1.3927,-3.0737
2024-10-11T12:27:31.724Z,-0.0378,-0.9824,0.1825,0.1409,-0.0579,-0.0670,-0.0124,0.0069,0.0157,-2.6322,1.3927,-3.0737
2024-10-11T12:27:31.734Z,-0.0489,-0.9828,0.1768,0.1409,-0.0579,-0.0670,-0.0085,0.0061,0.0163,-2.6322,1.3927,-3.0737
2024-10-11T12:27:31.744Z,-0.0437,-0.9828,0.1707,0.3063,-0.0137,0.0568,-0.0049,0.0140,0.0125,-2.6350,1.3929,-3.0712
2024-10-11T12:27:31.754Z,-0.0582,-0.9900,0.1723,0.3063,-0.0137,0.0568,-0.0027,0.0133,0.0081,-2.6350,1.3929,-3.0712
2024-10-11T12:27:31.765Z,-0.0447,-0.9879,0.1711,0.3063,-0.0137,0.0568,0.0006,0.0165,0.0064,-2.6350,1.3929,-3.0712
2024-10-11T12:27:31.774Z,-0.0529,-0.9896,0.1692,0.3928,0.0532,0.0720,0.0007,0.0175,0.0055,-2.6369,1.3929,-3.0691
2024-10-11T12:27:31.784Z,-0.0469,-0.9902,0.1676,0.3928,0.0532,0.0720,0.0055,0.0205,0.0013,-2.6369,1.3929,-3.0691
2024-10-11T12:27:31.794Z,-0.0489,-0.9914,0.1658,0.3928,0.0532,0.0720,0.0055,0.0243,0.0027,-2.6369,1.3929,-3.0691
2024-10-11T12:27:31.805Z,-0.0477,-0.9917,0.1672,0.3398,0.0733,0.0930,0.0060,0.0254,-0.0001,-2.6377,1.3927,-3.0679
2024-10-11T12:27:31.815Z,-0.0356,-0.9926,0.1726,0.3398,0.0733,0.0930,0.0052,0.0243,-0.0007,-2.6377,1.3927,-3.0679
2024-10-11T12:27:31.824Z,-0.0298,-0.9963,0.1763,0.3398,0.0733,0.0930,0.0059,0.0232,-0.0030,-2.6377,1.3927,-3.0679
2024-10-11T12:27:31.835Z,-0.0311,-0.9939,0.1757,0.1758,0.0958,0.0117,0.0058,0.0195,-0.0035,-2.6381,1.3925,-3.0671
2024-10-11T12:27:31.845Z,-0.0311,-0.9906,0.1776,0.1758,0.0958,0.0117,0.0067,0.0184,-0.0077,-2.6381,1.3925,-3.0671
2024-10-11T12:27:31.853Z,-0.0317,-0.9858,0.1803,0.1758,0.0958,0.0117,0.0086,0.0146,-0.0080,-2.6381,1.3925,-3.0671
2024-10-11T12:27:31.865Z,-0.0318,-0.9817,0.1831,0.1825,-0.0239,-0.0595,0.0067,0.0156,-0.0106,-2.6375,1.3923,-3.0674
2024-10-11T12:27:31.874Z,-0.0254,-0.9749,0.1823,0.1825,-0.0239,-0.0595,0.0045,0.0130,-0.0117,-2.6375,1.3923,-3.0674
2024-10-11T12:27:31.884Z,-0.0264,-0.9706,0.1798,0.1825,-0.0239,-0.0595,0.0060,0.0091,-0.0130,-2.6375,1.3923,-3.0674
2024-10-11T12:27:31.894Z,-0.0235,-0.9707,0.1785,0.1031,-0.1319,-0.0139,0.0049,0.0067,-0.0101,-2.6361,1.3922,-3.0687
2024-10-11T12:27:31.904Z,-0.0228,-0.9709,0.1780,0.1031,-0.1319,-0.0139,0.0025,-0.0006,-0.0150,-2.6361,1.3922,-3.0687
2024-10-11T12:27:31.914Z,-0.0172,-0.9719,0.1753,0.1031,-0.1319,-0.0139,0.0033,-0.0055,-0.0159,-2.6361,1.3922,-3.0687
2024-10-11T12:27:31.924Z,-0.0137,-0.9755,0.1740,0.0105,-0.0840,0.0313,0.0006,-0.0121,-0.0124,-2.6346,1.3922,-3.0706
2024-10-11T12:27:31.934Z,-0.0107,-0.9792,0.1695,0.0105,-0.0840,0.0313,0.0031,-0.0200,-0.0144,-2.6346,1.3922,-3.0706
2024-10-11T12:27:31.944Z,-0.0118,-0.9825,0.1644,0.0105,-0.0840,0.0313,0.0017,-0.0244,-0.0147,-2.6346,1.3922,-3.0706
2024-10-11T12:27:31.954Z,-0.0071,-0.9834,0.1614,-0.0491,-0.0065,0.1567,0.0055,-0.0353,-0.0123,-2.6329,1.3921,-3.0732
2024-10-11T12:27:31.964Z,-0.0030,-0.9852,0.1601,-0.0491,-0.0065,0.1567,0.0027,-0.0369,-0.0138,-2.6329,1.3921,-3.0732
2024-10-11T12:27:31.974Z,-0.0031,-0.9890,0.1574,-0.0491,-0.0065,0.1567,0.0029,-0.0388,-0.0125,-2.6329,1.3921,-3.0732
2024-10-11T12:27:31.984Z,0.0006,-0.9891,0.1579,-0.1195,0.0495,0.1927,0.0063,-0.0488,-0.0138,-2.6311,1.3919,-3.0764
2024-10-11T12:27:31.994Z,0.0023,-0.9866,0.1590,-0.1195,0.0495,0.1927,0.0089,-0.0520,-0.0123,-2.6311,1.3919,-3.0764
2024-10-11T12:27:32.004Z,-0.0013,-0.9835,0.1629,-0.1195,0.0495,0.1927,0.0064,-0.0567,-0.0109,-2.6311,1.3919,-3.0764
2024-10-11T12:27:32.016Z,-0.0034,-0.9813,0.1671,-0.0739,-0.0269,0.1044,0.0125,-0.0614,-0.0112,-2.6294,1.3917,-3.0800
2024-10-11T12:27:32.024Z,-0.0043,-0.9820,0.1682,-0.0739,-0.0269,0.1044,0.0136,-0.0652,-0.0096,-2.6294,1.3917,-3.0800
2024-10-11T12:27:32.034Z,-0.0019,-0.9810,0.1681,-0.0739,-0.0269,0.1044,0.0133,-0.0683,-0.0093,-2.6294,1.3917,-3.0800
2024-10-11T12:27:32.044Z,-0.0034,-0.9814,0.1674,-0.0672,-0.0246,0.1052,0.0147,-0.0670,-0.0096,-2.6277,1.3914,-3.0839
2024-10-11T12:27:32.054Z,-0.0083,-0.9840,0.1701,-0.0672,-0.0246,0.1052,0.0181,-0.0688,-0.0083,-2.6277,1.3914,-3.0839
2024-10-11T12:27:32.065Z,-0.0078,-0.9854,0.1717,-0.0672,-0.0246,0.1052,0.0167,-0.0647,-0.0102,-2.6277,1.3914,-3.0839
2024-10-11T12:27:32.074Z,-0.0018,-0.9879,0.1771,-0.0769,0.0392,0.0155,0.0164,-0.0640,-0.0099,-2.6260,1.3909,-3.0878
2024-10-11T12:27:32.084Z,0.0010,-0.9870,0.1796,-0.0769,0.0392,0.0155,0.0141,-0.0606,-0.0059,-2.6260,1.3909,-3.0878
2024-10-11T12:27:32.094Z,-0.0015,-0.9878,0.1819,-0.0769,0.0392,0.0155,0.0160,-0.0581,-0.0046,-2.6260,1.3909,-3.0878
2024-10-11T12:27:32.104Z,-0.0053,-0.9865,0.1826,-0.0377,0.0268,-0.0333,0.0126,-0.0537,-0.0041,-2.6251,1.3904,-3.0907
2024-10-11T12:27:32.115Z,-0.0066,-0.9850,0.1862,-0.0377,0.0268,-0.0333,0.0113,-0.0488,-0.0015,-2.6251,1.3904,-3.0907
2024-10-11T12:27:32.124Z,-0.0064,-0.9847,0.1885,-0.0377,0.0268,-0.0333,0.0110,-0.0475,-0.0018,-2.6251,1.3904,-3.0907
2024-10-11T12:27:32.135Z,-0.0076,-0.9805,0.1875,-0.0111,-0.0318,-0.0776,0.0092,-0.0428,0.0016,-2.6247,1.3901,-3.0927
2024-10-11T12:27:32.144Z,-0.0101,-0.9785,0.1848,-0.0111,-0.0318,-0.0776,0.0087,-0.0403,-0.0006,-2.6247,1.3901,-3.0927
2024-10-11T12:27:32.154Z,-0.0052,-0.9788,0.1857,-0.0111,-0.0318,-0.0776,0.0052,-0.0405,0.0025,-2.6247,1.3901,-3.0927
2024-10-11T12:27:32.165Z,-0.0029,-0.9794,0.1868,-0.0556,-0.0417,-0.0690,0.0059,-0.0387,0.0016,-2.6248,1.3898,-3.0941
2024-10-11T12:27:32.174Z,-0.0092,-0.9824,0.1821,-0.0556,-0.0417,-0.0690,0.0083,-0.0379,0.0021,-2.6248,1.3898,-3.0941
2024-10-11T12:27:32.184Z,-0.0068,-0.9817,0.1838,-0.0556,-0.0417,-0.0690,0.0031,-0.0375,0.0021,-2.6248,1.3898,-3.0941
2024-10-11T12:27:32.194Z,-0.0037,-0.9813,0.1808,-0.0459,-0.0227,-0.0082,0.0003,-0.0386,-0.0002,-2.6251,1.3897,-3.0952
2024-10-11T12:27:32.204Z,0.0002,-0.9839,0.1803,-0.0459,-0.0227,-0.0082,0.0009,-0.0407,0.0012,-2.6251,1.3897,-3.0952
2024-10-11T12:27:32.215Z,-0.0026,-0.9845,0.1791,-0.0459,-0.0227,-0.0082,-0.0005,-0.0398,0.0042,-2.6251,1.3897,-3.0952
2024-10-11T12:27:32.224Z,0.0004,-0.9854,0.1811,-0.0841,0.0171,-0.0109,-0.0035,-0.0448,-0.0005,-2.6254,1.3896,-3.0963
2024-10-11T12:27:32.235Z,0.0031,-0.9857,0.1856,-0.0841,0.0171,-0.0109,-0.0037,-0.0510,0.0012,-2.6254,1.3896,-3.0963
2024-10-11T12:27:32.244Z,0.0036,-0.9864,0.1853,-0.0841,0.0171,-0.0109,-0.0062,-0.0508,0.0035,-2.6254,1.3896,-3.0963
2024-10-11T12:27:32.254Z,0.0041,-0.9876,0.1867,-0.1174,0.0384,-0.0673,-0.0051,-0.0508,0.0030,-2.6258,1.3898,-3.0977
2024-10-11T12:27:32.265Z,0.0010,-0.9858,0.1863,-0.1174,0.0384,-0.0673,-0.0075,-0.0506,0.0043,-2.6258,1.3898,-3.0977
2024-10-11T12:27:32.274Z,0.0015,-0.9860,0.1900,-0.1174,0.0384,-0.0673,-0.0119,-0.0522,0.0046,-2.6258,1.3898,-3.0977
2024-10-11T12:27:32.285Z,-0.0006,-0.9856,0.1897,-0.0697,0.0183,-0.0995,-0.0133,-0.0515,0.0029,-2.6265,1.3901,-3.0987
2024-10-11T12:27:32.293Z,0.0016,-0.9875,0.1879,-0.0697,0.0183,-0.0995,-0.0145,-0.0545,0.0065,-2.6265,1.3901,-3.0987
2024-10-11T12:27:32.304Z,-0.0015,-0.9894,0.1853,-0.0697,0.0183,-0.0995,-0.0131,-0.0521,0.0054,-2.6265,1.3901,-3.0987
2024-10-11T12:27:32.315Z,-0.0014,-0.9910,0.1852,-0.0606,0.0709,-0.0588,-0.0166,-0.0553,0.0060,-2.6275,1.3905,-3.0996
2024-10-11T12:27:32.324Z,-0.0001,-0.9932,0.1838,-0.0606,0.0709,-0.0588,-0.0180,-0.0493,0.0056,-2.6275,1.3905,-3.0996
2024-10-11T12:27:32.334Z,-0.0025,-0.9968,0.1834,-0.0606,0.0709,-0.0588,-0.0164,-0.0483,0.0093,-2.6275,1.3905,-3.0996
2024-10-11T12:27:32.344Z,-0.0016,-0.9973,0.1813,-0.0571,0.1314,-0.0256,-0.0193,-0.0478,0.0085,-2.6289,1.3910,-3.0999
2024-10-11T12:27:32.354Z,-0.0032,-0.9968,0.1818,-0.0571,0.1314,-0.0256,-0.0211,-0.0430,0.0093,-2.6289,1.3910,-3.0999
2024-10-11T12:27:32.365Z,-0.0060,-0.9969,0.1808,-0.0571,0.1314,-0.0256,-0.0224,-0.0368,0.0108,-2.6289,1.3910,-3.0999
2024-10-11T12:27:32.374Z,-0.0090,-0.9961,0.1771,0.0153,0.1193,0.0099,-0.0209,-0.0317,0.0095,-2.6307,1.3915,-3.0996
2024-10-11T12:27:32.384Z,-0.0061,-0.9929,0.1799,0.0153,0.1193,0.0099,-0.0185,-0.0294,0.0116,-2.6307,1.3915,-3.0996
2024-10-11T12:27:32.393Z,-0.0063,-0.9919,0.1771,0.0153,0.1193,0.0099,-0.0205,-0.0250,0.0094,-2.6307,1.3915,-3.0996
2024-10-11T12:27:32.404Z,-0.0027,-0.9909,0.1747,-0.0490,0.0672,0.0284,-0.0178,-0.0204,0.0143,-2.6329,1.3921,-3.0985
2024-10-11T12:27:32.416Z,0.0009,-0.9912,0.1739,-0.0490,0.0672,0.0284,-0.0187,-0.0164,0.0156,-2.6329,1.3921,-3.0985
2024-10-11T12:27:32.424Z,-0.0003,-0.9901,0.1693,-0.0490,0.0672,0.0284,-0.0188,-0.0126,0.0188,-2.6329,1.3921,-3.0985
2024-10-11T12:27:32.435Z,-0.0004,-0.9899,0.1651,-0.0755,0.0567,0.1187,-0.0148,-0.0115,0.0227,-2.6359,1.3925,-3.0962
2024-10-11T12:27:32.444Z,0.0014,-0.9890,0.1635,-0.0755,0.0567,0.1187,-0.0151,-0.0080,0.0219,-2.6359,1.3925,-3.0962
2024-10-11T12:27:32.454Z,0.0049,-0.9883,0.1617,-0.0755,0.0567,0.1187,-0.0160,-0.0127,0.0271,-2.6359,1.3925,-3.0962
2024-10-11T12:27:32.465Z,0.0074,-0.9874,0.1623,-0.1580,0.0308,0.1417,-0.0161,-0.0164,0.0315,-2.6404,1.3929,-3.0924
2024-10-11T12:27:32.474Z,0.0048,-0.9853,0.1655,-0.1580,0.0308,0.1417,-0.0203,-0.0200,0.0365,-2.6404,1.3929,-3.0924
2024-10-11T12:27:32.484Z,-0.0030,-0.9860,0.1583,-0.1580,0.0308,0.1417,-0.0217,-0.0212,0.0368,-2.6404,1.3929,-3.0924
2024-10-11T12:27:32.493Z,-0.0054,-0.9887,0.1541,-0.0416,0.0433,0.2159,-0.0235,-0.0221,0.0392,-2.6469,1.3935,-3.0870
2024-10-11T12:27:32.505Z,-0.0100,-0.9923,0.1533,-0.0416,0.0433,0.2159,-0.0272,-0.0185,0.0386,-2.6469,1.3935,-3.0870
2024-10-11T12:27:32.516Z,-0.0180,-0.9976,0.1540,-0.0416,0.0433,0.2159,-0.0267,-0.0172,0.0405,-2.6469,1.3935,-3.0870
2024-10-11T12:27:32.524Z,-0.0279,-0.9973,0.1543,0.1699,0.1264,0.2062,-0.0282,-0.0031,0.0311,-2.6536,1.3942,-3.0811
2024-10-11T12:27:32.534Z,-0.0366,-0.9950,0.1566,0.1699,0.1264,0.2062,-0.0300,0.0073,0.0245,-2.6536,1.3942,-3.0811
2024-10-11T12:27:32.544Z,-0.0312,-0.9948,0.1563,0.1699,0.1264,0.2062,-0.0288,0.0141,0.0217,-2.6536,1.3942,-3.0811
2024-10-11T12:27:32.553Z,-0.0323,-0.9957,0.1620,0.2060,0.1084,0.1225,-0.0257,0.0215,0.0190,-2.6575,1.3951,-3.0771
2024-10-11T12:27:32.565Z,-0.0273,-0.9924,0.1680,0.2060,0.1084,0.1225,-0.0220,0.0295,0.0179,-2.6575,1.3951,-3.0771
2024-10-11T12:27:32.574Z,-0.0315,-0.9851,0.1793,0.2060,0.1084,0.1225,-0.0161,0.0349,0.0164,-2.6575,1.3951,-3.0771
2024-10-11T12:27:32.584Z,-0.0287,-0.9809,0.1836,0.1654,-0.0371,-0.0952,-0.0110,0.0370,0.0131,-2.6604,1.3956,-3.0736
2024-10-11T12:27:32.594Z,-0.0352,-0.9826,0.1773,0.1654,-0.0371,-0.0952,-0.0081,0.0326,0.0141,-2.6604,1.3956,-3.0736
2024-10-11T12:27:32.604Z,-0.0306,-0.9851,0.1752,0.1654,-0.0371,-0.0952,-0.0048,0.0300,0.0109,-2.6604,1.3956,-3.0736
2024-10-11T12:27:32.615Z,-0.0307,-0.9843,0.1733,0.1805,-0.0044,0.0036,-0.0029,0.0273,0.0099,-2.6628,1.3958,-3.0706
2024-10-11T12:27:32.624Z,-0.0335,-0.9843,0.1727,0.1805,-0.0044,0.0036,-0.0028,0.0226,0.0066,-2.6628,1.3958,-3.0706
2024-10-11T12:27:32.634Z,-0.0334,-0.9830,0.1677,0.1805,-0.0044,0.0036,-0.0051,0.0196,0.0052,-2.6628,1.3958,-3.0706
2024-10-11T12:27:32.644Z,-0.0359,-0.9776,0.1665,0.2280,-0.0700,0.0688,-0.0064,0.0162,0.0019,-2.6642,1.3959,-3.0689
2024-10-11T12:27:32.654Z,-0.0312,-0.9764,0.1661,0.2280,-0.0700,0.0688,-0.0048,0.0151,0.0015,-2.6642,1.3959,-3.0689
2024-10-11T12:27:32.665Z,-0.0334,-0.9765,0.1690,0.2280,-0.0700,0.0688,-0.0073,0.0115,-0.0030,-2.6642,1.3959,-3.0689
2024-10-11T12:27:32.673Z,-0.0295,-0.9798,0.1659,0.1646,-0.0489,0.0730,-0.0086,0.0121,-0.0026,-2.6647,1.3961,-3.0682
2024-10-11T12:27:32.684Z,-0.0302,-0.9795,0.1704,0.1646,-0.0489,0.0730,-0.0089,0.0086,-0.0043,-2.6647,1.3961,-3.0682
2024-10-11T12:27:32.694Z,-0.0267,-0.9818,0.1712,0.1646,-0.0489,0.0730,-0.0080,0.0055,-0.0045,-2.6647,1.3961,-3.0682
2024-10-11T12:27:32.704Z,-0.0322,-0.9823,0.1721,0.1910,-0.0249,0.0103,-0.0071,0.0052,-0.0077,-2.6647,1.3963,-3.0683
2024-10-11T12:27:32.715Z,-0.0305,-0.9821,0.1744,0.1910,-0.0249,0.0103,-0.0090,0.0045,-0.0058,-2.6647,1.3963,-3.0683
2024-10-11T12:27:32.725Z,-0.0292,-0.9805,0.1769,0.1910,-0.0249,0.0103,-0.0096,0.0027,-0.0081,-2.6647,1.3963,-3.0683
2024-10-11T12:27:32.734Z,-0.0293,-0.9802,0.1813,0.1641,-0.0456,-0.0832,-0.0086,0.0017,-0.0108,-2.6642,1.3966,-3.0689
2024-10-11T12:27:32.744Z,-0.0298,-0.9789,0.1788,0.1641,-0.0456,-0.0832,-0.0098,-0.0003,-0.0118,-2.6642,1.3966,-3.0689
2024-10-11T12:27:32.754Z,-0.0258,-0.9780,0.1772,0.1641,-0.0456,-0.0832,-0.0109,-0.0011,-0.0122,-2.6642,1.3966,-3.0689
2024-10-11T12:27:32.764Z,-0.0242,-0.9768,0.1740,0.1164,-0.0794,-0.0139,-0.0120,-0.0006,-0.0135,-2.6631,1.3969,-3.0702
2024-10-11T12:27:32.774Z,-0.0209,-0.9741,0.1748,0.1164,-0.0794,-0.0139,-0.0108,0.0011,-0.0154,-2.6631,1.3969,-3.0702
2024-10-11T12:27:32.784Z,-0.0219,-0.9732,0.1737,0.1164,-0.0794,-0.0139,-0.0122,0.0013,-0.0172,-2.6631,1.3969,-3.0702
2024-10-11T12:27:32.794Z,-0.0239,-0.9733,0.1736,0.1166,-0.1149,-0.0139,-0.0114,0.0005,-0.0157,-2.6617,1.3973,-3.0719
2024-10-11T12:27:32.804Z,-0.0209,-0.9711,0.1729,0.1166,-0.1149,-0.0139,-0.0155,0.0024,-0.0195,-2.6617,1.3973,-3.0719
2024-10-11T12:27:32.814Z,-0.0209,-0.9716,0.1740,0.1166,-0.1149,-0.0139,-0.0125,0.0031,-0.0170,-2.6617,1.3973,-3.0719
2024-10-11T12:27:32.824Z,-0.0199,-0.9743,0.1706,0.0810,-0.1056,0.0133,-0.0137,0.0041,-0.0199,-2.6599,1.3976,-3.0738
2024-10-11T12:27:32.834Z,-0.0177,-0.9772,0.1689,0.0810,-0.1056,0.0133,-0.0127,0.0075,-0.0166,-2.6599,1.3976,-3.0738
2024-10-11T12:27:32.844Z,-0.0111,-0.9822,0.1656,0.0810,-0.1056,0.0133,-0.0136,0.0089,-0.0175,-2.6599,1.3976,-3.0738
2024-10-11T12:27:32.854Z,-0.0094,-0.9845,0.1620,-0.0183,-0.0059,0.0943,-0.0089,0.0118,-0.0137,-2.6575,1.3980,-3.0761
2024-10-11T12:27:32.864Z,-0.0035,-0.9858,0.1588,-0.0183,-0.0059,0.0943,-0.0064,0.0101,-0.0124,-2.6575,1.3980,-3.0761
2024-10-11T12:27:32.874Z,0.0013,-0.9868,0.1556,-0.0183,-0.0059,0.0943,-0.0034,0.0153,-0.0121,-2.6575,1.3980,-3.0761
2024-10-11T12:27:32.883Z,0.0018,-0.9865,0.1513,-0.1261,0.0133,0.1975,-0.0024,0.0157,-0.0072,-2.6560,1.3981,-3.0775
2024-10-11T12:27:32.893Z,0.0031,-0.9883,0.1528,-0.1261,0.0133,0.1975,0.0001,0.0123,-0.0043,-2.6560,1.3981,-3.0775
2024-10-11T12:27:32.904Z,-0.0012,-0.9900,0.1532,-0.1261,0.0133,0.1975,0.0016,0.0162,-0.0055,-2.6560,1.3981,-3.0775
2024-10-11T12:27:32.914Z,-0.0031,-0.9888,0.1535,-0.0781,0.0358,0.1772,0.0040,0.0147,-0.0010,-2.6558,1.3981,-3.0775
2024-10-11T12:27:32.924Z,-0.0043,-0.9889,0.1602,-0.0781,0.0358,0.1772,0.0036,0.0156,0.0018,-2.6558,1.3981,-3.0775
2024-10-11T12:27:32.933Z,-0.0022,-0.9896,0.1679,-0.0781,0.0358,0.1772,0.0033,0.0190,0.0017,-2.6558,1.3981,-3.0775
2024-10-11T12:27:32.945Z,-0.0020,-0.9862,0.1715,-0.0893,0.0105,0.0012,0.0059,0.0211,0.0032,-2.6561,1.3980,-3.0768
2024-10-11T12:27:32.954Z,-0.0085,-0.9838,0.1769,-0.0893,0.0105,0.0012,0.0039,0.0203,0.0057,-2.6561,1.3980,-3.0768
2024-10-11T12:27:32.964Z,-0.0067,-0.9791,0.1825,-0.0893,0.0105,0.0012,0.0032,0.0168,0.0070,-2.6561,1.3980,-3.0768
2024-10-11T12:27:32.974Z,0.0007,-0.9726,0.1858,-0.1180,-0.1224,-0.1390,0.0012,0.0130,0.0115,-2.6569,1.3980,-3.0758
2024-10-11T12:27:32.984Z,-0.0080,-0.9739,0.1827,-0.1180,-0.1224,-0.1390,-0.0009,0.0152,0.0118,-2.6569,1.3980,-3.0758
2024-10-11T12:27:32.994Z,-0.0012,-0.9733,0.1817,-0.1180,-0.1224,-0.1390,-0.0021,0.0117,0.0137,-2.6569,1.3980,-3.0758
2024-10-11T12:27:33.004Z,-0.0158,-0.9767,0.1847,0.0402,-0.0824,-0.1298,-0.0022,0.0099,0.0132,-2.6591,1.3980,-3.0736
2024-10-11T12:27:33.014Z,-0.0116,-0.9773,0.1770,0.0402,-0.0824,-0.1298,-0.0045,0.0010,0.0151,-2.6591,1.3980,-3.0736
2024-10-11T12:27:33.024Z,-0.0111,-0.9769,0.1759,0.0402,-0.0824,-0.1298,-0.0038,-0.0003,0.0161,-2.6591,1.3980,-3.0736
2024-10-11T12:27:33.034Z,-0.0137,-0.9806,0.1748,0.0162,-0.0448,-0.0334,-0.0055,-0.0043,0.0152,-2.6617,1.3981,-3.0712
2024-10-11T12:27:33.044Z,-0.0068,-0.9796,0.1759,0.0162,-0.0448,-0.0334,-0.0041,-0.0072,0.0209,-2.6617,1.3981,-3.0712
2024-10-11T12:27:33.054Z,-0.0136,-0.9856,0.1768,0.0162,-0.0448,-0.0334,-0.0042,-0.0096,0.0193,-2.6617,1.3981,-3.0712
2024-10-11T12:27:33.064Z,-0.0110,-0.9850,0.1746,-0.0157,-0.0011,-0.0318,-0.0040,-0.0081,0.0191,-2.6650,1.3981,-3.0684
2024-10-11T12:27:33.074Z,-0.0129,-0.9855,0.1711,-0.0157,-0.0011,-0.0318,0.0010,-0.0082,0.0229,-2.6650,1.3981,-3.0684
2024-10-11T12:27:33.084Z,-0.0146,-0.9873,0.1675,-0.0157,-0.0011,-0.0318,0.0010,-0.0078,0.0198,-2.6650,1.3981,-3.0684
2024-10-11T12:27:33.094Z,-0.0152,-0.9873,0.1620,0.0214,0.0213,0.0928,0.0019,-0.0033,0.0201,-2.6683,1.3980,-3.0656
2024-10-11T12:27:33.104Z,-0.0163,-0.9879,0.1649,0.0214,0.0213,0.0928,0.0005,-0.0013,0.0178,-2.6683,1.3980,-3.0656
2024-10-11T12:27:33.114Z,-0.0020,-0.9885,0.1658,0.0214,0.0213,0.0928,0.0010,0.0050,0.0190,-2.6683,1.3980,-3.0656
2024-10-11T12:27:33.124Z,-0.0086,-0.9900,0.1678,-0.0491,0.0478,0.0362,-0.0010,0.0087,0.0182,-2.6714,1.3979,-3.0627
2024-10-11T12:27:33.135Z,0.0016,-0.9906,0.1646,-0.0491,0.0478,0.0362,0.0015,0.0068,0.0202,-2.6714,1.3979,-3.0627
2024-10-11T12:27:33.144Z,-0.0019,-0.9876,0.1695,-0.0491,0.0478,0.0362,-0.0015,0.0084,0.0210,-2.6714,1.3979,-3.0627
2024-10-11T12:27:33.154Z,-0.0077,-0.9870,0.1773,-0.0636,0.0192,-0.0559,0.0020,0.0041,0.0233,-2.6751,1.3978,-3.0591
2024-10-11T12:27:33.165Z,-0.0078,-0.9868,0.1796,-0.0636,0.0192,-0.0559,0.0006,0.0041,0.0212,-2.6751,1.3978,-3.0591
2024-10-11T12:27:33.174Z,-0.0145,-0.9845,0.1828,-0.0636,0.0192,-0.0559,0.0043,0.0007,0.0224,-2.6751,1.3978,-3.0591
2024-10-11T12:27:33.184Z,-0.0111,-0.9808,0.1861,-0.0364,-0.0417,-0.1420,0.0052,0.0027,0.0198,-2.6790,1.3977,-3.0554
2024-10-11T12:27:33.194Z,-0.0217,-0.9808,0.1852,-0.0364,-0.0417,-0.1420,0.0070,0.0015,0.0194,-2.6790,1.3977,-3.0554
2024-10-11T12:27:33.204Z,-0.0175,-0.9806,0.1821,-0.0364,-0.0417,-0.1420,0.0090,0.0048,0.0189,-2.6790,1.3977,-3.0554
2024-10-11T12:27:33.214Z,-0.0224,-0.9801,0.1775,0.0699,-0.0482,-0.0560,0.0057,0.0062,0.0126,-2.6818,1.3975,-3.0527
2024-10-11T12:27:33.224Z,-0.0195,-0.9794,0.1751,0.0699,-0.0482,-0.0560,0.0071,0.0088,0.0130,-2.6818,1.3975,-3.0527
2024-10-11T12:27:33.234Z,-0.0176,-0.9839,0.1738,0.0699,-0.0482,-0.0560,0.0074,0.0094,0.0135,-2.6818,1.3975,-3.0527
2024-10-11T12:27:33.243Z,-0.0166,-0.9865,0.1694,0.0094,0.0154,0.0258,0.0068,0.0080,0.0108,-2.6837,1.3972,-3.0508
2024-10-11T12:27:33.254Z,-0.0175,-0.9852,0.1664,0.0094,0.0154,0.0258,0.0048,0.0070,0.0070,-2.6837,1.3972,-3.0508
2024-10-11T12:27:33.264Z,-0.0181,-0.9880,0.1686,0.0094,0.0154,0.0258,0.0047,0.0060,0.0080,-2.6837,1.3972,-3.0508
2024-10-11T12:27:33.274Z,-0.0174,-0.9879,0.1708,0.0144,0.0292,0.0143,0.0048,0.0098,0.0075,-2.6849,1.3970,-3.0496
2024-10-11T12:27:33.284Z,-0.0189,-0.9888,0.1722,0.0144,0.0292,0.0143,0.0034,0.0083,0.0056,-2.6849,1.3970,-3.0496
2024-10-11T12:27:33.294Z,-0.0182,-0.9856,0.1743,0.0144,0.0292,0.0143,0.0002,0.0079,0.0034,-2.6849,1.3970,-3.0496
2024-10-11T12:27:33.305Z,-0.0135,-0.9839,0.1771,-0.0251,-0.0094,-0.0464,0.0004,0.0085,0.0054,-2.6857,1.3968,-3.0488
2024-10-11T12:27:33.314Z,-0.0090,-0.9826,0.1785,-0.0251,-0.0094,-0.0464,-0.0005,0.0078,0.0022,-2.6857,1.3968,-3.0488
2024-10-11T12:27:33.324Z,-0.0138,-0.9814,0.1754,-0.0251,-0.0094,-0.0464,0.0023,0.0075,0.0028,-2.6857,1.3968,-3.0488
2024-10-11T12:27:33.334Z,-0.0127,-0.9771,0.1759,-0.0339,-0.0761,-0.0342,-0.0005,0.0090,0.0031,-2.6863,1.3968,-3.0483
2024-10-11T12:27:33.344Z,-0.0195,-0.9771,0.1737,-0.0339,-0.0761,-0.0342,-0.0013,0.0174,0.0001,-2.6863,1.3968,-3.0483
2024-10-11T12:27:33.354Z,-0.0245,-0.9774,0.1691,-0.0339,-0.0761,-0.0342,0.0003,0.0136,-0.0029,-2.6863,1.3968,-3.0483
2024-10-11T12:27:33.364Z,-0.0201,-0.9790,0.1628,0.0388,-0.0581,0.0944,0.0015,0.0157,-0.0063,-2.6861,1.3968,-3.0483
2024-10-11T12:27:33.374Z,-0.0287,-0.9829,0.1575,0.0388,-0.0581,0.0944,0.0020,0.0148,-0.0086,-2.6861,1.3968,-3.0483
2024-10-11T12:27:33.385Z,-0.0159,-0.9798,0.1615,0.0388,-0.0581,0.0944,0.0053,0.0144,-0.0109,-2.6861,1.3968,-3.0483
2024-10-11T12:27:33.394Z,-0.0257,-0.9798,0.1665,0.0966,-0.0498,0.0598,0.0067,0.0110,-0.0101,-2.6845,1.3966,-3.0498
2024-10-11T12:27:33.404Z,-0.0177,-0.9788,0.1676,0.0966,-0.0498,0.0598,0.0089,0.0047,-0.0128,-2.6845,1.3966,-3.0498
2024-10-11T12:27:33.414Z,-0.0236,-0.9769,0.1685,0.0966,-0.0498,0.0598,0.0106,0.0038,-0.0147,-2.6845,1.3966,-3.0498
2024-10-11T12:27:33.424Z,-0.0249,-0.9753,0.1737,0.0921,-0.0933,-0.0081,0.0121,0.0031,-0.0157,-2.6820,1.3964,-3.0523
2024-10-11T12:27:33.434Z,-0.0266,-0.9738,0.1742,0.0921,-0.0933,-0.0081,0.0150,0.0028,-0.0194,-2.6820,1.3964,-3.0523
2024-10-11T12:27:33.444Z,-0.0235,-0.9758,0.1750,0.0921,-0.0933,-0.0081,0.0155,0.0007,-0.0199,-2.6820,1.3964,-3.0523
2024-10-11T12:27:33.454Z,-0.0260,-0.9762,0.1729,0.1080,-0.0841,0.0039,0.0157,-0.0022,-0.0223,-2.6790,1.3959,-3.0555
2024-10-11T12:27:33.464Z,-0.0223,-0.9821,0.1705,0.1080,-0.0841,0.0039,0.0194,-0.0031,-0.0236,-2.6790,1.3959,-3.0555
2024-10-11T12:27:33.474Z,-0.0264,-0.9835,0.1652,0.1080,-0.0841,0.0039,0.0154,-0.0016,-0.0222,-2.6790,1.3959,-3.0555
2024-10-11T12:27:33.484Z,-0.0271,-0.9877,0.1642,0.1256,0.0293,0.0950,0.0181,-0.0050,-0.0231,-2.6751,1.3955,-3.0596
2024-10-11T12:27:33.494Z,-0.0251,-0.9877,0.1707,0.1256,0.0293,0.0950,0.0182,-0.0001,-0.0269,-2.6751,1.3955,-3.0596
2024-10-11T12:27:33.504Z,-0.0275,-0.9912,0.1761,0.1256,0.0293,0.0950,0.0153,-0.0049,-0.0267,-2.6751,1.3955,-3.0596
2024-10-11T12:27:33.514Z,-0.0276,-0.9891,0.1790,0.1384,0.0446,-0.0456,0.0152,-0.0063,-0.0295,-2.6709,1.3950,-3.0643
2024-10-11T12:27:33.524Z,-0.0363,-0.9879,0.1815,0.1384,0.0446,-0.0456,0.0160,-0.0081,-0.0304,-2.6709,1.3950,-3.0643
2024-10-11T12:27:33.534Z,-0.0306,-0.9868,0.1857,0.1384,0.0446,-0.0456,0.0151,-0.0057,-0.0313,-2.6709,1.3950,-3.0643
2024-10-11T12:27:33.544Z,-0.0281,-0.9867,0.1852,0.1519,0.0211,-0.1018,0.0149,-0.0118,-0.0312,-2.6660,1.3946,-3.0695
2024-10-11T12:27:33.554Z,-0.0289,-0.9857,0.1841,0.1519,0.0211,-0.1018,0.0123,-0.0016,-0.0318,-2.6660,1.3946,-3.0695
2024-10-11T12:27:33.564Z,-0.0313,-0.9874,0.1808,0.1519,0.0211,-0.1018,0.0108,-0.0004,-0.0346,-2.6660,1.3946,-3.0695
2024-10-11T12:27:33.574Z,-0.0254,-0.9867,0.1837,0.1345,0.0218,-0.0845,0.0086,0.0050,-0.0343,-2.6609,1.3944,-3.0748
2024-10-11T12:27:33.585Z,-0.0247,-0.9856,0.1854,0.1345,0.0218,-0.0845,0.0124,0.0120,-0.0341,-2.6609,1.3944,-3.0748
2024-10-11T12:27:33.595Z,-0.0208,-0.9859,0.1882,0.1345,0.0218,-0.0845,0.0112,0.0124,-0.0335,-2.6609,1.3944,-3.0748
2024-10-11T12:27:33.605Z,-0.0174,-0.9848,0.1903,0.0648,0.0040,-0.1467,0.0079,0.0230,-0.0330,-2.6554,1.3942,-3.0800
2024-10-11T12:27:33.614Z,-0.0172,-0.9840,0.1921,0.0648,0.0040,-0.1467,0.0070,0.0207,-0.0328,-2.6554,1.3942,-3.0800
2024-10-11T12:27:33.624Z,-0.0041,-0.9883,0.1907,0.0648,0.0040,-0.1467,0.0037,0.0270,-0.0316,-2.6554,1.3942,-3.0800
2024-10-11T12:27:33.634Z,-0.0148,-0.9962,0.1851,0.0467,0.1159,-0.0939,0.0016,0.0196,-0.0283,-2.6503,1.3940,-3.0845
2024-10-11T12:27:33.644Z,0.0051,-0.9985,0.1819,0.0467,0.1159,-0.0939,0.0004,0.0208,-0.0271,-2.6503,1.3940,-3.0845
2024-10-11T12:27:33.654Z,-0.0099,-0.9987,0.1770,0.0467,0.1159,-0.0939,0.0004,0.0211,-0.0256,-2.6503,1.3940,-3.0845
2024-10-11T12:27:33.664Z,-0.0051,-1.0008,0.1728,-0.0425,0.1608,0.0273,-0.0030,0.0179,-0.0233,-2.6464,1.3940,-3.0880
2024-10-11T12:27:33.674Z,-0.0095,-1.0003,0.1710,-0.0425,0.1608,0.0273,-0.0020,0.0196,-0.0206,-2.6464,1.3940,-3.0880
2024-10-11T12:27:33.684Z,-0.0100,-0.9961,0.1736,-0.0425,0.1608,0.0273,-0.0009,0.0242,-0.0232,-2.6464,1.3940,-3.0880
2024-10-11T12:27:33.694Z,-0.0056,-0.9946,0.1765,-0.0329,0.0999,-0.0084,0.0023,0.0269,-0.0198,-2.6430,1.3940,-3.0909
2024-10-11T12:27:33.704Z,-0.0051,-0.9918,0.1756,-0.0329,0.0999,-0.0084,0.0043,0.0297,-0.0187,-2.6430,1.3940,-3.0909
2024-10-11T12:27:33.714Z,-0.0029,-0.9879,0.1781,-0.0329,0.0999,-0.0084,0.0055,0.0349,-0.0171,-2.6430,1.3940,-3.0909
2024-10-11T12:27:33.724Z,-0.0008,-0.9857,0.1825,-0.0753,0.0131,-0.0666,0.0029,0.0344,-0.0169,-2.6399,1.3939,-3.0933
2024-10-11T12:27:33.734Z,0.0017,-0.9830,0.1852,-0.0753,0.0131,-0.0666,0.0025,0.0345,-0.0147,-2.6399,1.3939,-3.0933
2024-10-11T12:27:33.744Z,0.0019,-0.9812,0.1826,-0.0753,0.0131,-0.0666,0.0022,0.0361,-0.0099,-2.6399,1.3939,-3.0933
2024-10-11T12:27:33.754Z,0.0014,-0.9797,0.1815,-0.0947,-0.0463,-0.0566,0.0031,0.0339,-0.0076,-2.6380,1.3939,-3.0944
2024-10-11T12:27:33.764Z,0.0078,-0.9744,0.1863,-0.0947,-0.0463,-0.0566,0.0037,0.0295,-0.0031,-2.6380,1.3939,-3.0944
2024-10-11T12:27:33.774Z,-0.0040,-0.9715,0.1815,-0.0947,-0.0463,-0.0566,0.0004,0.0418,0.0005,-2.6380,1.3939,-3.0944
2024-10-11T12:27:33.784Z,-0.0060,-0.9753,0.1773,-0.0239,-0.0892,-0.0146,0.0001,0.0401,-0.0004,-2.6379,1.3939,-3.0937
2024-10-11T12:27:33.794Z,0.0009,-0.9732,0.1785,-0.0239,-0.0892,-0.0146,-0.0013,0.0494,0.0030,-2.6379,1.3939,-3.0937
2024-10-11T12:27:33.804Z,-0.0073,-0.9767,0.1798,-0.0239,-0.0892,-0.0146,-0.0011,0.0545,0.0069,-2.6379,1.3939,-3.0937
2024-10-11T12:27:33.814Z,-0.0031,-0.9740,0.1747,-0.0567,-0.1014,0.0109,-0.0018,0.0603,0.0076,-2.6387,1.3938,-3.0914
2024-10-11T12:27:33.824Z,-0.0088,-0.9784,0.1784,-0.0567,-0.1014,0.0109,-0.0043,0.0590,0.0117,-2.6387,1.3938,-3.0914
2024-10-11T12:27:33.834Z,-0.0055,-0.9740,0.1767,-0.0567,-0.1014,0.0109,-0.0012,0.0607,0.0119,-2.6387,1.3938,-3.0914
2024-10-11T12:27:33.844Z,-0.0119,-0.9765,0.1768,0.0246,-0.0776,-0.0100,-0.0018,0.0652,0.0122,-2.6403,1.3938,-3.0882
2024-10-11T12:27:33.854Z,-0.0098,-0.9747,0.1786,0.0246,-0.0776,-0.0100,-0.0005,0.0622,0.0149,-2.6403,1.3938,-3.0882
2024-10-11T12:27:33.864Z,-0.0136,-0.9754,0.1785,0.0246,-0.0776,-0.0100,-0.0020,0.0659,0.0151,-2.6403,1.3938,-3.0882
2024-10-11T12:27:33.874Z,-0.0121,-0.9773,0.1798,0.0203,-0.0696,-0.0394,-0.0021,0.0616,0.0156,-2.6426,1.3938,-3.0843
2024-10-11T12:27:33.884Z,-0.0107,-0.9792,0.1795,0.0203,-0.0696,-0.0394,-0.0029,0.0600,0.0121,-2.6426,1.3938,-3.0843
2024-10-11T12:27:33.894Z,-0.0137,-0.9805,0.1758,0.0203,-0.0696,-0.0394,-0.0007,0.0550,0.0133,-2.6426,1.3938,-3.0843
2024-10-11T12:27:33.904Z,-0.0157,-0.9785,0.1736,0.0492,-0.0577,0.0203,-0.0003,0.0565,0.0112,-2.6448,1.3938,-3.0808
2024-10-11T12:27:33.914Z,-0.0175,-0.9752,0.1747,0.0492,-0.0577,0.0203,0.0015,0.0484,0.0085,-2.6448,1.3938,-3.0808
2024-10-11T12:27:33.924Z,-0.0227,-0.9724,0.1788,0.0492,-0.0577,0.0203,-0.0006,0.0639,0.0043,-2.6448,1.3938,-3.0808
2024-10-11T12:27:33.934Z,-0.0266,-0.9729,0.1766,0.1524,-0.1130,-0.0085,-0.0005,0.0500,-0.0030,-2.6456,1.3938,-3.0786
2024-10-11T12:27:33.944Z,-0.0107,-0.9790,0.1712,0.1524,-0.1130,-0.0085,-0.0007,0.0553,-0.0038,-2.6456,1.3938,-3.0786
2024-10-11T12:27:33.954Z,-0.0247,-0.9858,0.1664,0.1524,-0.1130,-0.0085,0.0012,0.0413,-0.0039,-2.6456,1.3938,-3.0786
2024-10-11T12:27:33.964Z,0.0154,-0.9870,0.1648,-0.2597,0.0261,0.1072,0.0032,0.0426,-0.0056,-2.6446,1.3938,-3.0785
2024-10-11T12:27:33.974Z,-0.0138,-0.9897,0.1659,-0.2597,0.0261,0.1072,0.0021,0.0331,-0.0079,-2.6446,1.3938,-3.0785
2024-10-11T12:27:33.984Z,0.0104,-0.9917,0.1720,-0.2597,0.0261,0.1072,0.0047,0.0202,-0.0043,-2.6446,1.3938,-3.0785
2024-10-11T12:27:33.994Z,0.0029,-0.9909,0.1746,-0.1369,0.0646,0.0129,0.0048,0.0165,-0.0038,-2.6440,1.3936,-3.0785
2024-10-11T12:27:34.004Z,0.0047,-0.9901,0.1756,-0.1369,0.0646,0.0129,0.0077,0.0181,-0.0042,-2.6440,1.3936,-3.0785
2024-10-11T12:27:34.014Z,0.0048,-0.9851,0.1811,-0.1369,0.0646,0.0129,0.0116,0.0192,-0.0052,-2.6440,1.3936,-3.0785
2024-10-11T12:27:34.024Z,0.0063,-0.9834,0.1778,-0.1711,-0.0089,-0.0161,0.0114,0.0165,-0.0057,-2.6436,1.3933,-3.0786
2024-10-11T12:27:34.036Z,0.0060,-0.9844,0.1781,-0.1711,-0.0089,-0.0161,0.0140,0.0199,-0.0027,-2.6436,1.3933,-3.0786
2024-10-11T12:27:34.045Z,0.0044,-0.9880,0.1787,-0.1711,-0.0089,-0.0161,0.0125,0.0152,0.0002,-2.6436,1.3933,-3.0786
2024-10-11T12:27:34.054Z,0.0110,-0.9880,0.1759,-0.2167,0.0371,0.0060,0.0127,0.0131,-0.0006,-2.6430,1.3930,-3.0789
2024-10-11T12:27:34.064Z,0.0054,-0.9881,0.1758,-0.2167,0.0371,0.0060,0.0126,0.0083,-0.0005,-2.6430,1.3930,-3.0789
2024-10-11T12:27:34.074Z,0.0059,-0.9832,0.1762,-0.2167,0.0371,0.0060,0.0108,0.0086,0.0004,-2.6430,1.3930,-3.0789
2024-10-11T12:27:34.084Z,0.0003,-0.9782,0.1817,-0.1114,-0.0589,-0.0476,0.0109,0.0032,0.0039,-2.6427,1.3926,-3.0793
2024-10-11T12:27:34.094Z,-0.0038,-0.9777,0.1845,-0.1114,-0.0589,-0.0476,0.0082,0.0039,0.0022,-2.6427,1.3926,-3.0793
2024-10-11T12:27:34.104Z,-0.0086,-0.9776,0.1896,-0.1114,-0.0589,-0.0476,0.0086,0.0038,0.0026,-2.6427,1.3926,-3.0793
2024-10-11T12:27:34.114Z,-0.0137,-0.9783,0.1919,0.0264,-0.0574,-0.1450,0.0083,0.0079,0.0019,-2.6426,1.3923,-3.0794
2024-10-11T12:27:34.124Z,-0.0188,-0.9792,0.1946,0.0264,-0.0574,-0.1450,0.0064,0.0075,-0.0007,-2.6426,1.3923,-3.0794
2024-10-11T12:27:34.134Z,-0.0151,-0.9792,0.1991,0.0264,-0.0574,-0.1450,0.0076,0.0065,0.0003,-2.6426,1.3923,-3.0794
2024-10-11T12:27:34.144Z,-0.0165,-0.9799,0.1984,0.0543,-0.0406,-0.2067,0.0040,0.0069,0.0014,-2.6421,1.3922,-3.0800
2024-10-11T12:27:34.154Z,-0.0111,-0.9832,0.1986,0.0543,-0.0406,-0.2067,0.0053,0.0057,-0.0002,-2.6421,1.3922,-3.0800
2024-10-11T12:27:34.164Z,-0.0096,-0.9855,0.1955,0.0543,-0.0406,-0.2067,0.0021,0.0097,-0.0027,-2.6421,1.3922,-3.0800
2024-10-11T12:27:34.174Z,-0.0124,-0.9899,0.1907,0.0154,0.0574,-0.1294,0.0034,0.0107,-0.0012,-2.6416,1.3920,-3.0805
2024-10-11T12:27:34.184Z,-0.0149,-0.9913,0.1833,0.0154,0.0574,-0.1294,0.0020,0.0093,0.0002,-2.6416,1.3920,-3.0805
2024-10-11T12:27:34.194Z,-0.0135,-0.9925,0.1797,0.0154,0.0574,-0.1294,-0.0006,0.0093,-0.0014,-2.6416,1.3920,-3.0805
2024-10-11T12:27:34.204Z,-0.0135,-0.9938,0.1778,0.0263,0.0961,-0.0021,-0.0001,0.0098,-0.0003,-2.6416,1.3919,-3.0805
2024-10-11T12:27:34.214Z,-0.0132,-0.9943,0.1754,0.0263,0.0961,-0.0021,-0.0012,0.0100,-0.0015,-2.6416,1.3919,-3.0805
2024-10-11T12:27:34.224Z,-0.0136,-0.9912,0.1787,0.0263,0.0961,-0.0021,-0.0003,0.0078,-0.0015,-2.6416,1.3919,-3.0805
2024-10-11T12:27:34.235Z,-0.0170,-0.9894,0.1730,0.0600,0.0525,0.0461,0.0000,0.0110,0.0005,-2.6415,1.3918,-3.0805
2024-10-11T12:27:34.244Z,-0.0177,-0.9886,0.1729,0.0600,0.0525,0.0461,0.0033,0.0134,-0.0025,-2.6415,1.3918,-3.0805
2024-10-11T12:27:34.255Z,-0.0151,-0.9863,0.1747,0.0600,0.0525,0.0461,0.0052,0.0130,-0.0012,-2.6415,1.3918,-3.0805
2024-10-11T12:27:34.265Z,-0.0164,-0.9883,0.1772,0.0539,0.0420,0.0067,0.0022,0.0140,-0.0029,-2.6413,1.3916,-3.0806
2024-10-11T12:27:34.274Z,-0.0090,-0.9897,0.1792,0.0539,0.0420,0.0067,0.0049,0.0142,0.0011,-2.6413,1.3916,-3.0806
2024-10-11T12:27:34.285Z,-0.0104,-0.9918,0.1816,0.0539,0.0420,0.0067,0.0048,0.0151,-0.0013,-2.6413,1.3916,-3.0806
2024-10-11T12:27:34.294Z,-0.0100,-0.9915,0.1838,-0.0092,0.0737,-0.0563,0.0045,0.0153,0.0000,-2.6413,1.3914,-3.0804
2024-10-11T12:27:34.304Z,-0.0077,-0.9923,0.1860,-0.0092,0.0737,-0.0563,0.0041,0.0153,-0.0004,-2.6413,1.3914,-3.0804
2024-10-11T12:27:34.314Z,-0.0116,-0.9928,0.1850,-0.0092,0.0737,-0.0563,0.0025,0.0115,0.0020,-2.6413,1.3914,-3.0804
2024-10-11T12:27:34.324Z,-0.0108,-0.9909,0.1847,-0.0016,0.0684,-0.0643,-0.0001,0.0086,0.0002,-2.6415,1.3914,-3.0800
2024-10-11T12:27:34.335Z,-0.0126,-0.9850,0.1876,-0.0016,0.0684,-0.0643,-0.0024,0.0103,-0.0002,-2.6415,1.3914,-3.0800
2024-10-11T12:27:34.344Z,-0.0096,-0.9854,0.1864,-0.0016,0.0684,-0.0643,-0.0037,0.0122,-0.0017,-2.6415,1.3914,-3.0800
2024-10-11T12:27:34.354Z,-0.0069,-0.9826,0.1852,-0.0410,-0.0132,-0.0694,0.0004,0.0132,-0.0005,-2.6418,1.3914,-3.0797
2024-10-11T12:27:34.364Z,-0.0083,-0.9813,0.1825,-0.0410,-0.0132,-0.0694,-0.0042,0.0139,0.0010,-2.6418,1.3914,-3.0797
2024-10-11T12:27:34.374Z,-0.0051,-0.9798,0.1810,-0.0410,-0.0132,-0.0694,-0.0071,0.0139,-0.0014,-2.6418,1.3914,-3.0797
2024-10-11T12:27:34.385Z,-0.0039,-0.9767,0.1786,-0.0705,-0.0711,-0.0053,-0.0076,0.0136,0.0022,-2.6419,1.3915,-3.0794
2024-10-11T12:27:34.394Z,-0.0045,-0.9744,0.1769,-0.0705,-0.0711,-0.0053,-0.0073,0.0102,0.0007,-2.6419,1.3915,-3.0794
2024-10-11T12:27:34.404Z,-0.0055,-0.9749,0.1716,-0.0705,-0.0711,-0.0053,-0.0080,0.0109,0.0036,-2.6419,1.3915,-3.0794
2024-10-11T12:27:34.414Z,-0.0074,-0.9736,0.1700,-0.0372,-0.1019,0.0772,-0.0066,0.0089,-0.0003,-2.6424,1.3916,-3.0788
2024-10-11T12:27:34.424Z,-0.0094,-0.9746,0.1730,-0.0372,-0.1019,0.0772,-0.0074,0.0050,0.0010,-2.6424,1.3916,-3.0788
2024-10-11T12:27:34.435Z,-0.0120,-0.9740,0.1709,-0.0372,-0.1019,0.0772,-0.0054,0.0053,0.0035,-2.6424,1.3916,-3.0788
2024-10-11T12:27:34.444Z,-0.0053,-0.9740,0.1747,-0.0576,-0.0980,0.0298,-0.0062,0.0046,0.0016,-2.6427,1.3918,-3.0787
2024-10-11T12:27:34.455Z,-0.0055,-0.9753,0.1810,-0.0576,-0.0980,0.0298,-0.0085,0.0009,0.0042,-2.6427,1.3918,-3.0787
2024-10-11T12:27:34.464Z,-0.0025,-0.9776,0.1831,-0.0576,-0.0980,0.0298,-0.0085,0.0009,0.0042,-2.6427,1.3918,-3.0787
2024-10-11T12:27:34.475Z,-0.0017,-0.9799,0.1795,-0.0942,-0.0412,-0.0196,-0.0120,0.0049,0.0070,-2.6435,1.3920,-3.0781
2024-10-11T12:27:34.486Z,-0.0038,-0.9822,0.1814,-0.0942,-0.0412,-0.0196,-0.0124,-0.0022,0.0060,-2.6435,1.3920,-3.0781
2024-10-11T12:27:34.494Z,0.0023,-0.9836,0.1810,-0.0942,-0.0412,-0.0196,-0.0117,-0.0003,0.0090,-2.6435,1.3920,-3.0781
2024-10-11T12:27:34.504Z,0.0009,-0.9853,0.1807,-0.1211,0.0120,-0.0350,-0.0098,0.0015,0.0097,-2.6450,1.3923,-3.0769
2024-10-11T12:27:34.516Z,0.0003,-0.9853,0.1762,-0.1211,0.0120,-0.0350,-0.0080,-0.0004,0.0107,-2.6450,1.3923,-3.0769
2024-10-11T12:27:34.524Z,-0.0038,-0.9890,0.1735,-0.1211,0.0120,-0.0350,-0.0080,-0.0004,0.0107,-2.6450,1.3923,-3.0769
2024-10-11T12:27:34.536Z,-0.0029,-0.9897,0.1746,-0.0862,0.0542,0.0221,-0.0072,-0.0006,0.0122,-2.6468,1.3926,-3.0753
2024-10-11T12:27:34.544Z,-0.0027,-0.9870,0.1701,-0.0862,0.0542,0.0221,-0.0066,-0.0010,0.0123,-2.6468,1.3926,-3.0753
2024-10-11T12:27:34.554Z,-0.0063,-0.9875,0.1714,-0.0862,0.0542,0.0221,-0.0050,0.0002,0.0112,-2.6468,1.3926,-3.0753
2024-10-11T12:27:34.565Z,-0.0019,-0.9853,0.1720,-0.0995,0.0107,0.0462,-0.0062,-0.0029,0.0134,-2.6488,1.3927,-3.0737
2024-10-11T12:27:34.574Z,-0.0031,-0.9875,0.1746,-0.0995,0.0107,0.0462,-0.0062,-0.0029,0.0134,-2.6488,1.3927,-3.0737
2024-10-11T12:27:34.587Z,0.0009,-0.9870,0.1725,-0.0920,0.0123,0.0685,-0.0057,-0.0008,0.0159,-2.6511,1.3928,-3.0718
2024-10-11T12:27:34.594Z,-0.0030,-0.9855,0.1696,-0.0920,0.0123,0.0685,-0.0028,-0.0020,0.0179,-2.6511,1.3928,-3.0718
2024-10-11T12:27:34.604Z,-0.0047,-0.9838,0.1707,-0.0920,0.0123,0.0685,-0.0024,0.0001,0.0169,-2.6511,1.3928,-3.0718
2024-10-11T12:27:34.615Z,-0.0025,-0.9830,0.1737,-0.0920,0.0123,0.0685,-0.0020,0.0045,0.0187,-2.6511,1.3928,-3.0718
2024-10-11T12:27:34.625Z,-0.0042,-0.9822,0.1720,-0.0837,-0.0200,0.0436,-0.0022,0.0080,0.0177,-2.6536,1.3929,-3.0695
2024-10-11T12:27:34.636Z,-0.0066,-0.9832,0.1720,-0.0837,-0.0200,0.0436,-0.0004,0.0080,0.0178,-2.6536,1.3929,-3.0695
2024-10-11T12:27:34.645Z,-0.0070,-0.9842,0.1729,-0.0837,-0.0200,0.0436,0.0002,0.0074,0.0166,-2.6536,1.3929,-3.0695
2024-10-11T12:27:34.655Z,-0.0052,-0.9867,0.1709,-0.0771,0.0245,0.0531,0.0007,0.0084,0.0171,-2.6553,1.3930,-3.0679
2024-10-11T12:27:34.665Z,-0.0065,-0.9852,0.1705,-0.0771,0.0245,0.0531,0.0003,0.0056,0.0185,-2.6553,1.3930,-3.0679
2024-10-11T12:27:34.675Z,-0.0079,-0.9865,0.1710,-0.0771,0.0245,0.0531,-0.0027,0.0059,0.0179,-2.6553,1.3930,-3.0679
2024-10-11T12:27:34.686Z,-0.0099,-0.9879,0.1740,-0.0296,0.0352,0.0201,0.0003,0.0012,0.0174,-2.6549,1.3933,-3.0684
2024-10-11T12:27:34.694Z,-0.0134,-0.9854,0.1759,-0.0296,0.0352,0.0201,0.0003,0.0012,0.0174,-2.6549,1.3933,-3.0684
2024-10-11T12:27:34.706Z,-0.0178,-0.9852,0.1747,-0.0296,0.0352,0.0201,-0.0008,-0.0029,0.0129,-2.6549,1.3933,-3.0684
2024-10-11T12:27:34.715Z,-0.0228,-0.9843,0.1699,0.0939,-0.0003,0.0600,-0.0001,-0.0021,0.0101,-2.6569,1.3933,-3.0666
2024-10-11T12:27:34.725Z,-0.0201,-0.9812,0.1697,0.0939,-0.0003,0.0600,-0.0022,-0.0044,0.0067,-2.6569,1.3933,-3.0666
2024-10-11T12:27:34.738Z,-0.0229,-0.9811,0.1691,0.1028,-0.0244,0.1030,0.0014,-0.0105,0.0077,-2.6582,1.3934,-3.0658
2024-10-11T12:27:34.745Z,-0.0238,-0.9818,0.1655,0.1028,-0.0244,0.1030,-0.0003,-0.0118,0.0035,-2.6582,1.3934,-3.0658
2024-10-11T12:27:34.755Z,-0.0251,-0.9794,0.1629,0.1028,-0.0244,0.1030,0.0004,-0.0152,0.0005,-2.6582,1.3934,-3.0658
2024-10-11T12:27:34.765Z,-0.0258,-0.9799,0.1634,0.1028,-0.0244,0.1030,0.0052,-0.0168,0.0015,-2.6582,1.3934,-3.0658
2024-10-11T12:27:34.775Z,-0.0235,-0.9811,0.1633,0.1000,-0.0315,0.1257,0.0048,-0.0179,-0.0006,-2.6586,1.3933,-3.0661
2024-10-11T12:27:34.785Z,-0.0257,-0.9841,0.1650,0.1000,-0.0315,0.1257,0.0059,-0.0186,-0.0028,-2.6586,1.3933,-3.0661
2024-10-11T12:27:34.795Z,-0.0267,-0.9850,0.1658,0.1000,-0.0315,0.1257,0.0059,-0.0202,-0.0052,-2.6586,1.3933,-3.0661
2024-10-11T12:27:34.803Z,-0.0272,-0.9859,0.1682,0.1377,0.0162,0.0789,0.0059,-0.0202,-0.0052,-2.6584,1.3931,-3.0671
2024-10-11T12:27:34.814Z,-0.0248,-0.9859,0.1688,0.1377,0.0162,0.0789,0.0084,-0.0228,-0.0086,-2.6584,1.3931,-3.0671
2024-10-11T12:27:34.824Z,-0.0243,-0.9888,0.1725,0.1377,0.0162,0.0789,0.0075,-0.0225,-0.0117,-2.6584,1.3931,-3.0671
2024-10-11T12:27:34.834Z,-0.0257,-0.9878,0.1751,0.1258,0.0350,0.0135,0.0101,-0.0233,-0.0100,-2.6575,1.3929,-3.0689
2024-10-11T12:27:34.844Z,-0.0238,-0.9867,0.1765,0.1258,0.0350,0.0135,0.0064,-0.0223,-0.0121,-2.6575,1.3929,-3.0689
2024-10-11T12:27:34.855Z,-0.0237,-0.9868,0.1784,0.1258,0.0350,0.0135,0.0038,-0.0227,-0.0124,-2.6575,1.3929,-3.0689
2024-10-11T12:27:34.865Z,-0.0223,-0.9868,0.1784,0.0963,0.0255,-0.0175,0.0053,-0.0219,-0.0108,-2.6561,1.3928,-3.0711
2024-10-11T12:27:34.875Z,-0.0199,-0.9829,0.1802,0.0963,0.0255,-0.0175,0.0024,-0.0257,-0.0122,-2.6561,1.3928,-3.0711
2024-10-11T12:27:34.885Z,-0.0188,-0.9842,0.1787,0.0963,0.0255,-0.0175,0.0023,-0.0210,-0.0125,-2.6561,1.3928,-3.0711
2024-10-11T12:27:34.895Z,-0.0143,-0.9870,0.1784,0.0449,0.0142,-0.0156,0.0048,-0.0218,-0.0115,-2.6546,1.3928,-3.0736
2024-10-11T12:27:34.904Z,-0.0143,-0.9870,0.1784,0.0449,0.0142,-0.0156,0.0048,-0.0218,-0.0115,-2.6546,1.3928,-3.0736
2024-10-11T12:27:34.915Z,-0.0129,-0.9873,0.1832,0.0449,0.0142,-0.0156,-0.0013,-0.0181,-0.0089,-2.6546,1.3928,-3.0736
2024-10-11T12:27:34.925Z,-0.0101,-0.9846,0.1799,-0.0208,0.0151,-0.0667,-0.0013,-0.0154,-0.0070,-2.6532,1.3927,-3.0758
2024-10-11T12:27:34.935Z,-0.0101,-0.9846,0.1799,-0.0208,0.0151,-0.0667,-0.0019,-0.0147,-0.0070,-2.6532,1.3927,-3.0758
2024-10-11T12:27:34.944Z,-0.0114,-0.9851,0.1813,-0.0208,0.0151,-0.0667,-0.0016,-0.0152,-0.0033,-2.6532,1.3927,-3.0758
2024-10-11T12:27:34.954Z,-0.0059,-0.9838,0.1783,-0.0537,-0.0041,-0.0148,-0.0058,-0.0120,-0.0049,-2.6525,1.3927,-3.0773
2024-10-11T12:27:34.964Z,-0.0062,-0.9849,0.1806,-0.0537,-0.0041,-0.0148,-0.0046,-0.0094,-0.0033,-2.6525,1.3927,-3.0773
2024-10-11T12:27:34.974Z,-0.0058,-0.9852,0.1807,-0.0537,-0.0041,-0.0148,-0.0050,-0.0107,-0.0004,-2.6525,1.3927,-3.0773
2024-10-11T12:27:34.985Z,-0.0081,-0.9835,0.1833,-0.0621,0.0042,-0.0779,-0.0060,-0.0077,0.0016,-2.6523,1.3928,-3.0780
2024-10-11T12:27:34.994Z,-0.0081,-0.9835,0.1833,-0.0621,0.0042,-0.0779,-0.0084,-0.0055,-0.0000,-2.6523,1.3928,-3.0780
2024-10-11T12:27:35.005Z,-0.0119,-0.9853,0.1850,-0.0621,0.0042,-0.0779,-0.0120,-0.0092,0.0003,-2.6523,1.3928,-3.0780
2024-10-11T12:27:35.014Z,-0.0089,-0.9852,0.1835,-0.0226,0.0089,-0.0687,-0.0107,-0.0062,0.0057,-2.6525,1.3930,-3.0782
2024-10-11T12:27:35.024Z,-0.0064,-0.9847,0.1867,-0.0226,0.0089,-0.0687,-0.0144,-0.0071,0.0035,-2.6525,1.3930,-3.0782
2024-10-11T12:27:35.035Z,-0.0071,-0.9848,0.1881,-0.0428,0.0011,-0.0806,-0.0145,-0.0075,0.0046,-2.6532,1.3933,-3.0780
2024-10-11T12:27:35.045Z,-0.0102,-0.9859,0.1815,-0.0428,0.0011,-0.0806,-0.0120,-0.0102,0.0053,-2.6532,1.3933,-3.0780
2024-10-11T12:27:35.055Z,-0.0102,-0.9859,0.1815,-0.0428,0.0011,-0.0806,-0.0150,-0.0125,0.0098,-2.6532,1.3933,-3.0780
2024-10-11T12:27:35.065Z,-0.0070,-0.9847,0.1788,-0.0325,0.0048,-0.0216,-0.0132,-0.0146,0.0071,-2.6536,1.3935,-3.0783
2024-10-11T12:27:35.075Z,-0.0144,-0.9847,0.1763,-0.0325,0.0048,-0.0216,-0.0135,-0.0175,0.0075,-2.6536,1.3935,-3.0783
2024-10-11T12:27:35.085Z,-0.0107,-0.9854,0.1783,-0.0325,0.0048,-0.0216,-0.0128,-0.0196,0.0068,-2.6536,1.3935,-3.0783
2024-10-11T12:27:35.095Z,-0.0107,-0.9854,0.1783,-0.0166,0.0226,-0.0154,-0.0129,-0.0224,0.0051,-2.6548,1.3937,-3.0780
2024-10-11T12:27:35.104Z,-0.0095,-0.9867,0.1774,-0.0166,0.0226,-0.0154,-0.0129,-0.0224,0.0051,-2.6548,1.3937,-3.0780
2024-10-11T12:27:35.114Z,-0.0100,-0.9883,0.1772,-0.0166,0.0226,-0.0154,-0.0106,-0.0234,0.0054,-2.6548,1.3937,-3.0780
2024-10-11T12:27:35.124Z,-0.0111,-0.9889,0.1740,-0.0166,0.0226,-0.0154,-0.0132,-0.0277,0.0105,-2.6548,1.3937,-3.0780
2024-10-11T12:27:35.134Z,-0.0073,-0.9902,0.1750,-0.0195,0.0508,0.0231,-0.0116,-0.0301,0.0081,-2.6561,1.3939,-3.0776
2024-10-11T12:27:35.146Z,-0.0105,-0.9893,0.1760,-0.0195,0.0508,0.0231,-0.0089,-0.0337,0.0107,-2.6561,1.3939,-3.0776
2024-10-11T12:27:35.154Z,-0.0105,-0.9893,0.1760,-0.0195,0.0508,0.0231,-0.0107,-0.0342,0.0070,-2.6561,1.3939,-3.0776
2024-10-11T12:27:35.165Z,-0.0168,-0.9915,0.1742,0.0286,0.0635,-0.0002,-0.0082,-0.0326,0.0086,-2.6576,1.3941,-3.0774
2024-10-11T12:27:35.175Z,-0.0168,-0.9915,0.1742,0.0286,0.0635,-0.0002,-0.0090,-0.0362,0.0067,-2.6576,1.3941,-3.0774
2024-10-11T12:27:35.186Z,-0.0114,-0.9905,0.1764,0.0352,0.0381,-0.0302,-0.0109,-0.0335,0.0037,-2.6588,1.3944,-3.0776
2024-10-11T12:27:35.195Z,-0.0154,-0.9862,0.1776,0.0352,0.0381,-0.0302,-0.0120,-0.0375,0.0053,-2.6588,1.3944,-3.0776
2024-10-11T12:27:35.204Z,-0.0154,-0.9862,0.1776,0.0352,0.0381,-0.0302,-0.0092,-0.0366,0.0051,-2.6588,1.3944,-3.0776
2024-10-11T12:27:35.215Z,-0.0145,-0.9845,0.1806,0.0219,-0.0236,-0.0763,-0.0124,-0.0378,0.0062,-2.6594,1.3947,-3.0783
2024-10-11T12:27:35.225Z,-0.0129,-0.9843,0.1821,0.0219,-0.0236,-0.0763,-0.0091,-0.0361,0.0062,-2.6594,1.3947,-3.0783
2024-10-11T12:27:35.234Z,-0.0129,-0.9843,0.1821,0.0219,-0.0236,-0.0763,-0.0095,-0.0327,0.0045,-2.6594,1.3947,-3.0783
2024-10-11T12:27:35.245Z,-0.0159,-0.9827,0.1794,0.0695,-0.0427,-0.0299,-0.0083,-0.0330,0.0043,-2.6607,1.3949,-3.0783
2024-10-11T12:27:35.254Z,-0.0182,-0.9802,0.1777,0.0695,-0.0427,-0.0299,-0.0073,-0.0286,0.0048,-2.6607,1.3949,-3.0783
2024-10-11T12:27:35.265Z,-0.0171,-0.9809,0.1730,0.0695,-0.0427,-0.0299,-0.0096,-0.0271,0.0036,-2.6607,1.3949,-3.0783
2024-10-11T12:27:35.276Z,-0.0171,-0.9809,0.1730,0.0891,-0.0357,0.0256,-0.0103,-0.0228,0.0013,-2.6616,1.3951,-3.0785
2024-10-11T12:27:35.284Z,-0.0172,-0.9803,0.1698,0.0891,-0.0357,0.0256,-0.0068,-0.0229,0.0018,-2.6616,1.3951,-3.0785
2024-10-11T12:27:35.293Z,-0.0172,-0.9803,0.1698,0.0891,-0.0357,0.0256,-0.0073,-0.0175,0.0001,-2.6616,1.3951,-3.0785
2024-10-11T12:27:35.305Z,-0.0182,-0.9801,0.1693,0.0891,-0.0357,0.0256,-0.0053,-0.0134,0.0030,-2.6616,1.3951,-3.0785
2024-10-11T12:27:35.314Z,-0.0160,-0.9821,0.1709,0.0698,-0.0328,0.0403,-0.0037,-0.0099,0.0026,-2.6623,1.3952,-3.0786
2024-10-11T12:27:35.325Z,-0.0217,-0.9825,0.1683,0.0698,-0.0328,0.0403,-0.0019,-0.0073,0.0029,-2.6623,1.3952,-3.0786
2024-10-11T12:27:35.334Z,-0.0217,-0.9825,0.1683,0.0698,-0.0328,0.0403,-0.0026,-0.0008,0.0017,-2.6623,1.3952,-3.0786
2024-10-11T12:27:35.344Z,-0.0165,-0.9830,0.1661,0.0539,-0.0344,0.0526,-0.0005,0.0009,0.0051,-2.6635,1.3951,-3.0780
2024-10-11T12:27:35.354Z,-0.0165,-0.9830,0.1661,0.0539,-0.0344,0.0526,0.0009,0.0048,0.0064,-2.6635,1.3951,-3.0780
2024-10-11T12:27:35.365Z,-0.0213,-0.9809,0.1616,0.1116,-0.0721,0.1064,0.0030,0.0054,0.0047,-2.6648,1.3951,-3.0769
2024-10-11T12:27:35.375Z,-0.0250,-0.9761,0.1650,0.1116,-0.0721,0.1064,0.0034,0.0111,0.0053,-2.6648,1.3951,-3.0769
2024-10-11T12:27:35.384Z,-0.0244,-0.9755,0.1678,0.1116,-0.0721,0.1064,0.0048,0.0148,0.0031,-2.6648,1.3951,-3.0769
2024-10-11T12:27:35.395Z,-0.0244,-0.9755,0.1678,0.1143,-0.0691,0.0523,0.0034,0.0165,0.0053,-2.6657,1.3949,-3.0757
2024-10-11T12:27:35.405Z,-0.0232,-0.9775,0.1692,0.1143,-0.0691,0.0523,0.0019,0.0171,0.0023,-2.6657,1.3949,-3.0757
2024-10-11T12:27:35.414Z,-0.0304,-0.9776,0.1728,0.1143,-0.0691,0.0523,0.0022,0.0187,0.0026,-2.6657,1.3949,-3.0757
2024-10-11T12:27:35.425Z,-0.0304,-0.9776,0.1728,0.1551,-0.0652,-0.0224,0.0009,0.0197,0.0015,-2.6668,1.3949,-3.0743
2024-10-11T12:27:35.434Z,-0.0254,-0.9772,0.1767,0.1551,-0.0652,-0.0224,0.0029,0.0219,0.0013,-2.6668,1.3949,-3.0743
2024-10-11T12:27:35.444Z,-0.0281,-0.9773,0.1759,0.1551,-0.0652,-0.0224,0.0012,0.0254,-0.0008,-2.6668,1.3949,-3.0743
2024-10-11T12:27:35.455Z,-0.0281,-0.9773,0.1759,0.1444,-0.0468,-0.0132,0.0012,0.0254,-0.0008,-2.6675,1.3949,-3.0733
2024-10-11T12:27:35.464Z,-0.0279,-0.9825,0.1730,0.1444,-0.0468,-0.0132,-0.0010,0.0257,-0.0035,-2.6675,1.3949,-3.0733
2024-10-11T12:27:35.474Z,-0.0202,-0.9851,0.1706,0.1444,-0.0468,-0.0132,-0.0013,0.0276,-0.0001,-2.6675,1.3949,-3.0733
2024-10-11T12:27:35.484Z,-0.0202,-0.9851,0.1706,0.0238,0.0009,0.0346,0.0008,0.0301,-0.0006,-2.6677,1.3949,-3.0725
2024-10-11T12:27:35.494Z,-0.0122,-0.9874,0.1706,0.0238,0.0009,0.0346,0.0004,0.0288,-0.0014,-2.6677,1.3949,-3.0725
2024-10-11T12:27:35.505Z,-0.0096,-0.9869,0.1665,0.0238,0.0009,0.0346,-0.0027,0.0298,0.0017,-2.6677,1.3949,-3.0725
2024-10-11T12:27:35.515Z,-0.0031,-0.9872,0.1693,-0.0909,0.0261,0.0506,-0.0014,0.0290,0.0028,-2.6684,1.3950,-3.0711
2024-10-11T12:27:35.524Z,-0.0063,-0.9886,0.1691,-0.0909,0.0261,0.0506,0.0004,0.0299,0.0021,-2.6684,1.3950,-3.0711
2024-10-11T12:27:35.534Z,-0.0063,-0.9886,0.1691,-0.0909,0.0261,0.0506,-0.0003,0.0285,0.0020,-2.6684,1.3950,-3.0711
2024-10-11T12:27:35.545Z,-0.0075,-0.9906,0.1700,-0.0451,0.0523,0.0677,0.0025,0.0284,0.0038,-2.6693,1.3950,-3.0695
2024-10-11T12:27:35.555Z,-0.0122,-0.9901,0.1700,-0.0451,0.0523,0.0677,0.0013,0.0301,0.0018,-2.6693,1.3950,-3.0695
2024-10-11T12:27:35.565Z,-0.0112,-0.9893,0.1681,-0.0451,0.0523,0.0677,-0.0015,0.0302,0.0019,-2.6693,1.3950,-3.0695
2024-10-11T12:27:35.575Z,-0.0112,-0.9893,0.1681,0.0587,0.0530,0.0595,0.0020,0.0257,0.0030,-2.6700,1.3950,-3.0683
2024-10-11T12:27:35.585Z,-0.0204,-0.9917,0.1689,0.0587,0.0530,0.0595,0.0030,0.0253,-0.0021,-2.6700,1.3950,-3.0683
2024-10-11T12:27:35.595Z,-0.0204,-0.9908,0.1736,0.0587,0.0530,0.0595,0.0017,0.0211,-0.0018,-2.6700,1.3950,-3.0683
2024-10-11T12:27:35.606Z,-0.0204,-0.9908,0.1736,0.1242,0.0719,-0.0308,0.0001,0.0193,-0.0011,-2.6698,1.3950,-3.0681
2024-10-11T12:27:35.614Z,-0.0260,-0.9868,0.1787,0.1242,0.0719,-0.0308,-0.0022,0.0171,-0.0074,-2.6698,1.3950,-3.0681
2024-10-11T12:27:35.624Z,-0.0255,-0.9868,0.1803,0.1242,0.0719,-0.0308,-0.0019,0.0150,-0.0084,-2.6698,1.3950,-3.0681
2024-10-11T12:27:35.635Z,-0.0255,-0.9868,0.1803,0.1442,0.0033,-0.0445,-0.0008,0.0153,-0.0086,-2.6687,1.3950,-3.0690
2024-10-11T12:27:35.644Z,-0.0256,-0.9857,0.1812,0.1442,0.0033,-0.0445,-0.0046,0.0160,-0.0114,-2.6687,1.3950,-3.0690
2024-10-11T12:27:35.654Z,-0.0256,-0.9859,0.1776,0.1442,0.0033,-0.0445,-0.0028,0.0161,-0.0120,-2.6687,1.3950,-3.0690
2024-10-11T12:27:35.665Z,-0.0274,-0.9842,0.1754,0.1471,-0.0042,-0.0100,-0.0044,0.0189,-0.0144,-2.6669,1.3951,-3.0705
2024-10-11T12:27:35.674Z,-0.0209,-0.9840,0.1777,0.1471,-0.0042,-0.0100,-0.0033,0.0154,-0.0146,-2.6669,1.3951,-3.0705
2024-10-11T12:27:35.684Z,-0.0192,-0.9826,0.1744,0.1471,-0.0042,-0.0100,0.0003,0.0205,-0.0128,-2.6669,1.3951,-3.0705
2024-10-11T12:27:35.695Z,-0.0192,-0.9826,0.1744,0.1064,-0.0148,0.0248,-0.0047,0.0222,-0.0143,-2.6649,1.3952,-3.0722
2024-10-11T12:27:35.705Z,-0.0193,-0.9832,0.1735,0.1064,-0.0148,0.0248,-0.0020,0.0221,-0.0134,-2.6649,1.3952,-3.0722
2024-10-11T12:27:35.714Z,-0.0164,-0.9833,0.1712,0.1064,-0.0148,0.0248,-0.0044,0.0262,-0.0135,-2.6649,1.3952,-3.0722
2024-10-11T12:27:35.725Z,-0.0166,-0.9848,0.1714,0.0459,0.0022,0.0281,0.0002,0.0315,-0.0160,-2.6632,1.3952,-3.0733
2024-10-11T12:27:35.734Z,-0.0160,-0.9842,0.1727,0.0459,0.0022,0.0281,0.0012,0.0351,-0.0133,-2.6632,1.3952,-3.0733
2024-10-11T12:27:35.744Z,-0.0138,-0.9838,0.1747,0.0459,0.0022,0.0281,-0.0012,0.0391,-0.0162,-2.6632,1.3952,-3.0733
2024-10-11T12:27:35.755Z,-0.0138,-0.9838,0.1747,0.0257,-0.0208,-0.0080,-0.0029,0.0447,-0.0140,-2.6615,1.3952,-3.0741
2024-10-11T12:27:35.764Z,-0.0114,-0.9823,0.1769,0.0257,-0.0208,-0.0080,-0.0009,0.0451,-0.0122,-2.6615,1.3952,-3.0741
2024-10-11T12:27:35.774Z,-0.0124,-0.9816,0.1766,0.0257,-0.0208,-0.0080,0.0003,0.0479,-0.0127,-2.6615,1.3952,-3.0741
2024-10-11T12:27:35.785Z,-0.0128,-0.9814,0.1778,0.0107,-0.0317,-0.0348,0.0005,0.0506,-0.0107,-2.6599,1.3952,-3.0745
2024-10-11T12:27:35.794Z,-0.0106,-0.9827,0.1803,0.0107,-0.0317,-0.0348,-0.0011,0.0536,-0.0100,-2.6599,1.3952,-3.0745
2024-10-11T12:27:35.805Z,-0.0122,-0.9844,0.1804,0.0107,-0.0317,-0.0348,-0.0027,0.0563,-0.0104,-2.6599,1.3952,-3.0745
2024-10-11T12:27:35.814Z,-0.0098,-0.9854,0.1791,-0.0192,0.0073,-0.0481,-0.0017,0.0581,-0.0092,-2.6585,1.3953,-3.0744
2024-10-11T12:27:35.823Z,-0.0127,-0.9841,0.1787,-0.0192,0.0073,-0.0481,-0.0021,0.0618,-0.0095,-2.6585,1.3953,-3.0744
2024-10-11T12:27:35.834Z,-0.0118,-0.9834,0.1813,-0.0192,0.0073,-0.0481,-0.0032,0.0609,-0.0078,-2.6585,1.3953,-3.0744
2024-10-11T12:27:35.845Z,-0.0144,-0.9831,0.1811,0.0253,-0.0150,-0.0676,-0.0025,0.0651,-0.0078,-2.6572,1.3953,-3.0741
2024-10-11T12:27:35.855Z,-0.0164,-0.9823,0.1833,0.0253,-0.0150,-0.0676,-0.0008,0.0623,-0.0104,-2.6572,1.3953,-3.0741
2024-10-11T12:27:35.864Z,-0.0134,-0.9813,0.1833,0.0253,-0.0150,-0.0676,-0.0005,0.0670,-0.0093,-2.6572,1.3953,-3.0741
2024-10-11T12:27:35.874Z,-0.0134,-0.9813,0.1833,0.0202,-0.0553,-0.0753,-0.0000,0.0652,-0.0096,-2.6558,1.3952,-3.0738
2024-10-11T12:27:35.884Z,-0.0136,-0.9781,0.1790,0.0202,-0.0553,-0.0753,0.0047,0.0670,-0.0074,-2.6558,1.3952,-3.0738
2024-10-11T12:27:35.894Z,-0.0150,-0.9774,0.1774,0.0202,-0.0553,-0.0753,0.0008,0.0677,-0.0096,-2.6558,1.3952,-3.0738
2024-10-11T12:27:35.906Z,-0.0150,-0.9774,0.1774,0.0175,-0.0488,-0.0433,0.0018,0.0629,-0.0075,-2.6541,1.3951,-3.0738
2024-10-11T12:27:35.914Z,-0.0098,-0.9812,0.1765,0.0175,-0.0488,-0.0433,0.0044,0.0591,-0.0082,-2.6541,1.3951,-3.0738
2024-10-11T12:27:35.924Z,-0.0106,-0.9803,0.1740,0.0175,-0.0488,-0.0433,0.0030,0.0590,-0.0059,-2.6541,1.3951,-3.0738
2024-10-11T12:27:35.933Z,-0.0106,-0.9803,0.1740,-0.0263,-0.0377,0.0332,0.0045,0.0587,-0.0074,-2.6528,1.3950,-3.0735
2024-10-11T12:27:35.944Z,-0.0070,-0.9799,0.1747,-0.0263,-0.0377,0.0332,0.0030,0.0584,-0.0082,-2.6528,1.3950,-3.0735
2024-10-11T12:27:35.955Z,-0.0070,-0.9799,0.1747,-0.0263,-0.0377,0.0332,0.0037,0.0537,-0.0072,-2.6528,1.3950,-3.0735
2024-10-11T12:27:35.965Z,-0.0042,-0.9768,0.1748,-0.0763,-0.0762,-0.0019,0.0068,0.0547,-0.0060,-2.6517,1.3949,-3.0731
2024-10-11T12:27:35.974Z,-0.0034,-0.9736,0.1755,-0.0763,-0.0762,-0.0019,0.0080,0.0519,-0.0053,-2.6517,1.3949,-3.0731
2024-10-11T12:27:35.984Z,-0.0026,-0.9731,0.1773,-0.0763,-0.0762,-0.0019,0.0075,0.0514,-0.0064,-2.6517,1.3949,-3.0731
2024-10-11T12:27:35.995Z,-0.0045,-0.9752,0.1801,-0.0735,-0.0911,-0.0518,0.0074,0.0462,-0.0060,-2.6507,1.3946,-3.0729
2024-10-11T12:27:36.006Z,-0.0042,-0.9766,0.1799,-0.0735,-0.0911,-0.0518,0.0079,0.0429,-0.0078,-2.6507,1.3946,-3.0729
2024-10-11T12:27:36.014Z,-0.0063,-0.9739,0.1824,-0.0735,-0.0911,-0.0518,0.0041,0.0382,-0.0057,-2.6507,1.3946,-3.0729
2024-10-11T12:27:36.024Z,-0.0058,-0.9735,0.1834,-0.0616,-0.1078,-0.0823,0.0055,0.0363,-0.0059,-2.6496,1.3944,-3.0730
2024-10-11T12:27:36.034Z,-0.0073,-0.9768,0.1830,-0.0616,-0.1078,-0.0823,0.0095,0.0323,-0.0050,-2.6496,1.3944,-3.0730
2024-10-11T12:27:36.044Z,-0.0062,-0.9774,0.1806,-0.0616,-0.1078,-0.0823,0.0102,0.0295,-0.0061,-2.6496,1.3944,-3.0730
2024-10-11T12:27:36.055Z,-0.0062,-0.9774,0.1806,-0.0791,-0.0565,-0.0578,0.0099,0.0263,-0.0057,-2.6480,1.3942,-3.0739
2024-10-11T12:27:36.064Z,-0.0063,-0.9782,0.1795,-0.0791,-0.0565,-0.0578,0.0109,0.0230,-0.0047,-2.6480,1.3942,-3.0739
2024-10-11T12:27:36.074Z,-0.0036,-0.9804,0.1801,-0.0791,-0.0565,-0.0578,0.0121,0.0220,-0.0075,-2.6480,1.3942,-3.0739
2024-10-11T12:27:36.084Z,-0.0023,-0.9794,0.1773,-0.0922,-0.0483,-0.0155,0.0113,0.0181,-0.0070,-2.6464,1.3937,-3.0752
2024-10-11T12:27:36.094Z,-0.0038,-0.9800,0.1758,-0.0922,-0.0483,-0.0155,0.0121,0.0132,-0.0073,-2.6464,1.3937,-3.0752
2024-10-11T12:27:36.104Z,-0.0033,-0.9780,0.1770,-0.0922,-0.0483,-0.0155,0.0131,0.0091,-0.0085,-2.6464,1.3937,-3.0752
2024-10-11T12:27:36.115Z,-0.0028,-0.9797,0.1748,-0.0846,-0.0444,0.0155,0.0153,0.0083,-0.0058,-2.6445,1.3932,-3.0770
2024-10-11T12:27:36.124Z,-0.0015,-0.9807,0.1738,-0.0846,-0.0444,0.0155,0.0158,0.0031,-0.0087,-2.6445,1.3932,-3.0770
2024-10-11T12:27:36.134Z,0.0007,-0.9798,0.1765,-0.0846,-0.0444,0.0155,0.0152,0.0004,-0.0075,-2.6445,1.3932,-3.0770
2024-10-11T12:27:36.144Z,0.0001,-0.9790,0.1791,-0.1094,-0.0507,-0.0211,0.0190,-0.0056,-0.0065,-2.6423,1.3925,-3.0794
2024-10-11T12:27:36.154Z,0.0029,-0.9777,0.1806,-0.1094,-0.0507,-0.0211,0.0194,-0.0080,-0.0089,-2.6423,1.3925,-3.0794
2024-10-11T12:27:36.164Z,0.0068,-0.9773,0.1805,-0.1094,-0.0507,-0.0211,0.0193,-0.0146,-0.0054,-2.6423,1.3925,-3.0794
2024-10-11T12:27:36.174Z,0.0068,-0.9773,0.1805,-0.1967,-0.0506,-0.0125,0.0219,-0.0169,-0.0058,-2.6405,1.3920,-3.0819
2024-10-11T12:27:36.184Z,0.0083,-0.9789,0.1770,-0.1967,-0.0506,-0.0125,0.0205,-0.0188,-0.0050,-2.6405,1.3920,-3.0819
2024-10-11T12:27:36.194Z,0.0114,-0.9796,0.1793,-0.1967,-0.0506,-0.0125,0.0189,-0.0234,-0.0020,-2.6405,1.3920,-3.0819
2024-10-11T12:27:36.206Z,0.0128,-0.9797,0.1811,-0.2273,-0.0420,-0.0286,0.0167,-0.0249,-0.0031,-2.6398,1.3913,-3.0835
2024-10-11T12:27:36.214Z,0.0105,-0.9826,0.1816,-0.2273,-0.0420,-0.0286,0.0168,-0.0281,-0.0001,-2.6398,1.3913,-3.0835
2024-10-11T12:27:36.224Z,0.0089,-0.9820,0.1828,-0.2273,-0.0420,-0.0286,0.0194,-0.0311,-0.0013,-2.6398,1.3913,-3.0835
2024-10-11T12:27:36.234Z,0.0075,-0.9857,0.1821,-0.1725,0.0185,-0.0328,0.0194,-0.0314,0.0015,-2.6393,1.3907,-3.0851
2024-10-11T12:27:36.244Z,0.0062,-0.9864,0.1806,-0.1725,0.0185,-0.0328,0.0225,-0.0384,0.0013,-2.6393,1.3907,-3.0851
2024-10-11T12:27:36.255Z,0.0091,-0.9880,0.1814,-0.1725,0.0185,-0.0328,0.0223,-0.0392,-0.0005,-2.6393,1.3907,-3.0851
2024-10-11T12:27:36.264Z,0.0084,-0.9876,0.1799,-0.1785,0.0384,-0.0047,0.0221,-0.0401,0.0003,-2.6387,1.3901,-3.0871
2024-10-11T12:27:36.274Z,0.0057,-0.9852,0.1766,-0.1785,0.0384,-0.0047,0.0189,-0.0407,0.0013,-2.6387,1.3901,-3.0871
2024-10-11T12:27:36.284Z,0.0053,-0.9857,0.1779,-0.1785,0.0384,-0.0047,0.0201,-0.0471,0.0010,-2.6387,1.3901,-3.0871
2024-10-11T12:27:36.294Z,0.0080,-0.9862,0.1785,-0.1698,0.0255,0.0158,0.0221,-0.0496,-0.0006,-2.6374,1.3895,-3.0901
2024-10-11T12:27:36.304Z,0.0063,-0.9853,0.1796,-0.1698,0.0255,0.0158,0.0206,-0.0554,-0.0045,-2.6374,1.3895,-3.0901
2024-10-11T12:27:36.314Z,0.0034,-0.9871,0.1800,-0.1698,0.0255,0.0158,0.0207,-0.0611,-0.0006,-2.6374,1.3895,-3.0901
2024-10-11T12:27:36.325Z,0.0030,-0.9900,0.1821,-0.1156,0.0637,-0.0137,0.0196,-0.0681,-0.0027,-2.6363,1.3889,-3.0932
2024-10-11T12:27:36.334Z,0.0035,-0.9924,0.1850,-0.1156,0.0637,-0.0137,0.0183,-0.0713,-0.0054,-2.6363,1.3889,-3.0932
2024-10-11T12:27:36.344Z,0.0025,-0.9941,0.1881,-0.1156,0.0637,-0.0137,0.0149,-0.0760,-0.0054,-2.6363,1.3889,-3.0932
2024-10-11T12:27:36.355Z,0.0033,-0.9962,0.1935,-0.1127,0.1256,-0.1204,0.0114,-0.0811,-0.0071,-2.6355,1.3884,-3.0965
2024-10-11T12:27:36.364Z,0.0075,-0.9956,0.1945,-0.1127,0.1256,-0.1204,0.0112,-0.0871,-0.0046,-2.6355,1.3884,-3.0965
2024-10-11T12:27:36.374Z,0.0062,-0.9962,0.1962,-0.1127,0.1256,-0.1204,0.0084,-0.0863,-0.0042,-2.6355,1.3884,-3.0965
2024-10-11T12:27:36.384Z,0.0029,-0.9951,0.1945,-0.1020,0.1157,-0.1270,0.0060,-0.0862,-0.0040,-2.6347,1.3881,-3.1000
2024-10-11T12:27:36.394Z,0.0024,-0.9952,0.1930,-0.1020,0.1157,-0.1270,0.0047,-0.0811,-0.0027,-2.6347,1.3881,-3.1000
2024-10-11T12:27:36.405Z,-0.0061,-0.9948,0.1893,-0.1020,0.1157,-0.1270,0.0048,-0.0792,-0.0035,-2.6347,1.3881,-3.1000
2024-10-11T12:27:36.415Z,-0.0080,-0.9947,0.1850,0.0097,0.1119,-0.0320,0.0015,-0.0750,-0.0033,-2.6343,1.3879,-3.1030
2024-10-11T12:27:36.424Z,-0.0092,-0.9945,0.1846,0.0097,0.1119,-0.0320,0.0012,-0.0691,-0.0007,-2.6343,1.3879,-3.1030
2024-10-11T12:27:36.434Z,-0.0079,-0.9948,0.1858,0.0097,0.1119,-0.0320,0.0017,-0.0648,0.0022,-2.6343,1.3879,-3.1030
2024-10-11T12:27:36.444Z,-0.0094,-0.9933,0.1866,0.0269,0.0980,-0.0468,0.0002,-0.0538,0.0013,-2.6344,1.3879,-3.1052
2024-10-11T12:27:36.456Z,-0.0119,-0.9922,0.1850,0.0269,0.0980,-0.0468,0.0005,-0.0531,0.0023,-2.6344,1.3879,-3.1052
2024-10-11T12:27:36.465Z,-0.0157,-0.9905,0.1847,0.0269,0.0980,-0.0468,0.0002,-0.0483,0.0021,-2.6344,1.3879,-3.1052
2024-10-11T12:27:36.475Z,-0.0185,-0.9902,0.1846,0.1179,0.0677,-0.0276,-0.0043,-0.0443,0.0041,-2.6351,1.3879,-3.1062
2024-10-11T12:27:36.484Z,-0.0187,-0.9859,0.1856,0.1179,0.0677,-0.0276,-0.0009,-0.0373,0.0039,-2.6351,1.3879,-3.1062
2024-10-11T12:27:36.494Z,-0.0182,-0.9878,0.1852,0.1179,0.0677,-0.0276,-0.0043,-0.0304,0.0053,-2.6351,1.3879,-3.1062
2024-10-11T12:27:36.505Z,-0.0193,-0.9882,0.1865,0.1269,0.0476,-0.0468,-0.0067,-0.0252,0.0062,-2.6361,1.3880,-3.1064
2024-10-11T12:27:36.514Z,-0.0205,-0.9862,0.1862,0.1269,0.0476,-0.0468,-0.0064,-0.0207,0.0061,-2.6361,1.3880,-3.1064
2024-10-11T12:27:36.524Z,-0.0251,-0.9846,0.1849,0.1269,0.0476,-0.0468,-0.0066,-0.0170,0.0054,-2.6361,1.3880,-3.1064
2024-10-11T12:27:36.534Z,-0.0257,-0.9850,0.1834,0.1889,0.0157,-0.0185,-0.0073,-0.0147,0.0060,-2.6374,1.3882,-3.1060
2024-10-11T12:27:36.544Z,-0.0274,-0.9865,0.1835,0.1889,0.0157,-0.0185,-0.0120,-0.0104,0.0042,-2.6374,1.3882,-3.1060
2024-10-11T12:27:36.555Z,-0.0267,-0.9859,0.1858,0.1889,0.0157,-0.0185,-0.0101,-0.0073,0.0066,-2.6374,1.3882,-3.1060
2024-10-11T12:27:36.564Z,-0.0293,-0.9862,0.1873,0.2231,0.0276,-0.0598,-0.0138,-0.0058,0.0044,-2.6387,1.3885,-3.1053
2024-10-11T12:27:36.574Z,-0.0356,-0.9888,0.1855,0.2231,0.0276,-0.0598,-0.0152,-0.0042,0.0039,-2.6387,1.3885,-3.1053
2024-10-11T12:27:36.584Z,-0.0341,-0.9860,0.1822,0.2231,0.0276,-0.0598,-0.0181,0.0009,0.0025,-2.6387,1.3885,-3.1053
2024-10-11T12:27:36.594Z,-0.0294,-0.9887,0.1803,0.2231,0.0511,0.0051,-0.0188,0.0033,0.0015,-2.6397,1.3889,-3.1047
2024-10-11T12:27:36.605Z,-0.0318,-0.9886,0.1810,0.2231,0.0511,0.0051,-0.0188,0.0022,0.0041,-2.6397,1.3889,-3.1047
2024-10-11T12:27:36.614Z,-0.0254,-0.9896,0.1805,0.2231,0.0511,0.0051,-0.0219,0.0029,0.0052,-2.6397,1.3889,-3.1047
2024-10-11T12:27:36.625Z,-0.0201,-0.9913,0.1801,0.1304,0.0753,0.0009,-0.0212,0.0054,0.0054,-2.6409,1.3895,-3.1036
2024-10-11T12:27:36.634Z,-0.0153,-0.9914,0.1807,0.1304,0.0753,0.0009,-0.0236,0.0016,0.0039,-2.6409,1.3895,-3.1036
2024-10-11T12:27:36.644Z,-0.0145,-0.9928,0.1841,0.1304,0.0753,0.0009,-0.0205,0.0043,0.0064,-2.6409,1.3895,-3.1036
2024-10-11T12:27:36.655Z,-0.0196,-0.9925,0.1780,0.1221,0.0858,0.0147,-0.0247,0.0082,0.0099,-2.6426,1.3902,-3.1020
2024-10-11T12:27:36.664Z,-0.0147,-0.9889,0.1755,0.1221,0.0858,0.0147,-0.0248,0.0140,0.0105,-2.6426,1.3902,-3.1020
2024-10-11T12:27:36.674Z,-0.0143,-0.9886,0.1769,0.1221,0.0858,0.0147,-0.0236,0.0178,0.0079,-2.6426,1.3902,-3.1020
2024-10-11T12:27:36.683Z,-0.0120,-0.9890,0.1745,0.0438,0.0509,0.0418,-0.0235,0.0227,0.0116,-2.6450,1.3909,-3.0993
2024-10-11T12:27:36.694Z,-0.0123,-0.9926,0.1715,0.0438,0.0509,0.0418,-0.0272,0.0236,0.0142,-2.6450,1.3909,-3.0993
2024-10-11T12:27:36.706Z,-0.0090,-0.9906,0.1699,0.0438,0.0509,0.0418,-0.0275,0.0249,0.0136,-2.6450,1.3909,-3.0993
2024-10-11T12:27:36.714Z,-0.0099,-0.9936,0.1745,0.0178,0.0940,0.0347,-0.0304,0.0250,0.0188,-2.6479,1.3916,-3.0960
2024-10-11T12:27:36.724Z,-0.0140,-0.9909,0.1738,0.0178,0.0940,0.0347,-0.0298,0.0255,0.0191,-2.6479,1.3916,-3.0960
2024-10-11T12:27:36.734Z,-0.0131,-0.9900,0.1774,0.0178,0.0940,0.0347,-0.0324,0.0256,0.0165,-2.6479,1.3916,-3.0960
2024-10-11T12:27:36.744Z,-0.0169,-0.9862,0.1761,0.0792,0.0201,0.0092,-0.0330,0.0250,0.0185,-2.6515,1.3925,-3.0920
2024-10-11T12:27:36.756Z,-0.0171,-0.9869,0.1760,0.0792,0.0201,0.0092,-0.0310,0.0244,0.0185,-2.6515,1.3925,-3.0920
2024-10-11T12:27:36.764Z,-0.0172,-0.9857,0.1776,0.0792,0.0201,0.0092,-0.0319,0.0212,0.0193,-2.6515,1.3925,-3.0920
2024-10-11T12:27:36.776Z,-0.0204,-0.9840,0.1761,0.1083,-0.0034,-0.0005,-0.0355,0.0226,0.0172,-2.6549,1.3935,-3.0882
2024-10-11T12:27:36.784Z,-0.0213,-0.9830,0.1766,0.1083,-0.0034,-0.0005,-0.0330,0.0225,0.0130,-2.6549,1.3935,-3.0882
2024-10-11T12:27:36.794Z,-0.0244,-0.9794,0.1740,0.1083,-0.0034,-0.0005,-0.0355,0.0219,0.0138,-2.6549,1.3935,-3.0882
2024-10-11T12:27:36.806Z,-0.0244,-0.9811,0.1710,0.1424,-0.0333,0.0393,-0.0385,0.0243,0.0095,-2.6575,1.3946,-3.0853
2024-10-11T12:27:36.814Z,-0.0232,-0.9792,0.1654,0.1424,-0.0333,0.0393,-0.0344,0.0168,0.0089,-2.6575,1.3946,-3.0853
2024-10-11T12:27:36.824Z,-0.0236,-0.9790,0.1664,0.1424,-0.0333,0.0393,-0.0354,0.0180,0.0088,-2.6575,1.3946,-3.0853
2024-10-11T12:27:36.834Z,-0.0222,-0.9783,0.1617,0.1181,-0.0632,0.1207,-0.0321,0.0166,0.0093,-2.6595,1.3956,-3.0830
2024-10-11T12:27:36.844Z,-0.0187,-0.9787,0.1602,0.1181,-0.0632,0.1207,-0.0340,0.0145,0.0087,-2.6595,1.3956,-3.0830
2024-10-11T12:27:36.855Z,-0.0188,-0.9777,0.1567,0.1181,-0.0632,0.1207,-0.0325,0.0139,0.0055,-2.6595,1.3956,-3.0830
2024-10-11T12:27:36.864Z,-0.0174,-0.9769,0.1577,0.0681,-0.0778,0.1507,-0.0292,0.0161,0.0032,-2.6613,1.3966,-3.0810
2024-10-11T12:27:36.874Z,-0.0154,-0.9754,0.1574,0.0681,-0.0778,0.1507,-0.0296,0.0194,0.0056,-2.6613,1.3966,-3.0810
2024-10-11T12:27:36.884Z,-0.0138,-0.9757,0.1547,0.0681,-0.0778,0.1507,-0.0270,0.0206,0.0047,-2.6613,1.3966,-3.0810
2024-10-11T12:27:36.894Z,-0.0136,-0.9757,0.1574,0.0276,-0.0908,0.1456,-0.0244,0.0203,0.0027,-2.6628,1.3974,-3.0792
2024-10-11T12:27:36.905Z,-0.0104,-0.9739,0.1608,0.0276,-0.0908,0.1456,-0.0236,0.0235,0.0043,-2.6628,1.3974,-3.0792
2024-10-11T12:27:36.914Z,-0.0116,-0.9743,0.1643,0.0276,-0.0908,0.1456,-0.0202,0.0235,0.0024,-2.6628,1.3974,-3.0792
2024-10-11T12:27:36.924Z,-0.0124,-0.9750,0.1659,0.0136,-0.0993,0.0553,-0.0185,0.0236,0.0019,-2.6639,1.3980,-3.0777
2024-10-11T12:27:36.934Z,-0.0132,-0.9770,0.1646,0.0136,-0.0993,0.0553,-0.0162,0.0263,-0.0011,-2.6639,1.3980,-3.0777
2024-10-11T12:27:36.944Z,-0.0114,-0.9776,0.1658,0.0136,-0.0993,0.0553,-0.0154,0.0252,0.0011,-2.6639,1.3980,-3.0777
2024-10-11T12:27:36.954Z,-0.0128,-0.9798,0.1629,0.0170,-0.0525,0.0804,-0.0129,0.0266,-0.0033,-2.6644,1.3985,-3.0767
2024-10-11T12:27:36.964Z,-0.0149,-0.9813,0.1632,0.0170,-0.0525,0.0804,-0.0077,0.0279,-0.0021,-2.6644,1.3985,-3.0767
2024-10-11T12:27:36.974Z,-0.0087,-0.9803,0.1626,0.0170,-0.0525,0.0804,-0.0064,0.0283,-0.0019,-2.6644,1.3985,-3.0767
2024-10-11T12:27:36.984Z,-0.0102,-0.9788,0.1654,-0.0099,-0.0631,0.0531,-0.0032,0.0280,-0.0023,-2.6642,1.3988,-3.0763
2024-10-11T12:27:36.994Z,-0.0110,-0.9796,0.1643,-0.0099,-0.0631,0.0531,-0.0011,0.0282,-0.0010,-2.6642,1.3988,-3.0763
2024-10-11T12:27:37.004Z,-0.0121,-0.9802,0.1669,-0.0099,-0.0631,0.0531,-0.0058,0.0299,-0.0025,-2.6642,1.3988,-3.0763
2024-10-11T12:27:37.014Z,-0.0089,-0.9795,0.1719,-0.0226,-0.0562,-0.0119,-0.0021,0.0298,-0.0034,-2.6639,1.3989,-3.0759
2024-10-11T12:27:37.024Z,-0.0115,-0.9799,0.1736,-0.0226,-0.0562,-0.0119,-0.0017,0.0317,-0.0038,-2.6639,1.3989,-3.0759
2024-10-11T12:27:37.034Z,-0.0089,-0.9802,0.1761,-0.0226,-0.0562,-0.0119,-0.0010,0.0295,-0.0035,-2.6639,1.3989,-3.0759
2024-10-11T12:27:37.044Z,-0.0096,-0.9784,0.1755,-0.0161,-0.0674,-0.0475,-0.0001,0.0331,-0.0019,-2.6635,1.3989,-3.0756
2024-10-11T12:27:37.054Z,-0.0122,-0.9776,0.1741,-0.0161,-0.0674,-0.0475,0.0016,0.0351,-0.0027,-2.6635,1.3989,-3.0756
2024-10-11T12:27:37.064Z,-0.0080,-0.9761,0.1780,-0.0161,-0.0674,-0.0475,-0.0018,0.0325,-0.0026,-2.6635,1.3989,-3.0756
2024-10-11T12:27:37.074Z,-0.0056,-0.9778,0.1776,-0.0566,-0.0733,-0.0687,0.0005,0.0361,-0.0019,-2.6631,1.3989,-3.0752
2024-10-11T12:27:37.084Z,-0.0061,-0.9773,0.1749,-0.0566,-0.0733,-0.0687,0.0010,0.0337,-0.0028,-2.6631,1.3989,-3.0752
2024-10-11T12:27:37.094Z,-0.0071,-0.9761,0.1763,-0.0566,-0.0733,-0.0687,0.0002,0.0350,-0.0026,-2.6631,1.3989,-3.0752
2024-10-11T12:27:37.104Z,-0.0079,-0.9769,0.1769,-0.0351,-0.0824,-0.0609,0.0041,0.0337,-0.0012,-2.6629,1.3989,-3.0747
2024-10-11T12:27:37.114Z,-0.0033,-0.9769,0.1779,-0.0351,-0.0824,-0.0609,0.0063,0.0344,-0.0024,-2.6629,1.3989,-3.0747
2024-10-11T12:27:37.123Z,-0.0030,-0.9793,0.1759,-0.0351,-0.0824,-0.0609,0.0034,0.0304,0.0003,-2.6629,1.3989,-3.0747
2024-10-11T12:27:37.135Z,-0.0079,-0.9773,0.1772,-0.0357,-0.0776,-0.0623,0.0056,0.0306,-0.0003,-2.6628,1.3987,-3.0740
2024-10-11T12:27:37.144Z,-0.0037,-0.9801,0.1809,-0.0357,-0.0776,-0.0623,0.0025,0.0272,0.0017,-2.6628,1.3987,-3.0740
2024-10-11T12:27:37.154Z,-0.0047,-0.9807,0.1793,-0.0357,-0.0776,-0.0623,0.0032,0.0266,0.0004,-2.6628,1.3987,-3.0740
2024-10-11T12:27:37.164Z,-0.0063,-0.9804,0.1773,-0.0526,-0.0469,-0.0608,0.0034,0.0251,0.0036,-2.6625,1.3985,-3.0738
2024-10-11T12:27:37.173Z,-0.0070,-0.9821,0.1789,-0.0526,-0.0469,-0.0608,0.0026,0.0246,0.0057,-2.6625,1.3985,-3.0738
2024-10-11T12:27:37.184Z,-0.0031,-0.9858,0.1795,-0.0526,-0.0469,-0.0608,0.0001,0.0231,0.0032,-2.6625,1.3985,-3.0738
2024-10-11T12:27:37.193Z,-0.0017,-0.9856,0.1811,-0.0974,0.0048,-0.0951,-0.0008,0.0234,0.0038,-2.6623,1.3982,-3.0736
2024-10-11T12:27:37.204Z,-0.0007,-0.9865,0.1824,-0.0974,0.0048,-0.0951,0.0015,0.0216,0.0070,-2.6623,1.3982,-3.0736
2024-10-11T12:27:37.214Z,-0.0026,-0.9881,0.1826,-0.0974,0.0048,-0.0951,-0.0010,0.0191,0.0081,-2.6623,1.3982,-3.0736
2024-10-11T12:27:37.224Z,-0.0054,-0.9873,0.1814,-0.0640,0.0214,-0.0982,-0.0023,0.0157,0.0074,-2.6632,1.3981,-3.0723
2024-10-11T12:27:37.234Z,-0.0036,-0.9888,0.1809,-0.0640,0.0214,-0.0982,-0.0015,0.0138,0.0098,-2.6632,1.3981,-3.0723
2024-10-11T12:27:37.244Z,-0.0047,-0.9893,0.1797,-0.0640,0.0214,-0.0982,-0.0045,0.0107,0.0122,-2.6632,1.3981,-3.0723
2024-10-11T12:27:37.254Z,-0.0070,-0.9895,0.1821,-0.0511,0.0425,-0.1045,-0.0030,0.0114,0.0088,-2.6647,1.3981,-3.0707
2024-10-11T12:27:37.264Z,-0.0097,-0.9899,0.1827,-0.0511,0.0425,-0.1045,-0.0038,0.0094,0.0108,-2.6647,1.3981,-3.0707
2024-10-11T12:27:37.274Z,-0.0094,-0.9892,0.1839,-0.0511,0.0425,-0.1045,-0.0030,0.0094,0.0077,-2.6647,1.3981,-3.0707
2024-10-11T12:27:37.283Z,-0.0061,-0.9881,0.1830,-0.0621,0.0293,-0.1128,-0.0019,0.0020,0.0115,-2.6661,1.3980,-3.0694
2024-10-11T12:27:37.294Z,-0.0081,-0.9890,0.1843,-0.0621,0.0293,-0.1128,-0.0045,-0.0001,0.0107,-2.6661,1.3980,-3.0694
2024-10-11T12:27:37.304Z,-0.0072,-0.9892,0.1826,-0.0621,0.0293,-0.1128,-0.0045,0.0003,0.0118,-2.6661,1.3980,-3.0694
2024-10-11T12:27:37.314Z,-0.0085,-0.9901,0.1827,-0.0396,0.0495,-0.1095,-0.0043,-0.0027,0.0118,-2.6673,1.3979,-3.0686
2024-10-11T12:27:37.324Z,-0.0092,-0.9900,0.1834,-0.0396,0.0495,-0.1095,-0.0039,-0.0055,0.0116,-2.6673,1.3979,-3.0686
2024-10-11T12:27:37.334Z,-0.0100,-0.9908,0.1813,-0.0396,0.0495,-0.1095,-0.0040,-0.0025,0.0120,-2.6673,1.3979,-3.0686
2024-10-11T12:27:37.344Z,-0.0126,-0.9924,0.1794,-0.0013,0.0721,-0.0760,-0.0055,-0.0050,0.0099,-2.6687,1.3978,-3.0676
2024-10-11T12:27:37.354Z,-0.0133,-0.9908,0.1780,-0.0013,0.0721,-0.0760,-0.0077,-0.0087,0.0107,-2.6687,1.3978,-3.0676
2024-10-11T12:27:37.364Z,-0.0148,-0.9913,0.1742,-0.0013,0.0721,-0.0760,-0.0067,-0.0089,0.0088,-2.6687,1.3978,-3.0676
2024-10-11T12:27:37.374Z,-0.0157,-0.9898,0.1713,0.0272,0.0459,0.0033,-0.0092,-0.0090,0.0106,-2.6702,1.3978,-3.0666
2024-10-11T12:27:37.384Z,-0.0154,-0.9876,0.1710,0.0272,0.0459,0.0033,-0.0041,-0.0151,0.0100,-2.6702,1.3978,-3.0666
2024-10-11T12:27:37.394Z,-0.0149,-0.9879,0.1679,0.0272,0.0459,0.0033,-0.0056,-0.0143,0.0061,-2.6702,1.3978,-3.0666
2024-10-11T12:27:37.404Z,-0.0150,-0.9837,0.1667,0.0192,-0.0141,0.0468,-0.0072,-0.0171,0.0085,-2.6719,1.3979,-3.0656
2024-10-11T12:27:37.414Z,-0.0161,-0.9814,0.1658,0.0192,-0.0141,0.0468,-0.0068,-0.0165,0.0073,-2.6719,1.3979,-3.0656
2024-10-11T12:27:37.424Z,-0.0178,-0.9816,0.1668,0.0192,-0.0141,0.0468,-0.0052,-0.0186,0.0061,-2.6719,1.3979,-3.0656
2024-10-11T12:27:37.434Z,-0.0193,-0.9815,0.1664,0.0603,-0.0355,0.0487,-0.0072,-0.0199,0.0077,-2.6733,1.3980,-3.0651
2024-10-11T12:27:37.444Z,-0.0192,-0.9818,0.1673,0.0603,-0.0355,0.0487,-0.0037,-0.0227,0.0053,-2.6733,1.3980,-3.0651
2024-10-11T12:27:37.454Z,-0.0202,-0.9824,0.1668,0.0603,-0.0355,0.0487,-0.0068,-0.0247,0.0031,-2.6733,1.3980,-3.0651
2024-10-11T12:27:37.464Z,-0.0232,-0.9836,0.1638,0.0988,-0.0151,0.0732,-0.0076,-0.0264,-0.0011,-2.6740,1.3981,-3.0653
2024-10-11T12:27:37.474Z,-0.0257,-0.9825,0.1645,0.0988,-0.0151,0.0732,-0.0034,-0.0277,-0.0008,-2.6740,1.3981,-3.0653
2024-10-11T12:27:37.484Z,-0.0271,-0.9806,0.1659,0.0988,-0.0151,0.0732,-0.0025,-0.0332,-0.0022,-2.6740,1.3981,-3.0653
2024-10-11T12:27:37.494Z,-0.0252,-0.9838,0.1646,0.1214,-0.0133,0.0648,-0.0001,-0.0325,-0.0030,-2.6738,1.3983,-3.0666
2024-10-11T12:27:37.504Z,-0.0268,-0.9832,0.1623,0.1214,-0.0133,0.0648,-0.0027,-0.0345,-0.0075,-2.6738,1.3983,-3.0666
2024-10-11T12:27:37.514Z,-0.0284,-0.9821,0.1610,0.1214,-0.0133,0.0648,-0.0029,-0.0345,-0.0085,-2.6738,1.3983,-3.0666
2024-10-11T12:27:37.524Z,-0.0247,-0.9824,0.1609,0.1196,-0.0271,0.1007,-0.0016,-0.0364,-0.0108,-2.6728,1.3983,-3.0689
2024-10-11T12:27:37.534Z,-0.0229,-0.9830,0.1590,0.1196,-0.0271,0.1007,0.0008,-0.0352,-0.0118,-2.6728,1.3983,-3.0689
2024-10-11T12:27:37.545Z,-0.0200,-0.9832,0.1588,0.1196,-0.0271,0.1007,-0.0002,-0.0376,-0.0134,-2.6728,1.3983,-3.0689
2024-10-11T12:27:37.554Z,-0.0193,-0.9813,0.1589,0.0712,-0.0378,0.1204,0.0019,-0.0367,-0.0140,-2.6716,1.3983,-3.0715
2024-10-11T12:27:37.565Z,-0.0186,-0.9832,0.1583,0.0712,-0.0378,0.1204,0.0052,-0.0352,-0.0117,-2.6716,1.3983,-3.0715
2024-10-11T12:27:37.574Z,-0.0190,-0.9805,0.1569,0.0712,-0.0378,0.1204,0.0046,-0.0369,-0.0123,-2.6716,1.3983,-3.0715
2024-10-11T12:27:37.584Z,-0.0171,-0.9813,0.1569,0.0537,-0.0380,0.1408,0.0044,-0.0348,-0.0142,-2.6703,1.3983,-3.0740
2024-10-11T12:27:37.594Z,-0.0178,-0.9812,0.1586,0.0537,-0.0380,0.1408,0.0060,-0.0342,-0.0151,-2.6703,1.3983,-3.0740
2024-10-11T12:27:37.604Z,-0.0163,-0.9799,0.1596,0.0537,-0.0380,0.1408,0.0064,-0.0325,-0.0139,-2.6703,1.3983,-3.0740
2024-10-11T12:27:37.614Z,-0.0173,-0.9803,0.1576,0.0604,-0.0470,0.1357,0.0079,-0.0330,-0.0146,-2.6688,1.3982,-3.0767
2024-10-11T12:27:37.624Z,-0.0137,-0.9807,0.1564,0.0604,-0.0470,0.1357,0.0083,-0.0301,-0.0134,-2.6688,1.3982,-3.0767
2024-10-11T12:27:37.634Z,-0.0158,-0.9784,0.1611,0.0604,-0.0470,0.1357,0.0086,-0.0287,-0.0143,-2.6688,1.3982,-3.0767
2024-10-11T12:27:37.644Z,-0.0185,-0.9786,0.1617,0.0776,-0.0639,0.0973,0.0103,-0.0272,-0.0135,-2.6666,1.3980,-3.0799
2024-10-11T12:27:37.654Z,-0.0195,-0.9782,0.1624,0.0776,-0.0639,0.0973,0.0088,-0.0266,-0.0138,-2.6666,1.3980,-3.0799
2024-10-11T12:27:37.664Z,-0.0199,-0.9778,0.1606,0.0776,-0.0639,0.0973,0.0109,-0.0235,-0.0134,-2.6666,1.3980,-3.0799
2024-10-11T12:27:37.674Z,-0.0212,-0.9769,0.1571,0.1087,-0.0801,0.1436,0.0109,-0.0202,-0.0139,-2.6650,1.3979,-3.0825
2024-10-11T12:27:37.684Z,-0.0206,-0.9765,0.1593,0.1087,-0.0801,0.1436,0.0124,-0.0230,-0.0156,-2.6650,1.3979,-3.0825
2024-10-11T12:27:37.694Z,-0.0205,-0.9798,0.1587,0.1087,-0.0801,0.1436,0.0150,-0.0215,-0.0154,-2.6650,1.3979,-3.0825
2024-10-11T12:27:37.704Z,-0.0249,-0.9810,0.1559,0.1472,-0.0407,0.1524,0.0178,-0.0231,-0.0150,-2.6645,1.3982,-3.0839
2024-10-11T12:27:37.714Z,-0.0233,-0.9835,0.1586,0.1472,-0.0407,0.1524,0.0197,-0.0228,-0.0204,-2.6645,1.3982,-3.0839
2024-10-11T12:27:37.724Z,-0.0218,-0.9832,0.1570,0.1472,-0.0407,0.1524,0.0163,-0.0201,-0.0186,-2.6645,1.3982,-3.0839
2024-10-11T12:27:37.734Z,-0.0214,-0.9837,0.1557,0.1169,-0.0135,0.1589,0.0212,-0.0197,-0.0179,-2.6625,1.3978,-3.0867
2024-10-11T12:27:37.744Z,-0.0173,-0.9821,0.1561,0.1169,-0.0135,0.1589,0.0213,-0.0159,-0.0189,-2.6625,1.3978,-3.0867
2024-10-11T12:27:37.754Z,-0.0155,-0.9844,0.1554,0.1169,-0.0135,0.1589,0.0220,-0.0164,-0.0177,-2.6625,1.3978,-3.0867
2024-10-11T12:27:37.764Z,-0.0149,-0.9836,0.1559,0.0580,-0.0135,0.1602,0.0229,-0.0134,-0.0171,-2.6605,1.3974,-3.0893
2024-10-11T12:27:37.774Z,-0.0163,-0.9836,0.1533,0.0580,-0.0135,0.1602,0.0235,-0.0116,-0.0162,-2.6605,1.3974,-3.0893
2024-10-11T12:27:37.785Z,-0.0154,-0.9827,0.1550,0.0580,-0.0135,0.1602,0.0264,-0.0143,-0.0183,-2.6605,1.3974,-3.0893
2024-10-11T12:27:37.794Z,-0.0176,-0.9824,0.1558,0.0869,-0.0248,0.1667,0.0250,-0.0067,-0.0194,-2.6591,1.3969,-3.0912
2024-10-11T12:27:37.804Z,-0.0170,-0.9811,0.1595,0.0869,-0.0248,0.1667,0.0250,-0.0060,-0.0183,-2.6591,1.3969,-3.0912
2024-10-11T12:27:37.814Z,-0.0168,-0.9814,0.1603,0.0869,-0.0248,0.1667,0.0295,-0.0028,-0.0161,-2.6591,1.3969,-3.0912
2024-10-11T12:27:37.824Z,-0.0166,-0.9838,0.1612,0.0804,-0.0097,0.1184,0.0305,-0.0014,-0.0134,-2.6576,1.3964,-3.0930
