time,gFx,gFy,gFz,ax,ay,az,wx,wy,wz,yaw,pitch,roll
2024-10-11T12:40:35.144Z,-0.0001,-1.0003,0.1073,0.0597,0.0905,0.0526,0.0159,0.0155,-0.0054,-2.6394,1.4533,2.9940
2024-10-11T12:40:35.152Z,0.0083,-0.9953,0.1117,0.0597,0.0905,0.0526,0.0207,0.0035,-0.0068,-2.6394,1.4533,2.9940
2024-10-11T12:40:35.162Z,0.0090,-0.9881,0.1172,0.0597,0.0905,0.0526,0.0185,0.0004,-0.0051,-2.6394,1.4533,2.9940
2024-10-11T12:40:35.172Z,0.0090,-0.9881,0.1172,0.0625,-0.0412,0.0409,0.0180,0.0014,-0.0016,-2.6390,1.4528,2.9936
2024-10-11T12:40:35.182Z,0.0129,-0.9872,0.1110,0.0625,-0.0412,0.0409,0.0147,0.0021,-0.0026,-2.6390,1.4528,2.9936
2024-10-11T12:40:35.193Z,0.0186,-0.9837,0.1190,0.0625,-0.0412,0.0409,0.0132,0.0021,0.0033,-2.6390,1.4528,2.9936
2024-10-11T12:40:35.202Z,0.0186,-0.9837,0.1190,0.0071,-0.1108,-0.0019,0.0132,0.0014,0.0016,-2.6400,1.4524,2.9944
2024-10-11T12:40:35.212Z,0.0145,-0.9807,0.1216,0.0071,-0.1108,-0.0019,0.0119,-0.0036,0.0029,-2.6400,1.4524,2.9944
2024-10-11T12:40:35.223Z,0.0091,-0.9822,0.1219,0.0071,-0.1108,-0.0019,0.0088,-0.0025,0.0036,-2.6400,1.4524,2.9944
2024-10-11T12:40:35.233Z,0.0091,-0.9822,0.1219,0.0987,-0.1024,-0.0404,0.0093,-0.0072,0.0023,-2.6417,1.4521,2.9958
2024-10-11T12:40:35.242Z,0.0029,-0.9818,0.1150,0.0987,-0.1024,-0.0404,0.0073,-0.0078,0.0006,-2.6417,1.4521,2.9958
2024-10-11T12:40:35.252Z,0.0029,-0.9818,0.1150,0.0987,-0.1024,-0.0404,0.0047,-0.0038,0.0035,-2.6417,1.4521,2.9958
2024-10-11T12:40:35.263Z,-0.0002,-0.9847,0.1189,0.0987,-0.1024,-0.0404,0.0039,-0.0036,0.0012,-2.6417,1.4521,2.9958
2024-10-11T12:40:35.273Z,0.0035,-0.9853,0.1230,0.1659,-0.0576,-0.0138,0.0017,-0.0083,0.0033,-2.6431,1.4520,2.9967
2024-10-11T12:40:35.283Z,0.0035,-0.9853,0.1230,0.1659,-0.0576,-0.0138,0.0015,-0.0077,0.0019,-2.6431,1.4520,2.9967
2024-10-11T12:40:35.293Z,0.0021,-0.9805,0.1232,0.1414,-0.1454,-0.0755,0.0015,-0.0077,0.0019,-2.6435,1.4519,2.9968
2024-10-11T12:40:35.302Z,0.0052,-0.9795,0.1237,0.1414,-0.1454,-0.0755,0.0009,-0.0077,0.0010,-2.6435,1.4519,2.9968
2024-10-11T12:40:35.313Z,0.0077,-0.9808,0.1166,0.1414,-0.1454,-0.0755,-0.0020,-0.0018,-0.0009,-2.6435,1.4519,2.9968
2024-10-11T12:40:35.324Z,0.0046,-0.9835,0.1108,0.1369,-0.0870,0.0554,-0.0050,0.0004,-0.0020,-2.6440,1.4520,2.9970
2024-10-11T12:40:35.333Z,0.0054,-0.9851,0.1139,0.1369,-0.0870,0.0554,-0.0065,0.0034,0.0015,-2.6440,1.4520,2.9970
2024-10-11T12:40:35.342Z,0.0125,-0.9945,0.1201,0.1369,-0.0870,0.0554,-0.0057,0.0011,0.0018,-2.6440,1.4520,2.9970
2024-10-11T12:40:35.353Z,0.0125,-0.9945,0.1201,0.1369,-0.0870,0.0554,-0.0049,0.0077,0.0017,-2.6440,1.4520,2.9970
2024-10-11T12:40:35.363Z,0.0047,-0.9998,0.1142,0.0425,0.0338,-0.0068,-0.0038,0.0110,0.0007,-2.6451,1.4521,2.9978
2024-10-11T12:40:35.373Z,0.0073,-1.0067,0.1183,0.0425,0.0338,-0.0068,-0.0029,0.0146,0.0037,-2.6451,1.4521,2.9978
2024-10-11T12:40:35.384Z,0.0062,-1.0141,0.1158,0.0955,0.1716,-0.0166,-0.0029,0.0146,0.0037,-2.6459,1.4522,2.9988
2024-10-11T12:40:35.393Z,0.0083,-1.0158,0.1195,0.0955,0.1716,-0.0166,-0.0063,0.0241,0.0014,-2.6459,1.4522,2.9988
2024-10-11T12:40:35.403Z,0.0083,-1.0158,0.1195,0.0955,0.1716,-0.0166,-0.0066,0.0269,0.0011,-2.6459,1.4522,2.9988
2024-10-11T12:40:35.413Z,0.0071,-1.0136,0.1232,0.1023,0.1874,-0.0603,-0.0052,0.0279,0.0004,-2.6465,1.4524,2.9999
2024-10-11T12:40:35.422Z,0.0070,-1.0102,0.1214,0.1023,0.1874,-0.0603,-0.0043,0.0274,0.0026,-2.6465,1.4524,2.9999
2024-10-11T12:40:35.433Z,0.0090,-1.0086,0.1238,0.1023,0.1874,-0.0603,-0.0037,0.0286,-0.0021,-2.6465,1.4524,2.9999
2024-10-11T12:40:35.443Z,0.0042,-1.0097,0.1162,0.1463,0.1648,0.0451,-0.0028,0.0331,-0.0012,-2.6467,1.4525,3.0008
2024-10-11T12:40:35.452Z,0.0029,-1.0086,0.1099,0.1463,0.1648,0.0451,-0.0063,0.0361,0.0015,-2.6467,1.4525,3.0008
2024-10-11T12:40:35.463Z,0.0183,-1.0043,0.1165,0.1463,0.1648,0.0451,-0.0012,0.0349,0.0007,-2.6467,1.4525,3.0008
2024-10-11T12:40:35.474Z,0.0183,-1.0043,0.1165,-0.0080,0.0936,-0.0069,-0.0037,0.0396,0.0007,-2.6471,1.4526,3.0021
2024-10-11T12:40:35.483Z,0.0158,-1.0015,0.1192,-0.0080,0.0936,-0.0069,-0.0025,0.0411,-0.0002,-2.6471,1.4526,3.0021
2024-10-11T12:40:35.493Z,0.0253,-0.9982,0.1275,-0.0080,0.0936,-0.0069,-0.0028,0.0415,0.0046,-2.6471,1.4526,3.0021
2024-10-11T12:40:35.503Z,0.0253,-0.9982,0.1275,-0.0749,0.0344,-0.0894,-0.0028,0.0415,0.0046,-2.6481,1.4527,3.0041
2024-10-11T12:40:35.513Z,0.0234,-0.9960,0.1239,-0.0749,0.0344,-0.0894,-0.0043,0.0427,0.0029,-2.6481,1.4527,3.0041
2024-10-11T12:40:35.523Z,0.0243,-0.9928,0.1260,-0.0749,0.0344,-0.0894,-0.0076,0.0457,0.0066,-2.6481,1.4527,3.0041
2024-10-11T12:40:35.535Z,0.0243,-0.9928,0.1260,-0.1024,-0.0034,-0.0577,-0.0063,0.0430,0.0053,-2.6496,1.4529,3.0067
2024-10-11T12:40:35.542Z,0.0254,-0.9937,0.1228,-0.1024,-0.0034,-0.0577,-0.0071,0.0413,0.0067,-2.6496,1.4529,3.0067
2024-10-11T12:40:35.552Z,0.0254,-0.9937,0.1228,-0.1024,-0.0034,-0.0577,-0.0106,0.0408,0.0060,-2.6496,1.4529,3.0067
2024-10-11T12:40:35.563Z,0.0220,-0.9955,0.1210,-0.0687,0.0301,-0.0183,-0.0103,0.0366,0.0071,-2.6511,1.4531,3.0090
2024-10-11T12:40:35.573Z,0.0212,-0.9927,0.1274,-0.0687,0.0301,-0.0183,-0.0155,0.0376,0.0067,-2.6511,1.4531,3.0090
2024-10-11T12:40:35.583Z,0.0193,-0.9932,0.1314,-0.0687,0.0301,-0.0183,-0.0172,0.0360,0.0041,-2.6511,1.4531,3.0090
2024-10-11T12:40:35.593Z,0.0193,-0.9932,0.1314,-0.0472,-0.0092,-0.1589,-0.0183,0.0288,0.0055,-2.6520,1.4536,3.0106
2024-10-11T12:40:35.603Z,0.0180,-0.9959,0.1334,-0.0472,-0.0092,-0.1589,-0.0194,0.0231,0.0019,-2.6520,1.4536,3.0106
2024-10-11T12:40:35.612Z,0.0192,-0.9989,0.1345,-0.0472,-0.0092,-0.1589,-0.0206,0.0171,0.0022,-2.6520,1.4536,3.0106
2024-10-11T12:40:35.623Z,0.0192,-0.9989,0.1345,-0.0257,0.0585,-0.1854,-0.0215,0.0141,0.0008,-2.6520,1.4542,3.0111
2024-10-11T12:40:35.634Z,0.0105,-0.9995,0.1223,-0.0257,0.0585,-0.1854,-0.0233,0.0156,-0.0000,-2.6520,1.4542,3.0111
2024-10-11T12:40:35.642Z,0.0054,-1.0006,0.1160,-0.0257,0.0585,-0.1854,-0.0242,0.0145,-0.0016,-2.6520,1.4542,3.0111
2024-10-11T12:40:35.653Z,0.0054,-1.0006,0.1160,0.1315,0.0698,-0.0052,-0.0202,0.0090,-0.0048,-2.6508,1.4549,3.0099
2024-10-11T12:40:35.663Z,0.0077,-0.9956,0.1034,0.1315,0.0698,-0.0052,-0.0196,0.0034,-0.0075,-2.6508,1.4549,3.0099
2024-10-11T12:40:35.672Z,0.0104,-0.9901,0.1044,0.1315,0.0698,-0.0052,-0.0165,-0.0040,-0.0064,-2.6508,1.4549,3.0099
2024-10-11T12:40:35.684Z,0.0104,-0.9901,0.1044,0.0518,-0.0766,0.0877,-0.0174,-0.0069,-0.0104,-2.6485,1.4553,3.0073
2024-10-11T12:40:35.692Z,0.0096,-0.9800,0.1128,0.0518,-0.0766,0.0877,-0.0163,-0.0076,-0.0084,-2.6485,1.4553,3.0073
2024-10-11T12:40:35.702Z,0.0128,-0.9754,0.1097,0.0518,-0.0766,0.0877,-0.0190,-0.0055,-0.0133,-2.6485,1.4553,3.0073
2024-10-11T12:40:35.712Z,0.0128,-0.9754,0.1097,0.0144,-0.1763,0.0498,-0.0190,-0.0055,-0.0133,-2.6453,1.4557,3.0036
2024-10-11T12:40:35.722Z,0.0167,-0.9742,0.1109,0.0144,-0.1763,0.0498,-0.0177,-0.0039,-0.0127,-2.6453,1.4557,3.0036
2024-10-11T12:40:35.735Z,0.0143,-0.9782,0.1098,0.0144,-0.1763,0.0498,-0.0170,-0.0061,-0.0129,-2.6453,1.4557,3.0036
2024-10-11T12:40:35.743Z,0.0143,-0.9782,0.1098,0.0184,-0.1401,0.0441,-0.0149,-0.0090,-0.0105,-2.6421,1.4562,3.0000
2024-10-11T12:40:35.753Z,0.0104,-0.9798,0.1065,0.0184,-0.1401,0.0441,-0.0143,-0.0071,-0.0149,-2.6421,1.4562,3.0000
2024-10-11T12:40:35.763Z,0.0071,-0.9805,0.1060,0.0184,-0.1401,0.0441,-0.0132,-0.0069,-0.0152,-2.6421,1.4562,3.0000
2024-10-11T12:40:35.773Z,0.0096,-0.9826,0.1068,0.0775,-0.1204,0.0657,-0.0141,-0.0059,-0.0168,-2.6378,1.4565,2.9953
2024-10-11T12:40:35.784Z,0.0081,-0.9856,0.1001,0.0775,-0.1204,0.0657,-0.0106,-0.0079,-0.0215,-2.6378,1.4565,2.9953
2024-10-11T12:40:35.792Z,0.0040,-0.9856,0.1045,0.0775,-0.1204,0.0657,-0.0091,-0.0115,-0.0216,-2.6378,1.4565,2.9953
2024-10-11T12:40:35.803Z,0.0040,-0.9856,0.1045,0.1285,-0.0850,0.0688,-0.0100,-0.0112,-0.0229,-2.6323,1.4567,2.9893
2024-10-11T12:40:35.812Z,0.0030,-0.9883,0.1100,0.1285,-0.0850,0.0688,-0.0075,-0.0128,-0.0241,-2.6323,1.4567,2.9893
2024-10-11T12:40:35.823Z,0.0054,-0.9911,0.1094,0.1285,-0.0850,0.0688,-0.0064,-0.0132,-0.0268,-2.6323,1.4567,2.9893
2024-10-11T12:40:35.834Z,0.0054,-0.9911,0.1094,0.1277,0.0010,0.0479,-0.0051,-0.0085,-0.0251,-2.6258,1.4568,2.9823
2024-10-11T12:40:35.843Z,0.0107,-0.9951,0.1121,0.1277,0.0010,0.0479,-0.0036,-0.0060,-0.0266,-2.6258,1.4568,2.9823
2024-10-11T12:40:35.853Z,0.0176,-0.9982,0.1196,0.1277,0.0010,0.0479,-0.0025,-0.0064,-0.0250,-2.6258,1.4568,2.9823
2024-10-11T12:40:35.863Z,0.0176,-0.9982,0.1196,0.0102,0.0534,-0.1151,-0.0032,-0.0009,-0.0241,-2.6194,1.4567,2.9755
2024-10-11T12:40:35.872Z,0.0237,-0.9984,0.1331,0.0102,0.0534,-0.1151,-0.0023,0.0038,-0.0225,-2.6194,1.4567,2.9755
2024-10-11T12:40:35.883Z,0.0272,-0.9988,0.1352,0.0102,0.0534,-0.1151,-0.0054,0.0054,-0.0249,-2.6194,1.4567,2.9755
2024-10-11T12:40:35.893Z,0.0272,-0.9988,0.1352,-0.0794,0.0574,-0.2514,-0.0022,0.0112,-0.0193,-2.6140,1.4568,2.9701
2024-10-11T12:40:35.903Z,0.0359,-1.0044,0.1352,-0.0794,0.0574,-0.2514,-0.0031,0.0172,-0.0167,-2.6140,1.4568,2.9701
2024-10-11T12:40:35.912Z,0.0350,-1.0032,0.1321,-0.0794,0.0574,-0.2514,-0.0069,0.0248,-0.0148,-2.6140,1.4568,2.9701
2024-10-11T12:40:35.923Z,0.0350,-1.0032,0.1321,-0.1474,0.0694,-0.2215,-0.0050,0.0217,-0.0125,-2.6108,1.4568,2.9672
2024-10-11T12:40:35.933Z,0.0398,-0.9972,0.1319,-0.1474,0.0694,-0.2215,-0.0049,0.0238,-0.0090,-2.6108,1.4568,2.9672
2024-10-11T12:40:35.943Z,0.0471,-0.9950,0.1357,-0.1474,0.0694,-0.2215,-0.0027,0.0229,-0.0066,-2.6108,1.4568,2.9672
2024-10-11T12:40:35.953Z,0.0471,-0.9950,0.1357,-0.2673,0.0283,-0.2386,-0.0057,0.0294,-0.0041,-2.6092,1.4569,2.9662
2024-10-11T12:40:35.963Z,0.0386,-0.9993,0.1296,-0.2673,0.0283,-0.2386,-0.0081,0.0330,0.0013,-2.6092,1.4569,2.9662
2024-10-11T12:40:35.972Z,0.0364,-1.0015,0.1301,-0.2673,0.0283,-0.2386,-0.0079,0.0334,0.0010,-2.6092,1.4569,2.9662
2024-10-11T12:40:35.985Z,0.0331,-1.0004,0.1315,-0.1397,0.0797,-0.1943,-0.0109,0.0293,0.0032,-2.6093,1.4570,2.9669
2024-10-11T12:40:35.992Z,0.0278,-0.9993,0.1337,-0.1397,0.0797,-0.1943,-0.0083,0.0291,0.0029,-2.6093,1.4570,2.9669
2024-10-11T12:40:36.002Z,0.0298,-0.9984,0.1313,-0.1397,0.0797,-0.1943,-0.0097,0.0201,0.0034,-2.6093,1.4570,2.9669
2024-10-11T12:40:36.013Z,0.0323,-0.9960,0.1323,-0.1281,0.0339,-0.2043,-0.0115,0.0194,0.0037,-2.6098,1.4573,2.9678
2024-10-11T12:40:36.023Z,0.0319,-0.9987,0.1259,-0.1281,0.0339,-0.2043,-0.0117,0.0201,0.0063,-2.6098,1.4573,2.9678
2024-10-11T12:40:36.033Z,0.0368,-0.9955,0.1179,-0.1281,0.0339,-0.2043,-0.0116,0.0159,0.0089,-2.6098,1.4573,2.9678
2024-10-11T12:40:36.043Z,0.0299,-0.9884,0.1160,-0.1424,-0.0157,-0.0529,-0.0125,0.0127,0.0103,-2.6113,1.4576,2.9695
2024-10-11T12:40:36.053Z,0.0324,-0.9811,0.1099,-0.1424,-0.0157,-0.0529,-0.0088,0.0118,0.0115,-2.6113,1.4576,2.9695
2024-10-11T12:40:36.063Z,0.0325,-0.9828,0.1115,-0.1424,-0.0157,-0.0529,-0.0090,0.0054,0.0097,-2.6113,1.4576,2.9695
2024-10-11T12:40:36.073Z,0.0303,-0.9835,0.1142,-0.1327,-0.0965,-0.0207,-0.0063,0.0059,0.0124,-2.6140,1.4578,2.9722
2024-10-11T12:40:36.083Z,0.0282,-0.9850,0.1086,-0.1327,-0.0965,-0.0207,-0.0058,0.0055,0.0141,-2.6140,1.4578,2.9722
2024-10-11T12:40:36.093Z,0.0264,-0.9841,0.1100,-0.1327,-0.0965,-0.0207,-0.0069,0.0051,0.0169,-2.6140,1.4578,2.9722
2024-10-11T12:40:36.103Z,0.0264,-0.9841,0.1100,-0.0758,-0.0925,-0.0027,-0.0069,0.0051,0.0169,-2.6174,1.4580,2.9754
2024-10-11T12:40:36.113Z,0.0256,-0.9810,0.1131,-0.0758,-0.0925,-0.0027,-0.0075,-0.0009,0.0149,-2.6174,1.4580,2.9754
2024-10-11T12:40:36.123Z,0.0190,-0.9829,0.1115,-0.0758,-0.0925,-0.0027,-0.0053,0.0023,0.0145,-2.6174,1.4580,2.9754
2024-10-11T12:40:36.133Z,0.0254,-0.9886,0.1108,-0.0151,-0.0700,0.0095,-0.0068,0.0000,0.0163,-2.6211,1.4582,2.9790
2024-10-11T12:40:36.142Z,0.0180,-0.9901,0.1088,-0.0151,-0.0700,0.0095,-0.0052,0.0020,0.0161,-2.6211,1.4582,2.9790
2024-10-11T12:40:36.153Z,0.0104,-0.9966,0.1057,-0.0151,-0.0700,0.0095,-0.0060,0.0027,0.0159,-2.6211,1.4582,2.9790
2024-10-11T12:40:36.163Z,0.0110,-0.9966,0.1093,0.0498,0.0320,0.0252,-0.0039,0.0036,0.0136,-2.6249,1.4583,2.9826
2024-10-11T12:40:36.173Z,0.0035,-0.9937,0.1075,0.0498,0.0320,0.0252,-0.0020,0.0051,0.0138,-2.6249,1.4583,2.9826
2024-10-11T12:40:36.182Z,0.0105,-0.9915,0.1081,0.0498,0.0320,0.0252,-0.0056,0.0031,0.0090,-2.6249,1.4583,2.9826
2024-10-11T12:40:36.193Z,0.0110,-0.9903,0.1146,0.0477,-0.0358,-0.0214,-0.0065,0.0006,0.0110,-2.6280,1.4585,2.9854
2024-10-11T12:40:36.203Z,0.0113,-0.9909,0.1161,0.0477,-0.0358,-0.0214,-0.0060,0.0033,0.0109,-2.6280,1.4585,2.9854
2024-10-11T12:40:36.213Z,0.0072,-0.9922,0.1161,0.0477,-0.0358,-0.0214,-0.0067,0.0021,0.0072,-2.6280,1.4585,2.9854
2024-10-11T12:40:36.222Z,0.0087,-0.9920,0.1161,0.0998,-0.0134,-0.0676,-0.0062,0.0040,0.0082,-2.6299,1.4587,2.9871
2024-10-11T12:40:36.233Z,0.0073,-0.9950,0.1116,0.0998,-0.0134,-0.0676,-0.0071,0.0039,0.0073,-2.6299,1.4587,2.9871
2024-10-11T12:40:36.242Z,0.0083,-0.9973,0.1042,0.0998,-0.0134,-0.0676,-0.0091,0.0050,0.0043,-2.6299,1.4587,2.9871
2024-10-11T12:40:36.253Z,0.0083,-0.9973,0.1042,0.0513,0.0467,0.0994,-0.0062,0.0045,0.0036,-2.6315,1.4589,2.9886
2024-10-11T12:40:36.263Z,0.0135,-1.0001,0.0965,0.0513,0.0467,0.0994,-0.0040,0.0055,0.0027,-2.6315,1.4589,2.9886
2024-10-11T12:40:36.273Z,0.0132,-0.9958,0.0963,0.0513,0.0467,0.0994,-0.0033,0.0094,0.0033,-2.6315,1.4589,2.9886
2024-10-11T12:40:36.283Z,0.0171,-0.9928,0.0974,0.0352,0.0079,0.1367,-0.0067,0.0114,0.0032,-2.6327,1.4590,2.9898
2024-10-11T12:40:36.293Z,0.0153,-0.9914,0.0972,0.0352,0.0079,0.1367,-0.0048,0.0136,0.0004,-2.6327,1.4590,2.9898
2024-10-11T12:40:36.302Z,0.0114,-0.9886,0.0987,0.0352,0.0079,0.1367,-0.0057,0.0146,-0.0001,-2.6327,1.4590,2.9898
2024-10-11T12:40:36.312Z,0.0178,-0.9871,0.1070,0.0361,-0.0652,0.0779,-0.0028,0.0156,-0.0012,-2.6332,1.4591,2.9905
2024-10-11T12:40:36.323Z,0.0201,-0.9860,0.1095,0.0361,-0.0652,0.0779,-0.0054,0.0109,-0.0025,-2.6332,1.4591,2.9905
2024-10-11T12:40:36.333Z,0.0219,-0.9887,0.1069,0.0361,-0.0652,0.0779,-0.0059,0.0148,-0.0010,-2.6332,1.4591,2.9905
2024-10-11T12:40:36.343Z,0.0207,-0.9852,0.1089,-0.0475,-0.0626,0.0219,-0.0066,0.0204,-0.0001,-2.6335,1.4593,2.9910
2024-10-11T12:40:36.353Z,0.0238,-0.9877,0.1126,-0.0475,-0.0626,0.0219,-0.0065,0.0201,0.0015,-2.6335,1.4593,2.9910
2024-10-11T12:40:36.363Z,0.0170,-0.9896,0.1131,-0.0475,-0.0626,0.0219,-0.0074,0.0191,0.0003,-2.6335,1.4593,2.9910
2024-10-11T12:40:36.372Z,0.0188,-0.9893,0.1120,0.0017,-0.0537,-0.0248,-0.0065,0.0182,-0.0013,-2.6335,1.4595,2.9914
2024-10-11T12:40:36.383Z,0.0231,-0.9897,0.1076,0.0017,-0.0537,-0.0248,-0.0060,0.0156,-0.0019,-2.6335,1.4595,2.9914
2024-10-11T12:40:36.393Z,0.0175,-0.9912,0.1109,0.0017,-0.0537,-0.0248,-0.0053,0.0171,-0.0009,-2.6335,1.4595,2.9914
2024-10-11T12:40:36.403Z,0.0207,-0.9910,0.1052,-0.0323,-0.0274,0.0325,-0.0069,0.0201,-0.0026,-2.6330,1.4597,2.9911
2024-10-11T12:40:36.412Z,0.0147,-0.9920,0.1042,-0.0323,-0.0274,0.0325,-0.0038,0.0218,-0.0027,-2.6330,1.4597,2.9911
2024-10-11T12:40:36.422Z,0.0159,-0.9932,0.1004,-0.0323,-0.0274,0.0325,-0.0053,0.0188,-0.0055,-2.6330,1.4597,2.9911
2024-10-11T12:40:36.433Z,0.0164,-0.9919,0.0969,0.0136,-0.0119,0.0897,-0.0020,0.0159,-0.0044,-2.6317,1.4598,2.9902
2024-10-11T12:40:36.443Z,0.0246,-0.9915,0.0924,0.0136,-0.0119,0.0897,-0.0013,0.0172,-0.0029,-2.6317,1.4598,2.9902
2024-10-11T12:40:36.453Z,0.0292,-0.9901,0.0918,0.0136,-0.0119,0.0897,0.0004,0.0204,-0.0012,-2.6317,1.4598,2.9902
2024-10-11T12:40:36.462Z,0.0311,-0.9908,0.0983,-0.1325,-0.0291,0.1331,0.0057,0.0216,0.0007,-2.6311,1.4598,2.9899
2024-10-11T12:40:36.472Z,0.0293,-0.9913,0.0971,-0.1325,-0.0291,0.1331,0.0058,0.0234,0.0015,-2.6311,1.4598,2.9899
2024-10-11T12:40:36.483Z,0.0262,-0.9945,0.0934,-0.1325,-0.0291,0.1331,0.0066,0.0238,0.0009,-2.6311,1.4598,2.9899
2024-10-11T12:40:36.492Z,0.0251,-1.0000,0.0999,-0.0774,0.0361,0.1291,0.0089,0.0202,0.0007,-2.6317,1.4596,2.9909
2024-10-11T12:40:36.502Z,0.0246,-1.0038,0.1064,-0.0774,0.0361,0.1291,0.0113,0.0210,0.0035,-2.6317,1.4596,2.9909
2024-10-11T12:40:36.513Z,0.0268,-1.0028,0.1080,-0.0774,0.0361,0.1291,0.0091,0.0214,0.0056,-2.6317,1.4596,2.9909
2024-10-11T12:40:36.522Z,0.0160,-1.0020,0.1060,-0.0679,0.0867,0.0037,0.0104,0.0229,0.0032,-2.6332,1.4594,2.9928
2024-10-11T12:40:36.532Z,0.0102,-1.0008,0.1049,-0.0679,0.0867,0.0037,0.0101,0.0225,0.0044,-2.6332,1.4594,2.9928
2024-10-11T12:40:36.542Z,0.0136,-0.9986,0.1061,-0.0679,0.0867,0.0037,0.0107,0.0206,-0.0003,-2.6332,1.4594,2.9928
2024-10-11T12:40:36.553Z,0.0141,-0.9995,0.1073,0.0229,0.0592,0.0532,0.0060,0.0226,-0.0001,-2.6335,1.4591,2.9935
2024-10-11T12:40:36.563Z,0.0143,-0.9952,0.1089,0.0229,0.0592,0.0532,0.0086,0.0171,-0.0010,-2.6335,1.4591,2.9935
2024-10-11T12:40:36.573Z,0.0128,-0.9913,0.1219,0.0229,0.0592,0.0532,0.0026,0.0186,-0.0016,-2.6335,1.4591,2.9935
2024-10-11T12:40:36.583Z,0.0188,-0.9928,0.1242,-0.0071,-0.0127,-0.1184,0.0011,0.0211,0.0013,-2.6335,1.4590,2.9939
2024-10-11T12:40:36.593Z,0.0133,-0.9970,0.1240,-0.0071,-0.0127,-0.1184,-0.0005,0.0223,0.0012,-2.6335,1.4590,2.9939
2024-10-11T12:40:36.602Z,0.0155,-1.0013,0.1256,-0.0071,-0.0127,-0.1184,-0.0036,0.0281,0.0009,-2.6335,1.4590,2.9939
2024-10-11T12:40:36.613Z,0.0237,-1.0057,0.1286,-0.0298,0.0920,-0.1532,-0.0040,0.0229,0.0006,-2.6337,1.4590,2.9944
2024-10-11T12:40:36.623Z,0.0199,-1.0070,0.1273,-0.0298,0.0920,-0.1532,-0.0068,0.0241,0.0022,-2.6337,1.4590,2.9944
2024-10-11T12:40:36.632Z,0.0190,-1.0051,0.1252,-0.0298,0.0920,-0.1532,-0.0076,0.0233,0.0016,-2.6337,1.4590,2.9944
2024-10-11T12:40:36.643Z,0.0185,-1.0019,0.1205,-0.0439,0.0905,-0.1039,-0.0098,0.0260,0.0045,-2.6341,1.4592,2.9953
2024-10-11T12:40:36.652Z,0.0172,-1.0025,0.1148,-0.0439,0.0905,-0.1039,-0.0118,0.0312,0.0023,-2.6341,1.4592,2.9953
2024-10-11T12:40:36.662Z,0.0230,-1.0021,0.1138,-0.0439,0.0905,-0.1039,-0.0118,0.0293,0.0041,-2.6341,1.4592,2.9953
2024-10-11T12:40:36.673Z,0.0231,-1.0024,0.1119,-0.0839,0.0779,-0.0257,-0.0123,0.0322,0.0030,-2.6348,1.4595,2.9966
2024-10-11T12:40:36.683Z,0.0192,-0.9978,0.1205,-0.0839,0.0779,-0.0257,-0.0134,0.0297,0.0026,-2.6348,1.4595,2.9966
2024-10-11T12:40:36.693Z,0.0255,-0.9917,0.1216,-0.0839,0.0779,-0.0257,-0.0173,0.0269,0.0034,-2.6348,1.4595,2.9966
2024-10-11T12:40:36.704Z,0.0213,-0.9911,0.1273,-0.1026,-0.0379,-0.1719,-0.0183,0.0249,0.0028,-2.6355,1.4599,2.9978
2024-10-11T12:40:36.712Z,0.0134,-0.9935,0.1275,-0.1026,-0.0379,-0.1719,-0.0195,0.0218,0.0031,-2.6355,1.4599,2.9978
2024-10-11T12:40:36.723Z,0.0141,-0.9964,0.1216,-0.1026,-0.0379,-0.1719,-0.0233,0.0207,0.0008,-2.6355,1.4599,2.9978
2024-10-11T12:40:36.733Z,0.0135,-0.9968,0.1211,0.0239,0.0224,-0.1310,-0.0191,0.0186,-0.0002,-2.6353,1.4604,2.9980
2024-10-11T12:40:36.743Z,0.0152,-0.9953,0.1140,0.0239,0.0224,-0.1310,-0.0232,0.0154,-0.0020,-2.6353,1.4604,2.9980
2024-10-11T12:40:36.753Z,0.0115,-0.9946,0.1163,0.0239,0.0224,-0.1310,-0.0237,0.0104,-0.0011,-2.6353,1.4604,2.9980
2024-10-11T12:40:36.762Z,0.0172,-0.9908,0.1151,0.0267,-0.0017,-0.0869,-0.0241,0.0067,-0.0042,-2.6342,1.4611,2.9971
2024-10-11T12:40:36.773Z,0.0165,-0.9913,0.1104,0.0267,-0.0017,-0.0869,-0.0245,0.0091,-0.0031,-2.6342,1.4611,2.9971
2024-10-11T12:40:36.783Z,0.0134,-0.9890,0.1000,0.0267,-0.0017,-0.0869,-0.0238,0.0072,-0.0030,-2.6342,1.4611,2.9971
2024-10-11T12:40:36.792Z,0.0156,-0.9848,0.0997,0.0109,-0.0725,0.0812,-0.0241,0.0058,-0.0033,-2.6324,1.4617,2.9953
2024-10-11T12:40:36.802Z,0.0138,-0.9835,0.1000,0.0109,-0.0725,0.0812,-0.0227,0.0028,-0.0058,-2.6324,1.4617,2.9953
2024-10-11T12:40:36.813Z,0.0173,-0.9829,0.1023,0.0109,-0.0725,0.0812,-0.0190,-0.0011,-0.0022,-2.6324,1.4617,2.9953
2024-10-11T12:40:36.822Z,0.0161,-0.9810,0.0957,-0.0203,-0.1122,0.1061,-0.0195,-0.0013,-0.0040,-2.6308,1.4623,2.9935
2024-10-11T12:40:36.833Z,0.0135,-0.9781,0.0979,-0.0203,-0.1122,0.1061,-0.0204,0.0000,-0.0033,-2.6308,1.4623,2.9935
2024-10-11T12:40:36.842Z,0.0096,-0.9767,0.0971,-0.0203,-0.1122,0.1061,-0.0183,0.0032,-0.0044,-2.6308,1.4623,2.9935
2024-10-11T12:40:36.853Z,0.0153,-0.9771,0.0878,0.0402,-0.1657,0.1463,-0.0161,0.0037,-0.0044,-2.6290,1.4627,2.9915
2024-10-11T12:40:36.863Z,0.0092,-0.9765,0.0854,0.0402,-0.1657,0.1463,-0.0132,0.0043,-0.0068,-2.6290,1.4627,2.9915
2024-10-11T12:40:36.873Z,0.0133,-0.9771,0.0853,0.0402,-0.1657,0.1463,-0.0100,0.0002,-0.0050,-2.6290,1.4627,2.9915
2024-10-11T12:40:36.882Z,0.0172,-0.9750,0.0894,-0.0150,-0.1878,0.1788,-0.0065,-0.0036,-0.0063,-2.6273,1.4630,2.9895
2024-10-11T12:40:36.892Z,0.0074,-0.9771,0.0855,-0.0150,-0.1878,0.1788,-0.0029,-0.0019,-0.0089,-2.6273,1.4630,2.9895
2024-10-11T12:40:36.902Z,0.0080,-0.9792,0.0815,-0.0150,-0.1878,0.1788,-0.0009,-0.0073,-0.0090,-2.6273,1.4630,2.9895
2024-10-11T12:40:36.913Z,0.0113,-0.9855,0.0825,0.0526,-0.1085,0.2482,0.0034,-0.0066,-0.0097,-2.6251,1.4630,2.9869
2024-10-11T12:40:36.922Z,0.0103,-0.9877,0.0862,0.0526,-0.1085,0.2482,0.0079,-0.0075,-0.0100,-2.6251,1.4630,2.9869
2024-10-11T12:40:36.933Z,0.0114,-0.9904,0.0884,0.0526,-0.1085,0.2482,0.0104,-0.0093,-0.0109,-2.6251,1.4630,2.9869
2024-10-11T12:40:36.943Z,0.0108,-0.9942,0.0950,0.0607,-0.0140,0.1397,0.0123,-0.0123,-0.0121,-2.6231,1.4627,2.9844
2024-10-11T12:40:36.952Z,0.0090,-0.9911,0.1036,0.0607,-0.0140,0.1397,0.0144,-0.0101,-0.0121,-2.6231,1.4627,2.9844
2024-10-11T12:40:36.963Z,0.0037,-0.9923,0.1053,0.0607,-0.0140,0.1397,0.0126,-0.0088,-0.0105,-2.6231,1.4627,2.9844
2024-10-11T12:40:36.972Z,0.0037,-0.9923,0.1053,0.1041,-0.0147,0.0135,0.0164,-0.0121,-0.0141,-2.6206,1.4624,2.9812
2024-10-11T12:40:36.982Z,0.0108,-0.9975,0.0981,0.1041,-0.0147,0.0135,0.0139,-0.0084,-0.0142,-2.6206,1.4624,2.9812
2024-10-11T12:40:36.992Z,0.0115,-0.9985,0.0992,0.1041,-0.0147,0.0135,0.0158,-0.0097,-0.0136,-2.6206,1.4624,2.9812
2024-10-11T12:40:37.003Z,0.0107,-1.0016,0.1036,0.0900,0.0571,0.0913,0.0188,-0.0120,-0.0138,-2.6182,1.4619,2.9784
2024-10-11T12:40:37.012Z,0.0137,-1.0031,0.1058,0.0900,0.0571,0.0913,0.0182,-0.0130,-0.0162,-2.6182,1.4619,2.9784
2024-10-11T12:40:37.022Z,0.0085,-1.0058,0.1038,0.0900,0.0571,0.0913,0.0197,-0.0108,-0.0161,-2.6182,1.4619,2.9784
2024-10-11T12:40:37.033Z,0.0092,-1.0064,0.1077,0.1011,0.1225,0.0394,0.0204,-0.0114,-0.0150,-2.6153,1.4613,2.9750
2024-10-11T12:40:37.043Z,0.0171,-1.0044,0.1140,0.1011,0.1225,0.0394,0.0203,-0.0101,-0.0167,-2.6153,1.4613,2.9750
2024-10-11T12:40:37.052Z,0.0240,-1.0032,0.1150,0.1011,0.1225,0.0394,0.0195,-0.0112,-0.0140,-2.6153,1.4613,2.9750
2024-10-11T12:40:37.063Z,0.0256,-1.0005,0.1238,-0.0811,0.0719,-0.1037,0.0176,-0.0092,-0.0137,-2.6131,1.4607,2.9722
2024-10-11T12:40:37.072Z,0.0225,-1.0017,0.1229,-0.0811,0.0719,-0.1037,0.0149,-0.0098,-0.0123,-2.6131,1.4607,2.9722
2024-10-11T12:40:37.083Z,0.0262,-0.9965,0.1191,-0.0811,0.0719,-0.1037,0.0147,-0.0087,-0.0079,-2.6131,1.4607,2.9722
2024-10-11T12:40:37.093Z,0.0309,-0.9965,0.1244,-0.1067,0.0227,-0.1369,0.0130,-0.0066,-0.0091,-2.6113,1.4602,2.9699
2024-10-11T12:40:37.103Z,0.0261,-0.9980,0.1253,-0.1067,0.0227,-0.1369,0.0097,-0.0043,-0.0087,-2.6113,1.4602,2.9699
2024-10-11T12:40:37.113Z,0.0285,-0.9964,0.1263,-0.1067,0.0227,-0.1369,0.0085,-0.0067,-0.0040,-2.6113,1.4602,2.9699
2024-10-11T12:40:37.122Z,0.0316,-0.9970,0.1245,-0.1204,0.0238,-0.2006,0.0078,-0.0091,-0.0058,-2.6106,1.4598,2.9687
2024-10-11T12:40:37.132Z,0.0234,-1.0008,0.1247,-0.1204,0.0238,-0.2006,0.0068,-0.0069,-0.0013,-2.6106,1.4598,2.9687
2024-10-11T12:40:37.142Z,0.0276,-0.9996,0.1247,-0.1204,0.0238,-0.2006,0.0051,-0.0086,-0.0025,-2.6106,1.4598,2.9687
2024-10-11T12:40:37.152Z,0.0234,-0.9986,0.1278,-0.0695,0.0479,-0.1819,0.0046,-0.0059,-0.0026,-2.6107,1.4596,2.9684
2024-10-11T12:40:37.162Z,0.0286,-0.9992,0.1259,-0.0695,0.0479,-0.1819,0.0031,-0.0022,-0.0005,-2.6107,1.4596,2.9684
2024-10-11T12:40:37.172Z,0.0336,-0.9970,0.1200,-0.0695,0.0479,-0.1819,0.0009,-0.0020,0.0022,-2.6107,1.4596,2.9684
2024-10-11T12:40:37.182Z,0.0305,-0.9971,0.1124,-0.1189,0.0446,-0.0628,0.0006,-0.0029,0.0032,-2.6114,1.4595,2.9686
2024-10-11T12:40:37.192Z,0.0333,-0.9953,0.1183,-0.1189,0.0446,-0.0628,0.0032,-0.0027,0.0064,-2.6114,1.4595,2.9686
2024-10-11T12:40:37.202Z,0.0363,-0.9930,0.1190,-0.1189,0.0446,-0.0628,-0.0006,-0.0004,0.0084,-2.6114,1.4595,2.9686
2024-10-11T12:40:37.212Z,0.0418,-0.9894,0.1200,-0.2119,-0.0256,-0.0787,-0.0002,0.0008,0.0115,-2.6134,1.4594,2.9704
2024-10-11T12:40:37.222Z,0.0296,-0.9918,0.1200,-0.2119,-0.0256,-0.0787,-0.0035,-0.0011,0.0114,-2.6134,1.4594,2.9704
2024-10-11T12:40:37.233Z,0.0283,-0.9952,0.1204,-0.2119,-0.0256,-0.0787,-0.0053,0.0015,0.0130,-2.6134,1.4594,2.9704
2024-10-11T12:40:37.243Z,0.0271,-0.9947,0.1221,-0.1033,0.0140,-0.0728,-0.0079,0.0052,0.0160,-2.6171,1.4595,2.9738
2024-10-11T12:40:37.252Z,0.0243,-0.9961,0.1168,-0.1033,0.0140,-0.0728,-0.0064,-0.0010,0.0145,-2.6171,1.4595,2.9738
2024-10-11T12:40:37.263Z,0.0183,-0.9943,0.1162,-0.1033,0.0140,-0.0728,-0.0075,-0.0025,0.0157,-2.6171,1.4595,2.9738
2024-10-11T12:40:37.272Z,0.0181,-0.9920,0.1188,0.0036,-0.0134,-0.0389,-0.0098,-0.0015,0.0133,-2.6205,1.4597,2.9770
2024-10-11T12:40:37.282Z,0.0107,-0.9880,0.1130,0.0036,-0.0134,-0.0389,-0.0098,0.0024,0.0132,-2.6205,1.4597,2.9770
2024-10-11T12:40:37.292Z,0.0112,-0.9878,0.1128,0.0036,-0.0134,-0.0389,-0.0063,0.0007,0.0149,-2.6205,1.4597,2.9770
2024-10-11T12:40:37.304Z,0.0189,-0.9871,0.1159,0.0141,-0.0719,-0.0329,-0.0093,0.0012,0.0139,-2.6234,1.4600,2.9796
2024-10-11T12:40:37.312Z,0.0168,-0.9846,0.1154,0.0141,-0.0719,-0.0329,-0.0086,0.0032,0.0124,-2.6234,1.4600,2.9796
2024-10-11T12:40:37.323Z,0.0268,-0.9877,0.1096,0.0141,-0.0719,-0.0329,-0.0069,0.0017,0.0148,-2.6234,1.4600,2.9796
2024-10-11T12:40:37.333Z,0.0181,-0.9938,0.1061,-0.0655,-0.0329,0.0094,-0.0055,0.0031,0.0134,-2.6269,1.4602,2.9828
2024-10-11T12:40:37.342Z,0.0141,-0.9980,0.1098,-0.0655,-0.0329,0.0094,-0.0054,0.0058,0.0141,-2.6269,1.4602,2.9828
2024-10-11T12:40:37.353Z,0.0175,-0.9971,0.1041,-0.0655,-0.0329,0.0094,-0.0066,0.0072,0.0137,-2.6269,1.4602,2.9828
2024-10-11T12:40:37.363Z,0.0144,-1.0007,0.1070,0.0043,0.0440,0.0034,-0.0047,0.0054,0.0140,-2.6304,1.4604,2.9862
2024-10-11T12:40:37.372Z,0.0128,-0.9968,0.1063,0.0043,0.0440,0.0034,-0.0045,0.0046,0.0119,-2.6304,1.4604,2.9862
2024-10-11T12:40:37.383Z,0.0094,-0.9939,0.1004,0.0043,0.0440,0.0034,-0.0019,0.0010,0.0122,-2.6304,1.4604,2.9862
2024-10-11T12:40:37.393Z,0.0120,-0.9903,0.1011,0.0609,-0.0174,0.0297,-0.0050,0.0007,0.0082,-2.6334,1.4606,2.9890
2024-10-11T12:40:37.403Z,0.0102,-0.9907,0.1077,0.0609,-0.0174,0.0297,-0.0045,0.0015,0.0073,-2.6334,1.4606,2.9890
2024-10-11T12:40:37.413Z,0.0069,-0.9892,0.1077,0.0609,-0.0174,0.0297,-0.0075,0.0028,0.0055,-2.6334,1.4606,2.9890
2024-10-11T12:40:37.423Z,0.0050,-0.9921,0.1053,0.0971,-0.0333,0.0040,-0.0046,-0.0016,0.0058,-2.6351,1.4607,2.9905
2024-10-11T12:40:37.433Z,0.0062,-0.9940,0.1078,0.0971,-0.0333,0.0040,-0.0032,-0.0042,0.0053,-2.6351,1.4607,2.9905
2024-10-11T12:40:37.443Z,0.0015,-0.9933,0.1064,0.0971,-0.0333,0.0040,-0.0043,-0.0040,0.0010,-2.6351,1.4607,2.9905
2024-10-11T12:40:37.453Z,0.0036,-0.9968,0.1038,0.1476,0.0204,0.0230,-0.0018,-0.0036,0.0012,-2.6361,1.4608,2.9913
2024-10-11T12:40:37.463Z,0.0049,-0.9937,0.1035,0.1476,0.0204,0.0230,-0.0031,-0.0052,0.0016,-2.6361,1.4608,2.9913
2024-10-11T12:40:37.473Z,0.0050,-0.9922,0.1072,0.1476,0.0204,0.0230,-0.0076,-0.0064,-0.0001,-2.6361,1.4608,2.9913
2024-10-11T12:40:37.482Z,0.0087,-0.9895,0.1068,0.0784,-0.0273,0.0569,-0.0066,-0.0067,0.0002,-2.6365,1.4610,2.9912
2024-10-11T12:40:37.492Z,0.0044,-0.9926,0.1009,0.0784,-0.0273,0.0569,-0.0041,-0.0081,-0.0006,-2.6365,1.4610,2.9912
2024-10-11T12:40:37.503Z,0.0092,-0.9957,0.0957,0.0784,-0.0273,0.0569,-0.0029,-0.0084,0.0002,-2.6365,1.4610,2.9912
2024-10-11T12:40:37.512Z,0.0114,-0.9955,0.0933,0.0534,0.0129,0.1815,-0.0013,-0.0052,0.0024,-2.6373,1.4611,2.9916
2024-10-11T12:40:37.523Z,0.0084,-0.9969,0.0910,0.0534,0.0129,0.1815,0.0004,-0.0059,0.0019,-2.6373,1.4611,2.9916
2024-10-11T12:40:37.533Z,0.0090,-0.9991,0.0946,0.0534,0.0129,0.1815,-0.0012,-0.0046,0.0018,-2.6373,1.4611,2.9916
2024-10-11T12:40:37.543Z,0.0099,-1.0009,0.0963,0.0770,0.0562,0.1223,0.0022,-0.0043,0.0045,-2.6389,1.4612,2.9927
2024-10-11T12:40:37.553Z,0.0073,-1.0053,0.0962,0.0770,0.0562,0.1223,0.0023,-0.0053,0.0045,-2.6389,1.4612,2.9927
2024-10-11T12:40:37.563Z,0.0107,-1.0057,0.0959,0.0770,0.0562,0.1223,0.0025,-0.0044,0.0037,-2.6389,1.4612,2.9927
2024-10-11T12:40:37.573Z,0.0175,-1.0022,0.0981,-0.0012,0.0999,0.1039,0.0007,-0.0014,0.0046,-2.6406,1.4611,2.9941
2024-10-11T12:40:37.583Z,0.0139,-0.9982,0.0986,-0.0012,0.0999,0.1039,0.0004,0.0006,0.0055,-2.6406,1.4611,2.9941
2024-10-11T12:40:37.593Z,0.0196,-0.9968,0.0965,-0.0012,0.0999,0.1039,0.0028,0.0008,0.0041,-2.6406,1.4611,2.9941
2024-10-11T12:40:37.603Z,0.0200,-0.9969,0.0948,-0.0592,0.0300,0.1001,0.0010,0.0020,0.0051,-2.6426,1.4612,2.9958
2024-10-11T12:40:37.612Z,0.0145,-0.9936,0.0970,-0.0592,0.0300,0.1001,0.0034,0.0041,0.0060,-2.6426,1.4612,2.9958
2024-10-11T12:40:37.623Z,0.0209,-0.9935,0.0902,-0.0592,0.0300,0.1001,0.0059,0.0024,0.0082,-2.6426,1.4612,2.9958
2024-10-11T12:40:37.632Z,0.0290,-0.9954,0.0957,-0.1068,0.0079,0.1517,0.0045,-0.0003,0.0098,-2.6453,1.4611,2.9982
2024-10-11T12:40:37.643Z,0.0249,-0.9907,0.1033,-0.1068,0.0079,0.1517,0.0064,0.0027,0.0098,-2.6453,1.4611,2.9982
2024-10-11T12:40:37.653Z,0.0196,-0.9888,0.1015,-0.1068,0.0079,0.1517,0.0036,0.0003,0.0104,-2.6453,1.4611,2.9982
2024-10-11T12:40:37.662Z,0.0202,-0.9876,0.1109,-0.0358,-0.0561,0.0346,0.0034,0.0007,0.0108,-2.6488,1.4611,3.0014
2024-10-11T12:40:37.673Z,0.0199,-0.9888,0.1146,-0.0358,-0.0561,0.0346,-0.0003,0.0043,0.0149,-2.6488,1.4611,3.0014
2024-10-11T12:40:37.683Z,0.0213,-0.9908,0.1170,-0.0358,-0.0561,0.0346,-0.0023,0.0022,0.0152,-2.6488,1.4611,3.0014
2024-10-11T12:40:37.692Z,0.0278,-0.9866,0.1203,-0.1229,-0.0533,-0.1025,-0.0032,0.0034,0.0137,-2.6522,1.4612,3.0046
2024-10-11T12:40:37.703Z,0.0164,-0.9853,0.1203,-0.1229,-0.0533,-0.1025,-0.0062,0.0030,0.0135,-2.6522,1.4612,3.0046
2024-10-11T12:40:37.712Z,0.0135,-0.9852,0.1166,-0.1229,-0.0533,-0.1025,-0.0090,0.0032,0.0134,-2.6522,1.4612,3.0046
2024-10-11T12:40:37.722Z,0.0177,-0.9841,0.1187,-0.0193,-0.0907,-0.0953,-0.0083,0.0023,0.0122,-2.6556,1.4615,3.0078
2024-10-11T12:40:37.732Z,0.0130,-0.9837,0.1191,-0.0193,-0.0907,-0.0953,-0.0130,0.0037,0.0104,-2.6556,1.4615,3.0078
2024-10-11T12:40:37.742Z,0.0150,-0.9834,0.1205,-0.0193,-0.0907,-0.0953,-0.0146,0.0044,0.0102,-2.6556,1.4615,3.0078
2024-10-11T12:40:37.754Z,0.0176,-0.9868,0.1171,-0.0388,-0.0912,-0.1205,-0.0140,0.0046,0.0103,-2.6580,1.4619,3.0100
2024-10-11T12:40:37.762Z,0.0152,-0.9925,0.1158,-0.0388,-0.0912,-0.1205,-0.0150,-0.0003,0.0092,-2.6580,1.4619,3.0100
2024-10-11T12:40:37.773Z,0.0168,-0.9949,0.1111,-0.0388,-0.0912,-0.1205,-0.0134,0.0024,0.0100,-2.6580,1.4619,3.0100
2024-10-11T12:40:37.783Z,0.0190,-1.0004,0.1065,-0.0411,0.0421,-0.0075,-0.0140,0.0058,0.0096,-2.6601,1.4623,3.0120
2024-10-11T12:40:37.793Z,0.0179,-0.9976,0.1162,-0.0411,0.0421,-0.0075,-0.0144,0.0038,0.0092,-2.6601,1.4623,3.0120
2024-10-11T12:40:37.803Z,0.0189,-0.9981,0.1139,-0.0411,0.0421,-0.0075,-0.0140,0.0095,0.0074,-2.6601,1.4623,3.0120
2024-10-11T12:40:37.812Z,0.0162,-0.9994,0.1123,-0.0248,0.0535,-0.0711,-0.0151,0.0085,0.0050,-2.6622,1.4627,3.0140
2024-10-11T12:40:37.823Z,0.0165,-1.0006,0.1133,-0.0248,0.0535,-0.0711,-0.0148,0.0100,0.0069,-2.6622,1.4627,3.0140
2024-10-11T12:40:37.833Z,0.0121,-1.0032,0.1153,-0.0248,0.0535,-0.0711,-0.0167,0.0074,0.0054,-2.6622,1.4627,3.0140
2024-10-11T12:40:37.843Z,0.0126,-1.0049,0.1178,0.0077,0.1007,-0.0829,-0.0137,0.0068,0.0026,-2.6635,1.4631,3.0153
2024-10-11T12:40:37.854Z,0.0111,-1.0035,0.1160,0.0077,0.1007,-0.0829,-0.0182,0.0085,-0.0005,-2.6635,1.4631,3.0153
2024-10-11T12:40:37.862Z,0.0056,-1.0007,0.1181,0.0077,0.1007,-0.0829,-0.0175,0.0055,-0.0013,-2.6635,1.4631,3.0153
2024-10-11T12:40:37.873Z,0.0090,-1.0011,0.1163,0.0742,0.0557,-0.0790,-0.0158,0.0065,-0.0029,-2.6630,1.4636,3.0148
2024-10-11T12:40:37.883Z,0.0062,-1.0023,0.1140,0.0742,0.0557,-0.0790,-0.0178,0.0109,-0.0048,-2.6630,1.4636,3.0148
2024-10-11T12:40:37.893Z,0.0083,-1.0039,0.1167,0.0742,0.0557,-0.0790,-0.0190,0.0088,-0.0070,-2.6630,1.4636,3.0148
2024-10-11T12:40:37.904Z,0.0143,-1.0027,0.1135,0.0077,0.0965,-0.0731,-0.0203,0.0104,-0.0050,-2.6612,1.4641,3.0129
2024-10-11T12:40:37.912Z,0.0142,-1.0009,0.1068,0.0077,0.0965,-0.0731,-0.0151,0.0059,-0.0093,-2.6612,1.4641,3.0129
2024-10-11T12:40:37.923Z,0.0070,-1.0008,0.1031,0.0077,0.0965,-0.0731,-0.0162,0.0106,-0.0095,-2.6612,1.4641,3.0129
2024-10-11T12:40:37.933Z,0.0124,-1.0011,0.1055,0.0499,0.0708,0.0320,-0.0146,0.0100,-0.0094,-2.6585,1.4645,3.0103
2024-10-11T12:40:37.942Z,0.0162,-0.9997,0.1048,0.0499,0.0708,0.0320,-0.0157,0.0124,-0.0093,-2.6585,1.4645,3.0103
2024-10-11T12:40:37.954Z,0.0175,-0.9998,0.0978,0.0499,0.0708,0.0320,-0.0139,0.0138,-0.0127,-2.6585,1.4645,3.0103
2024-10-11T12:40:37.963Z,0.0144,-0.9998,0.0987,-0.0254,0.0524,0.0471,-0.0122,0.0100,-0.0123,-2.6556,1.4647,3.0075
2024-10-11T12:40:37.973Z,0.0113,-1.0007,0.0975,-0.0254,0.0524,0.0471,-0.0075,0.0091,-0.0122,-2.6556,1.4647,3.0075
2024-10-11T12:40:37.982Z,0.0120,-0.9979,0.0897,-0.0254,0.0524,0.0471,-0.0051,0.0049,-0.0138,-2.6556,1.4647,3.0075
2024-10-11T12:40:37.993Z,0.0111,-0.9928,0.0940,0.0390,0.0051,0.0949,-0.0067,0.0060,-0.0155,-2.6517,1.4649,3.0037
2024-10-11T12:40:38.003Z,0.0114,-0.9921,0.0998,0.0390,0.0051,0.0949,-0.0062,0.0066,-0.0163,-2.6517,1.4649,3.0037
2024-10-11T12:40:38.013Z,0.0115,-0.9966,0.1008,0.0390,0.0051,0.0949,-0.0040,0.0063,-0.0181,-2.6517,1.4649,3.0037
2024-10-11T12:40:38.023Z,0.0160,-0.9979,0.0975,0.0262,0.0382,0.0155,-0.0008,0.0071,-0.0195,-2.6468,1.4649,2.9988
2024-10-11T12:40:38.033Z,0.0199,-0.9995,0.0990,0.0262,0.0382,0.0155,0.0035,0.0046,-0.0172,-2.6468,1.4649,2.9988
2024-10-11T12:40:38.043Z,0.0205,-0.9979,0.1027,0.0262,0.0382,0.0155,-0.0013,0.0065,-0.0166,-2.6468,1.4649,2.9988
2024-10-11T12:40:38.053Z,0.0266,-0.9955,0.1022,-0.0719,0.0266,0.0128,0.0020,0.0031,-0.0146,-2.6420,1.4649,2.9939
2024-10-11T12:40:38.063Z,0.0263,-0.9915,0.1066,-0.0719,0.0266,0.0128,-0.0006,0.0059,-0.0149,-2.6420,1.4649,2.9939
2024-10-11T12:40:38.072Z,0.0232,-0.9874,0.1071,-0.0719,0.0266,0.0128,-0.0003,0.0078,-0.0134,-2.6420,1.4649,2.9939
2024-10-11T12:40:38.083Z,0.0243,-0.9843,0.0989,-0.0868,-0.0753,0.0324,0.0002,0.0057,-0.0137,-2.6382,1.4648,2.9900
2024-10-11T12:40:38.093Z,0.0235,-0.9831,0.0987,-0.0868,-0.0753,0.0324,0.0018,0.0013,-0.0141,-2.6382,1.4648,2.9900
2024-10-11T12:40:38.103Z,0.0290,-0.9788,0.1018,-0.0868,-0.0753,0.0324,0.0038,0.0011,-0.0111,-2.6382,1.4648,2.9900
2024-10-11T12:40:38.113Z,0.0266,-0.9743,0.1023,-0.1232,-0.1695,0.0669,0.0056,0.0000,-0.0110,-2.6350,1.4647,2.9866
2024-10-11T12:40:38.121Z,0.0233,-0.9713,0.1049,-0.1232,-0.1695,0.0669,0.0043,0.0012,-0.0106,-2.6350,1.4647,2.9866
2024-10-11T12:40:38.132Z,0.0174,-0.9726,0.1091,-0.1232,-0.1695,0.0669,0.0022,0.0022,-0.0115,-2.6350,1.4647,2.9866
2024-10-11T12:40:38.143Z,0.0165,-0.9760,0.1115,0.0003,-0.2008,-0.0334,0.0045,-0.0011,-0.0103,-2.6320,1.4645,2.9833
2024-10-11T12:40:38.153Z,0.0147,-0.9745,0.1104,0.0003,-0.2008,-0.0334,0.0047,-0.0046,-0.0103,-2.6320,1.4645,2.9833
2024-10-11T12:40:38.162Z,0.0149,-0.9739,0.1105,0.0003,-0.2008,-0.0334,0.0031,-0.0050,-0.0108,-2.6320,1.4645,2.9833
2024-10-11T12:40:38.172Z,0.0173,-0.9754,0.1097,0.0090,-0.2000,-0.0504,0.0062,-0.0034,-0.0091,-2.6295,1.4644,2.9804
2024-10-11T12:40:38.183Z,0.0198,-0.9763,0.1050,0.0090,-0.2000,-0.0504,0.0063,-0.0043,-0.0082,-2.6295,1.4644,2.9804
2024-10-11T12:40:38.193Z,0.0194,-0.9765,0.1039,0.0090,-0.2000,-0.0504,0.0068,0.0007,-0.0097,-2.6295,1.4644,2.9804
2024-10-11T12:40:38.202Z,0.0202,-0.9789,0.0990,-0.0080,-0.1732,0.0147,0.0077,0.0025,-0.0061,-2.6273,1.4641,2.9780
2024-10-11T12:40:38.213Z,0.0216,-0.9795,0.0981,-0.0080,-0.1732,0.0147,0.0084,0.0045,-0.0055,-2.6273,1.4641,2.9780
2024-10-11T12:40:38.222Z,0.0199,-0.9774,0.1003,-0.0080,-0.1732,0.0147,0.0109,0.0078,-0.0072,-2.6273,1.4641,2.9780
2024-10-11T12:40:38.233Z,0.0227,-0.9814,0.0971,-0.0433,-0.1528,0.0482,0.0166,0.0074,-0.0057,-2.6264,1.4637,2.9770
2024-10-11T12:40:38.243Z,0.0186,-0.9837,0.1018,-0.0433,-0.1528,0.0482,0.0121,0.0110,-0.0026,-2.6264,1.4637,2.9770
2024-10-11T12:40:38.253Z,0.0162,-0.9844,0.1024,-0.0433,-0.1528,0.0482,0.0116,0.0138,-0.0057,-2.6264,1.4637,2.9770
2024-10-11T12:40:38.263Z,0.0119,-0.9893,0.1022,0.0459,-0.0749,0.0367,0.0147,0.0175,-0.0024,-2.6261,1.4632,2.9769
2024-10-11T12:40:38.272Z,0.0202,-0.9951,0.1066,0.0459,-0.0749,0.0367,0.0151,0.0180,-0.0062,-2.6261,1.4632,2.9769
2024-10-11T12:40:38.283Z,0.0211,-0.9982,0.1068,0.0459,-0.0749,0.0367,0.0118,0.0207,-0.0037,-2.6261,1.4632,2.9769
2024-10-11T12:40:38.293Z,0.0144,-1.0024,0.1019,0.0167,0.0645,0.0254,0.0136,0.0182,-0.0048,-2.6253,1.4628,2.9765
2024-10-11T12:40:38.303Z,0.0197,-1.0055,0.1039,0.0167,0.0645,0.0254,0.0138,0.0192,-0.0035,-2.6253,1.4628,2.9765
2024-10-11T12:40:38.312Z,0.0212,-1.0038,0.1126,0.0167,0.0645,0.0254,0.0082,0.0237,-0.0036,-2.6253,1.4628,2.9765
2024-10-11T12:40:38.322Z,0.0215,-1.0038,0.1132,-0.0280,0.0952,-0.0628,0.0061,0.0287,-0.0028,-2.6249,1.4625,2.9764
2024-10-11T12:40:38.333Z,0.0256,-1.0051,0.1131,-0.0280,0.0952,-0.0628,0.0083,0.0245,0.0002,-2.6249,1.4625,2.9764
2024-10-11T12:40:38.343Z,0.0248,-1.0047,0.1142,-0.0280,0.0952,-0.0628,0.0080,0.0228,0.0003,-2.6249,1.4625,2.9764
2024-10-11T12:40:38.352Z,0.0217,-1.0073,0.1135,-0.0416,0.1158,-0.0655,0.0058,0.0227,0.0001,-2.6252,1.4622,2.9771
2024-10-11T12:40:38.363Z,0.0266,-1.0100,0.1146,-0.0416,0.1158,-0.0655,0.0064,0.0190,-0.0002,-2.6252,1.4622,2.9771
2024-10-11T12:40:38.372Z,0.0226,-1.0111,0.1133,-0.0416,0.1158,-0.0655,0.0038,0.0260,-0.0011,-2.6252,1.4622,2.9771
2024-10-11T12:40:38.382Z,0.0247,-1.0098,0.1130,-0.0601,0.1614,-0.0597,0.0022,0.0243,-0.0022,-2.6257,1.4621,2.9780
2024-10-11T12:40:38.392Z,0.0221,-1.0094,0.1109,-0.0601,0.1614,-0.0597,0.0010,0.0222,-0.0015,-2.6257,1.4621,2.9780
2024-10-11T12:40:38.403Z,0.0245,-1.0146,0.1069,-0.0601,0.1614,-0.0597,-0.0006,0.0204,0.0005,-2.6257,1.4621,2.9780
2024-10-11T12:40:38.413Z,0.0226,-1.0128,0.1085,-0.0644,0.1958,-0.0087,-0.0008,0.0173,0.0032,-2.6261,1.4620,2.9787
2024-10-11T12:40:38.422Z,0.0273,-1.0125,0.1125,-0.0644,0.1958,-0.0087,-0.0033,0.0175,-0.0005,-2.6261,1.4620,2.9787
2024-10-11T12:40:38.433Z,0.0269,-1.0141,0.1105,-0.0644,0.1958,-0.0087,-0.0068,0.0162,0.0016,-2.6261,1.4620,2.9787
2024-10-11T12:40:38.443Z,0.0206,-1.0125,0.1089,-0.0414,0.1859,-0.0374,-0.0074,0.0125,0.0042,-2.6264,1.4621,2.9793
2024-10-11T12:40:38.453Z,0.0241,-1.0100,0.1042,-0.0414,0.1859,-0.0374,-0.0079,0.0137,0.0045,-2.6264,1.4621,2.9793
2024-10-11T12:40:38.463Z,0.0220,-1.0076,0.1053,-0.0414,0.1859,-0.0374,-0.0102,0.0104,0.0029,-2.6264,1.4621,2.9793
2024-10-11T12:40:38.472Z,0.0219,-1.0052,0.1046,-0.0301,0.1134,0.0318,-0.0087,0.0083,0.0030,-2.6264,1.4623,2.9794
2024-10-11T12:40:38.483Z,0.0301,-1.0004,0.1100,-0.0301,0.1134,0.0318,-0.0107,0.0113,0.0016,-2.6264,1.4623,2.9794
2024-10-11T12:40:38.493Z,0.0257,-0.9949,0.1077,-0.0301,0.1134,0.0318,-0.0126,0.0116,0.0046,-2.6264,1.4623,2.9794
2024-10-11T12:40:38.502Z,0.0250,-0.9884,0.1050,-0.0807,-0.0172,0.0283,-0.0119,0.0069,0.0049,-2.6270,1.4626,2.9801
2024-10-11T12:40:38.512Z,0.0202,-0.9867,0.1077,-0.0807,-0.0172,0.0283,-0.0131,0.0063,0.0062,-2.6270,1.4626,2.9801
2024-10-11T12:40:38.522Z,0.0249,-0.9892,0.1096,-0.0807,-0.0172,0.0283,-0.0132,0.0063,0.0067,-2.6270,1.4626,2.9801
2024-10-11T12:40:38.532Z,0.0256,-0.9918,0.1101,-0.1030,-0.0275,-0.0156,-0.0153,0.0121,0.0086,-2.6288,1.4630,2.9818
2024-10-11T12:40:38.543Z,0.0215,-0.9912,0.1117,-0.1030,-0.0275,-0.0156,-0.0141,0.0111,0.0078,-2.6288,1.4630,2.9818
2024-10-11T12:40:38.553Z,0.0205,-0.9930,0.1101,-0.1030,-0.0275,-0.0156,-0.0153,0.0020,0.0095,-2.6288,1.4630,2.9818
2024-10-11T12:40:38.562Z,0.0137,-0.9951,0.1077,-0.0116,0.0000,-0.0191,-0.0149,-0.0021,0.0088,-2.6309,1.4635,2.9837
2024-10-11T12:40:38.572Z,0.0095,-0.9916,0.1088,-0.0116,0.0000,-0.0191,-0.0162,-0.0034,0.0075,-2.6309,1.4635,2.9837
2024-10-11T12:40:38.583Z,0.0164,-0.9855,0.1052,-0.0116,0.0000,-0.0191,-0.0177,-0.0027,0.0071,-2.6309,1.4635,2.9837
2024-10-11T12:40:38.593Z,0.0105,-0.9848,0.1031,0.0216,-0.0912,-0.0034,-0.0142,0.0038,0.0070,-2.6325,1.4639,2.9850
2024-10-11T12:40:38.603Z,0.0175,-0.9830,0.1007,0.0216,-0.0912,-0.0034,-0.0120,0.0005,0.0062,-2.6325,1.4639,2.9850
2024-10-11T12:40:38.612Z,0.0175,-0.9816,0.0979,0.0216,-0.0912,-0.0034,-0.0133,-0.0021,0.0059,-2.6325,1.4639,2.9850
2024-10-11T12:40:38.623Z,0.0164,-0.9841,0.0968,-0.0016,-0.1213,0.0527,-0.0097,-0.0042,0.0049,-2.6341,1.4643,2.9863
2024-10-11T12:40:38.633Z,0.0132,-0.9811,0.0997,-0.0016,-0.1213,0.0527,-0.0090,-0.0006,0.0073,-2.6341,1.4643,2.9863
2024-10-11T12:40:38.643Z,0.0170,-0.9819,0.0964,-0.0016,-0.1213,0.0527,-0.0092,0.0011,0.0071,-2.6341,1.4643,2.9863
2024-10-11T12:40:38.653Z,0.0158,-0.9838,0.0980,-0.0113,-0.1186,0.0477,-0.0100,0.0019,0.0109,-2.6361,1.4645,2.9880
2024-10-11T12:40:38.662Z,0.0157,-0.9900,0.1022,-0.0113,-0.1186,0.0477,-0.0064,0.0047,0.0068,-2.6361,1.4645,2.9880
2024-10-11T12:40:38.673Z,0.0155,-0.9897,0.1029,-0.0113,-0.1186,0.0477,-0.0046,0.0017,0.0059,-2.6361,1.4645,2.9880
2024-10-11T12:40:38.683Z,0.0126,-0.9882,0.0986,0.0069,-0.0610,0.0372,-0.0030,-0.0003,0.0067,-2.6383,1.4647,2.9899
2024-10-11T12:40:38.693Z,0.0023,-0.9904,0.1006,0.0069,-0.0610,0.0372,-0.0029,-0.0026,0.0053,-2.6383,1.4647,2.9899
2024-10-11T12:40:38.703Z,0.0054,-0.9882,0.1044,0.0069,-0.0610,0.0372,-0.0044,-0.0009,0.0051,-2.6383,1.4647,2.9899
2024-10-11T12:40:38.713Z,0.0056,-0.9904,0.1001,0.0970,-0.0712,0.0182,-0.0009,0.0032,0.0013,-2.6392,1.4648,2.9907
2024-10-11T12:40:38.722Z,0.0026,-1.0005,0.0996,0.0970,-0.0712,0.0182,-0.0016,0.0020,-0.0001,-2.6392,1.4648,2.9907
2024-10-11T12:40:38.733Z,0.0101,-0.9995,0.1101,0.0970,-0.0712,0.0182,0.0004,-0.0010,-0.0014,-2.6392,1.4648,2.9907
2024-10-11T12:40:38.743Z,0.0093,-0.9947,0.1185,0.0415,0.0249,-0.0908,-0.0017,0.0004,0.0012,-2.6395,1.4649,2.9907
2024-10-11T12:40:38.753Z,0.0137,-0.9916,0.1200,0.0415,0.0249,-0.0908,-0.0035,0.0011,-0.0021,-2.6395,1.4649,2.9907
2024-10-11T12:40:38.763Z,0.0163,-0.9898,0.1180,0.0415,0.0249,-0.0908,-0.0065,0.0050,0.0023,-2.6395,1.4649,2.9907
2024-10-11T12:40:38.772Z,0.0150,-0.9901,0.1212,0.0184,-0.0663,-0.1300,-0.0038,0.0037,0.0024,-2.6399,1.4651,2.9910
2024-10-11T12:40:38.783Z,0.0211,-0.9905,0.1136,0.0184,-0.0663,-0.1300,-0.0065,0.0043,0.0036,-2.6399,1.4651,2.9910
2024-10-11T12:40:38.793Z,0.0192,-0.9878,0.1053,0.0184,-0.0663,-0.1300,-0.0051,0.0051,0.0049,-2.6399,1.4651,2.9910
2024-10-11T12:40:38.803Z,0.0210,-0.9879,0.1044,-0.0348,-0.0608,-0.0031,-0.0067,0.0013,0.0061,-2.6415,1.4653,2.9925
2024-10-11T12:40:38.812Z,0.0227,-0.9862,0.0993,-0.0348,-0.0608,-0.0031,-0.0033,0.0013,0.0080,-2.6415,1.4653,2.9925
2024-10-11T12:40:38.823Z,0.0170,-0.9910,0.0945,-0.0348,-0.0608,-0.0031,0.0001,0.0019,0.0062,-2.6415,1.4653,2.9925
2024-10-11T12:40:38.832Z,0.0142,-0.9916,0.0985,-0.0072,-0.0325,0.0593,0.0021,-0.0014,0.0058,-2.6438,1.4653,2.9944
2024-10-11T12:40:38.843Z,0.0089,-0.9905,0.1024,-0.0072,-0.0325,0.0593,0.0015,-0.0049,0.0077,-2.6438,1.4653,2.9944
2024-10-11T12:40:38.853Z,0.0204,-0.9929,0.1041,-0.0072,-0.0325,0.0593,0.0012,-0.0061,0.0079,-2.6438,1.4653,2.9944
2024-10-11T12:40:38.863Z,0.0173,-0.9958,0.1055,-0.0555,-0.0089,-0.0497,0.0058,-0.0095,0.0059,-2.6457,1.4652,2.9959
2024-10-11T12:40:38.873Z,0.0095,-1.0006,0.1079,-0.0555,-0.0089,-0.0497,0.0045,-0.0104,0.0037,-2.6457,1.4652,2.9959
2024-10-11T12:40:38.883Z,0.0072,-1.0022,0.1075,-0.0555,-0.0089,-0.0497,0.0022,-0.0110,0.0027,-2.6457,1.4652,2.9959
2024-10-11T12:40:38.893Z,0.0121,-1.0014,0.1023,0.0630,0.0732,-0.0127,0.0039,-0.0111,0.0009,-2.6471,1.4650,2.9967
2024-10-11T12:40:38.903Z,0.0167,-1.0015,0.1046,0.0630,0.0732,-0.0127,0.0039,-0.0151,0.0030,-2.6471,1.4650,2.9967
2024-10-11T12:40:38.913Z,0.0218,-1.0000,0.1067,0.0630,0.0732,-0.0127,0.0041,-0.0148,0.0041,-2.6471,1.4650,2.9967
2024-10-11T12:40:38.922Z,0.0234,-1.0011,0.1049,-0.0907,0.0631,-0.0277,0.0047,-0.0087,0.0040,-2.6489,1.4650,2.9978
2024-10-11T12:40:38.933Z,0.0237,-1.0011,0.1042,-0.0907,0.0631,-0.0277,0.0067,-0.0105,0.0029,-2.6489,1.4650,2.9978
2024-10-11T12:40:38.943Z,0.0128,-1.0016,0.1038,-0.0907,0.0631,-0.0277,0.0040,-0.0144,0.0047,-2.6489,1.4650,2.9978
2024-10-11T12:40:38.953Z,0.0117,-1.0040,0.1087,0.0511,0.0890,0.0067,0.0041,-0.0184,0.0036,-2.6502,1.4648,2.9985
2024-10-11T12:40:38.963Z,0.0202,-1.0006,0.1074,0.0511,0.0890,0.0067,0.0052,-0.0207,0.0023,-2.6502,1.4648,2.9985
2024-10-11T12:40:38.972Z,0.0144,-0.9985,0.1105,0.0511,0.0890,0.0067,0.0026,-0.0177,0.0038,-2.6502,1.4648,2.9985
2024-10-11T12:40:38.983Z,0.0144,-0.9942,0.1108,0.0203,0.0219,-0.0243,0.0024,-0.0190,0.0039,-2.6517,1.4647,2.9992
2024-10-11T12:40:38.992Z,0.0094,-0.9950,0.1130,0.0203,0.0219,-0.0243,-0.0001,-0.0192,0.0015,-2.6517,1.4647,2.9992
2024-10-11T12:40:39.002Z,0.0069,-0.9953,0.1167,0.0203,0.0219,-0.0243,-0.0002,-0.0245,0.0002,-2.6517,1.4647,2.9992
2024-10-11T12:40:39.013Z,0.0108,-0.9968,0.1141,0.0545,0.0182,-0.1030,0.0005,-0.0231,-0.0009,-2.6515,1.4647,2.9982
2024-10-11T12:40:39.022Z,0.0120,-0.9928,0.1112,0.0545,0.0182,-0.1030,-0.0003,-0.0178,-0.0011,-2.6515,1.4647,2.9982
2024-10-11T12:40:39.033Z,0.0122,-0.9928,0.1087,0.0545,0.0182,-0.1030,-0.0009,-0.0167,-0.0025,-2.6515,1.4647,2.9982
2024-10-11T12:40:39.042Z,0.0111,-0.9934,0.1095,0.0309,-0.0223,-0.0326,0.0009,-0.0135,-0.0014,-2.6515,1.4646,2.9973
2024-10-11T12:40:39.052Z,0.0072,-0.9940,0.1098,0.0309,-0.0223,-0.0326,0.0002,-0.0143,-0.0045,-2.6515,1.4646,2.9973
2024-10-11T12:40:39.063Z,0.0051,-0.9925,0.1109,0.0309,-0.0223,-0.0326,0.0024,-0.0156,-0.0022,-2.6515,1.4646,2.9973
2024-10-11T12:40:39.074Z,0.0043,-0.9941,0.1097,0.1044,-0.0139,-0.0612,0.0012,-0.0182,-0.0028,-2.6507,1.4646,2.9958
2024-10-11T12:40:39.083Z,0.0051,-0.9965,0.1081,0.1044,-0.0139,-0.0612,-0.0006,-0.0157,-0.0059,-2.6507,1.4646,2.9958
2024-10-11T12:40:39.093Z,0.0090,-0.9919,0.1043,0.1044,-0.0139,-0.0612,-0.0003,-0.0124,-0.0092,-2.6507,1.4646,2.9958
2024-10-11T12:40:39.103Z,0.0049,-0.9919,0.1084,0.0854,-0.0329,-0.0253,-0.0014,-0.0100,-0.0081,-2.6494,1.4644,2.9939
2024-10-11T12:40:39.112Z,0.0086,-0.9902,0.1168,0.0854,-0.0329,-0.0253,-0.0017,-0.0150,-0.0092,-2.6494,1.4644,2.9939
2024-10-11T12:40:39.122Z,0.0024,-0.9898,0.1154,0.0854,-0.0329,-0.0253,-0.0018,-0.0125,-0.0117,-2.6494,1.4644,2.9939
2024-10-11T12:40:39.133Z,0.0034,-0.9907,0.1118,0.1429,-0.0325,-0.0926,-0.0046,-0.0128,-0.0144,-2.6473,1.4644,2.9912
2024-10-11T12:40:39.142Z,0.0052,-0.9908,0.1106,0.1429,-0.0325,-0.0926,-0.0030,-0.0119,-0.0123,-2.6473,1.4644,2.9912
2024-10-11T12:40:39.153Z,0.0045,-0.9876,0.1120,0.1429,-0.0325,-0.0926,-0.0080,-0.0123,-0.0160,-2.6473,1.4644,2.9912
2024-10-11T12:40:39.163Z,0.0054,-0.9883,0.1081,0.1081,-0.0592,-0.0362,-0.0080,-0.0123,-0.0160,-2.6450,1.4644,2.9884
2024-10-11T12:40:39.172Z,0.0097,-0.9935,0.1103,0.1081,-0.0592,-0.0362,-0.0072,-0.0111,-0.0156,-2.6450,1.4644,2.9884
2024-10-11T12:40:39.182Z,0.0099,-0.9936,0.1085,0.1081,-0.0592,-0.0362,-0.0071,-0.0048,-0.0157,-2.6450,1.4644,2.9884
2024-10-11T12:40:39.192Z,0.0099,-0.9922,0.1075,0.0687,-0.0086,-0.0408,-0.0080,-0.0013,-0.0161,-2.6429,1.4645,2.9859
2024-10-11T12:40:39.202Z,0.0166,-0.9939,0.1055,0.0687,-0.0086,-0.0408,-0.0048,-0.0003,-0.0144,-2.6429,1.4645,2.9859
2024-10-11T12:40:39.212Z,0.0193,-0.9931,0.1008,0.0687,-0.0086,-0.0408,-0.0065,0.0017,-0.0127,-2.6429,1.4645,2.9859
2024-10-11T12:40:39.223Z,0.0179,-0.9897,0.1032,-0.0155,-0.0249,0.0265,-0.0049,0.0019,-0.0114,-2.6407,1.4646,2.9835
2024-10-11T12:40:39.233Z,0.0220,-0.9908,0.0951,-0.0155,-0.0249,0.0265,-0.0033,0.0058,-0.0142,-2.6407,1.4646,2.9835
2024-10-11T12:40:39.242Z,0.0151,-0.9904,0.0939,-0.0155,-0.0249,0.0265,-0.0033,0.0058,-0.0142,-2.6407,1.4646,2.9835
2024-10-11T12:40:39.253Z,0.0124,-0.9946,0.0942,0.0486,-0.0196,0.0985,-0.0035,0.0054,-0.0152,-2.6378,1.4646,2.9806
2024-10-11T12:40:39.263Z,0.0178,-0.9947,0.0967,0.0486,-0.0196,0.0985,-0.0001,0.0016,-0.0108,-2.6378,1.4646,2.9806
2024-10-11T12:40:39.275Z,0.0175,-0.9959,0.0923,-0.0175,0.0236,0.1422,-0.0001,0.0016,-0.0108,-2.6347,1.4645,2.9773
2024-10-11T12:40:39.283Z,0.0242,-0.9969,0.0866,-0.0175,0.0236,0.1422,0.0050,0.0015,-0.0119,-2.6347,1.4645,2.9773
2024-10-11T12:40:39.293Z,0.0279,-0.9953,0.0907,-0.0175,0.0236,0.1422,0.0022,0.0020,-0.0110,-2.6347,1.4645,2.9773
2024-10-11T12:40:39.303Z,0.0240,-0.9971,0.0981,-0.0175,0.0236,0.1422,0.0041,0.0033,-0.0100,-2.6347,1.4645,2.9773
2024-10-11T12:40:39.313Z,0.0237,-0.9935,0.0976,-0.0469,0.0120,0.0710,0.0066,0.0006,-0.0093,-2.6321,1.4644,2.9745
2024-10-11T12:40:39.323Z,0.0316,-0.9935,0.0919,-0.0469,0.0120,0.0710,0.0066,0.0006,-0.0093,-2.6321,1.4644,2.9745
2024-10-11T12:40:39.333Z,0.0294,-0.9900,0.0915,-0.0469,0.0120,0.0710,0.0056,-0.0005,-0.0068,-2.6321,1.4644,2.9745
2024-10-11T12:40:39.344Z,0.0294,-0.9900,0.0915,-0.0784,-0.0462,0.1323,0.0067,0.0002,-0.0008,-2.6306,1.4642,2.9729
2024-10-11T12:40:39.353Z,0.0396,-0.9902,0.0964,-0.0784,-0.0462,0.1323,0.0073,0.0019,0.0005,-2.6306,1.4642,2.9729
2024-10-11T12:40:39.362Z,0.0388,-0.9903,0.0977,-0.0784,-0.0462,0.1323,0.0073,0.0019,0.0005,-2.6306,1.4642,2.9729
2024-10-11T12:40:39.373Z,0.0315,-0.9907,0.0954,-0.1714,-0.0441,0.1008,0.0076,-0.0013,-0.0004,-2.6304,1.4640,2.9724
2024-10-11T12:40:39.383Z,0.0327,-0.9942,0.0920,-0.1714,-0.0441,0.1008,0.0076,-0.0023,0.0039,-2.6304,1.4640,2.9724
2024-10-11T12:40:39.393Z,0.0344,-0.9969,0.0940,-0.1714,-0.0441,0.1008,0.0101,-0.0035,0.0028,-2.6304,1.4640,2.9724
2024-10-11T12:40:39.403Z,0.0278,-0.9937,0.0998,-0.1356,0.0119,0.0954,0.0078,-0.0050,0.0013,-2.6311,1.4638,2.9730
2024-10-11T12:40:39.413Z,0.0206,-0.9901,0.1008,-0.1356,0.0119,0.0954,0.0065,-0.0077,-0.0002,-2.6311,1.4638,2.9730
2024-10-11T12:40:39.425Z,0.0136,-0.9945,0.1033,-0.0029,0.0178,-0.0244,0.0065,-0.0077,-0.0002,-2.6313,1.4636,2.9728
2024-10-11T12:40:39.433Z,0.0225,-0.9964,0.1087,-0.0029,0.0178,-0.0244,0.0044,-0.0056,0.0047,-2.6313,1.4636,2.9728
2024-10-11T12:40:39.443Z,0.0236,-0.9962,0.1120,-0.0029,0.0178,-0.0244,0.0054,-0.0079,0.0031,-2.6313,1.4636,2.9728
2024-10-11T12:40:39.452Z,0.0246,-0.9969,0.1091,-0.0029,0.0178,-0.0244,0.0054,-0.0079,0.0031,-2.6313,1.4636,2.9728
2024-10-11T12:40:39.463Z,0.0218,-0.9980,0.1134,-0.0558,0.0228,-0.1098,0.0009,-0.0058,0.0051,-2.6318,1.4635,2.9728
2024-10-11T12:40:39.474Z,0.0263,-0.9981,0.1134,-0.0558,0.0228,-0.1098,-0.0021,0.0015,0.0053,-2.6318,1.4635,2.9728
2024-10-11T12:40:39.483Z,0.0258,-0.9933,0.1115,-0.0534,-0.0161,-0.0946,-0.0020,0.0025,0.0104,-2.6333,1.4636,2.9741
2024-10-11T12:40:39.493Z,0.0234,-0.9919,0.1112,-0.0534,-0.0161,-0.0946,-0.0018,0.0027,0.0097,-2.6333,1.4636,2.9741
2024-10-11T12:40:39.503Z,0.0239,-0.9964,0.1102,-0.0534,-0.0161,-0.0946,0.0002,0.0001,0.0075,-2.6333,1.4636,2.9741
2024-10-11T12:40:39.514Z,0.0189,-0.9990,0.1043,0.0039,0.0606,0.0186,-0.0006,0.0020,0.0071,-2.6360,1.4637,2.9765
2024-10-11T12:40:39.525Z,0.0124,-1.0009,0.0963,0.0039,0.0606,0.0186,-0.0003,-0.0003,0.0093,-2.6360,1.4637,2.9765
2024-10-11T12:40:39.533Z,0.0115,-1.0022,0.1014,0.0039,0.0606,0.0186,-0.0056,0.0003,0.0078,-2.6360,1.4637,2.9765
2024-10-11T12:40:39.543Z,0.0063,-1.0026,0.1042,0.0039,0.0606,0.0186,-0.0056,0.0003,0.0078,-2.6360,1.4637,2.9765
2024-10-11T12:40:39.553Z,0.0063,-1.0026,0.1042,0.0369,0.0813,0.0197,-0.0029,0.0025,0.0045,-2.6377,1.4637,2.9782
2024-10-11T12:40:39.563Z,0.0085,-1.0031,0.1075,0.0369,0.0813,0.0197,-0.0040,0.0052,0.0033,-2.6377,1.4637,2.9782
2024-10-11T12:40:39.576Z,0.0037,-1.0053,0.1096,0.1296,0.1030,0.0163,-0.0053,0.0053,0.0007,-2.6384,1.4638,2.9787
2024-10-11T12:40:39.583Z,0.0074,-1.0036,0.1104,0.1296,0.1030,0.0163,-0.0052,0.0028,0.0018,-2.6384,1.4638,2.9787
2024-10-11T12:40:39.593Z,0.0079,-1.0022,0.1102,0.1296,0.1030,0.0163,-0.0064,0.0057,0.0024,-2.6384,1.4638,2.9787
2024-10-11T12:40:39.603Z,0.0135,-1.0017,0.1191,0.0206,0.0439,-0.1191,-0.0110,0.0084,0.0010,-2.6389,1.4640,2.9791
2024-10-11T12:40:39.613Z,0.0147,-0.9978,0.1229,0.0206,0.0439,-0.1191,-0.0117,0.0152,0.0018,-2.6389,1.4640,2.9791
2024-10-11T12:40:39.624Z,0.0159,-1.0019,0.1159,0.0206,0.0439,-0.1191,-0.0151,0.0174,0.0020,-2.6389,1.4640,2.9791
2024-10-11T12:40:39.633Z,0.0199,-1.0008,0.1127,0.0206,0.0439,-0.1191,-0.0149,0.0204,0.0026,-2.6389,1.4640,2.9791
2024-10-11T12:40:39.643Z,0.0182,-1.0015,0.1186,-0.0033,0.0552,-0.0737,-0.0117,0.0215,0.0058,-2.6392,1.4644,2.9797
2024-10-11T12:40:39.652Z,0.0210,-1.0009,0.1122,-0.0033,0.0552,-0.0737,-0.0141,0.0194,0.0038,-2.6392,1.4644,2.9797
2024-10-11T12:40:39.663Z,0.0164,-1.0016,0.1046,0.0295,0.0642,0.0116,-0.0135,0.0172,0.0029,-2.6400,1.4648,2.9809
2024-10-11T12:40:39.675Z,0.0099,-1.0004,0.1064,0.0295,0.0642,0.0116,-0.0139,0.0204,0.0008,-2.6400,1.4648,2.9809
2024-10-11T12:40:39.682Z,0.0099,-1.0004,0.1064,0.0295,0.0642,0.0116,-0.0148,0.0165,-0.0005,-2.6400,1.4648,2.9809
2024-10-11T12:40:39.693Z,0.0154,-1.0027,0.1000,0.0097,0.0991,0.0248,-0.0148,0.0165,-0.0005,-2.6399,1.4652,2.9812
2024-10-11T12:40:39.703Z,0.0155,-1.0081,0.0980,0.0097,0.0991,0.0248,-0.0132,0.0155,0.0012,-2.6399,1.4652,2.9812
2024-10-11T12:40:39.712Z,0.0240,-1.0066,0.0985,0.0097,0.0991,0.0248,-0.0107,0.0173,0.0019,-2.6399,1.4652,2.9812
2024-10-11T12:40:39.725Z,0.0291,-1.0083,0.0908,-0.1251,0.1479,0.0775,-0.0113,0.0173,0.0042,-2.6399,1.4655,2.9816
2024-10-11T12:40:39.733Z,0.0278,-1.0042,0.0972,-0.1251,0.1479,0.0775,-0.0115,0.0211,0.0045,-2.6399,1.4655,2.9816
2024-10-11T12:40:39.743Z,0.0299,-1.0021,0.0923,-0.1251,0.1479,0.0775,-0.0115,0.0211,0.0045,-2.6399,1.4655,2.9816
2024-10-11T12:40:39.754Z,0.0299,-1.0021,0.0923,-0.1661,0.0737,0.1115,-0.0077,0.0228,0.0079,-2.6413,1.4658,2.9833
2024-10-11T12:40:39.763Z,0.0298,-0.9997,0.0946,-0.1661,0.0737,0.1115,-0.0062,0.0194,0.0081,-2.6413,1.4658,2.9833
2024-10-11T12:40:39.774Z,0.0271,-0.9981,0.0971,-0.1661,0.0737,0.1115,-0.0079,0.0218,0.0111,-2.6413,1.4658,2.9833
2024-10-11T12:40:39.784Z,0.0271,-0.9981,0.0971,-0.1057,0.0239,0.0810,-0.0056,0.0158,0.0096,-2.6435,1.4660,2.9859
2024-10-11T12:40:39.792Z,0.0291,-0.9940,0.0940,-0.1057,0.0239,0.0810,-0.0027,0.0203,0.0085,-2.6435,1.4660,2.9859
2024-10-11T12:40:39.803Z,0.0196,-0.9939,0.0984,-0.1057,0.0239,0.0810,-0.0031,0.0194,0.0111,-2.6435,1.4660,2.9859
2024-10-11T12:40:39.814Z,0.0196,-0.9939,0.0984,-0.0599,0.0142,0.0706,-0.0044,0.0189,0.0092,-2.6459,1.4661,2.9886
2024-10-11T12:40:39.824Z,0.0151,-0.9952,0.1011,-0.0599,0.0142,0.0706,-0.0009,0.0169,0.0077,-2.6459,1.4661,2.9886
2024-10-11T12:40:39.833Z,0.0123,-0.9967,0.1054,-0.0599,0.0142,0.0706,0.0003,0.0188,0.0092,-2.6459,1.4661,2.9886
2024-10-11T12:40:39.843Z,0.0123,-0.9967,0.1054,-0.0599,0.0142,0.0706,-0.0005,0.0159,0.0067,-2.6459,1.4661,2.9886
2024-10-11T12:40:39.853Z,0.0156,-0.9951,0.1049,0.0472,0.0346,0.0012,0.0020,0.0154,0.0065,-2.6481,1.4662,2.9911
2024-10-11T12:40:39.863Z,0.0127,-0.9926,0.1028,0.0472,0.0346,0.0012,0.0014,0.0143,0.0072,-2.6481,1.4662,2.9911
2024-10-11T12:40:39.875Z,0.0127,-0.9926,0.1028,0.0163,-0.0305,-0.0108,-0.0039,0.0138,0.0086,-2.6501,1.4662,2.9934
2024-10-11T12:40:39.883Z,0.0146,-0.9892,0.1050,0.0163,-0.0305,-0.0108,-0.0020,0.0192,0.0073,-2.6501,1.4662,2.9934
2024-10-11T12:40:39.892Z,0.0146,-0.9892,0.1050,0.0163,-0.0305,-0.0108,-0.0011,0.0194,0.0099,-2.6501,1.4662,2.9934
2024-10-11T12:40:39.903Z,0.0170,-0.9841,0.1008,-0.0292,-0.1483,0.0404,0.0003,0.0202,0.0107,-2.6525,1.4663,2.9961
2024-10-11T12:40:39.913Z,0.0168,-0.9742,0.0982,-0.0292,-0.1483,0.0404,0.0003,0.0174,0.0111,-2.6525,1.4663,2.9961
2024-10-11T12:40:39.923Z,0.0143,-0.9766,0.0954,-0.0292,-0.1483,0.0404,0.0044,0.0199,0.0092,-2.6525,1.4663,2.9961
2024-10-11T12:40:39.933Z,0.0143,-0.9766,0.0954,0.0410,-0.1454,0.0868,0.0030,0.0200,0.0108,-2.6557,1.4663,2.9996
2024-10-11T12:40:39.942Z,0.0087,-0.9789,0.0906,0.0410,-0.1454,0.0868,0.0081,0.0132,0.0076,-2.6557,1.4663,2.9996
2024-10-11T12:40:39.953Z,0.0042,-0.9846,0.0904,0.0410,-0.1454,0.0868,0.0079,0.0135,0.0051,-2.6557,1.4663,2.9996
2024-10-11T12:40:39.963Z,0.0042,-0.9846,0.0904,0.0840,-0.1335,0.0937,0.0092,0.0104,0.0039,-2.6581,1.4660,3.0022
2024-10-11T12:40:39.972Z,0.0018,-0.9715,0.1073,0.0840,-0.1335,0.0937,0.0077,0.0105,0.0035,-2.6581,1.4660,3.0022
2024-10-11T12:40:39.982Z,0.0016,-0.9657,0.1113,0.0840,-0.1335,0.0937,0.0063,0.0103,0.0026,-2.6581,1.4660,3.0022
2024-10-11T12:40:39.994Z,0.0016,-0.9657,0.1113,0.0856,-0.2764,-0.0583,0.0040,0.0033,-0.0011,-2.6591,1.4658,3.0030
2024-10-11T12:40:40.002Z,0.0039,-0.9655,0.1086,0.0856,-0.2764,-0.0583,0.0055,0.0021,-0.0034,-2.6591,1.4658,3.0030
2024-10-11T12:40:40.013Z,0.0117,-0.9659,0.1130,0.0856,-0.2764,-0.0583,0.0065,-0.0012,-0.0009,-2.6591,1.4658,3.0030
2024-10-11T12:40:40.023Z,0.0117,-0.9659,0.1130,0.0563,-0.2889,-0.1203,0.0049,-0.0045,-0.0018,-2.6592,1.4657,3.0029
2024-10-11T12:40:40.033Z,0.0118,-0.9675,0.1196,0.0563,-0.2889,-0.1203,0.0030,-0.0004,-0.0007,-2.6592,1.4657,3.0029
2024-10-11T12:40:40.042Z,0.0118,-0.9675,0.1196,0.0563,-0.2889,-0.1203,0.0032,-0.0003,-0.0014,-2.6592,1.4657,3.0029
2024-10-11T12:40:40.053Z,0.0121,-0.9715,0.1131,-0.0175,-0.2092,-0.0842,0.0050,-0.0005,0.0019,-2.6598,1.4656,3.0032
2024-10-11T12:40:40.062Z,0.0208,-0.9740,0.1133,-0.0175,-0.2092,-0.0842,0.0019,0.0012,0.0008,-2.6598,1.4656,3.0032
2024-10-11T12:40:40.073Z,0.0134,-0.9740,0.1108,-0.0175,-0.2092,-0.0842,0.0027,-0.0025,0.0015,-2.6598,1.4656,3.0032
2024-10-11T12:40:40.083Z,0.0134,-0.9740,0.1108,0.0820,-0.1965,-0.0188,0.0011,-0.0064,0.0001,-2.6606,1.4655,3.0036
2024-10-11T12:40:40.092Z,0.0046,-0.9745,0.1008,0.0820,-0.1965,-0.0188,0.0031,-0.0101,-0.0011,-2.6606,1.4655,3.0036
2024-10-11T12:40:40.102Z,0.0022,-0.9801,0.0929,0.0820,-0.1965,-0.0188,0.0042,-0.0108,-0.0025,-2.6606,1.4655,3.0036
2024-10-11T12:40:40.113Z,0.0022,-0.9801,0.0929,0.0834,-0.1061,0.0845,0.0046,-0.0111,-0.0047,-2.6608,1.4653,3.0032
2024-10-11T12:40:40.123Z,0.0109,-0.9888,0.0966,0.0834,-0.1061,0.0845,0.0063,-0.0111,-0.0035,-2.6608,1.4653,3.0032
2024-10-11T12:40:40.133Z,0.0096,-0.9924,0.0930,0.0834,-0.1061,0.0845,0.0068,-0.0106,-0.0052,-2.6608,1.4653,3.0032
2024-10-11T12:40:40.143Z,0.0096,-0.9924,0.0930,0.0417,-0.0041,0.0808,0.0068,-0.0106,-0.0052,-2.6602,1.4650,3.0019
2024-10-11T12:40:40.153Z,0.0139,-0.9981,0.1037,0.0417,-0.0041,0.0808,0.0067,-0.0172,-0.0062,-2.6602,1.4650,3.0019
2024-10-11T12:40:40.163Z,0.0185,-0.9972,0.1169,0.0417,-0.0041,0.0808,0.0010,-0.0135,-0.0028,-2.6602,1.4650,3.0019
2024-10-11T12:40:40.174Z,0.0247,-1.0014,0.1106,-0.0636,0.0469,-0.0852,0.0037,-0.0135,-0.0032,-2.6596,1.4648,3.0007
2024-10-11T12:40:40.182Z,0.0182,-1.0025,0.1062,-0.0636,0.0469,-0.0852,0.0048,-0.0103,-0.0032,-2.6596,1.4648,3.0007
2024-10-11T12:40:40.192Z,0.0182,-1.0025,0.1062,-0.0636,0.0469,-0.0852,0.0058,-0.0096,-0.0043,-2.6596,1.4648,3.0007
2024-10-11T12:40:40.202Z,0.0136,-1.0044,0.1047,-0.0292,0.0972,0.0362,0.0038,-0.0118,-0.0037,-2.6597,1.4647,3.0001
2024-10-11T12:40:40.212Z,0.0201,-1.0049,0.1017,-0.0292,0.0972,0.0362,0.0083,-0.0148,0.0001,-2.6597,1.4647,3.0001
2024-10-11T12:40:40.222Z,0.0108,-1.0060,0.1004,-0.0292,0.0972,0.0362,0.0069,-0.0156,-0.0028,-2.6597,1.4647,3.0001
2024-10-11T12:40:40.233Z,0.0108,-1.0060,0.1004,0.0916,0.0986,0.0511,0.0079,-0.0138,-0.0026,-2.6598,1.4645,2.9996
2024-10-11T12:40:40.242Z,0.0063,-1.0048,0.1050,0.0916,0.0986,0.0511,0.0071,-0.0132,-0.0042,-2.6598,1.4645,2.9996
2024-10-11T12:40:40.253Z,0.0086,-1.0089,0.1054,0.0916,0.0986,0.0511,0.0052,-0.0118,-0.0050,-2.6598,1.4645,2.9996
2024-10-11T12:40:40.263Z,0.0059,-1.0112,0.1095,0.0850,0.1528,-0.0121,0.0042,-0.0130,-0.0060,-2.6587,1.4643,2.9977
2024-10-11T12:40:40.272Z,0.0100,-1.0143,0.1109,0.0850,0.1528,-0.0121,0.0065,-0.0145,-0.0066,-2.6587,1.4643,2.9977
2024-10-11T12:40:40.282Z,0.0145,-1.0186,0.1062,0.0850,0.1528,-0.0121,0.0057,-0.0161,-0.0072,-2.6587,1.4643,2.9977
2024-10-11T12:40:40.293Z,0.0145,-1.0186,0.1062,-0.0111,0.2477,-0.0288,0.0057,-0.0161,-0.0072,-2.6573,1.4641,2.9957
2024-10-11T12:40:40.303Z,0.0191,-1.0252,0.1010,-0.0111,0.2477,-0.0288,0.0067,-0.0091,-0.0067,-2.6573,1.4641,2.9957
2024-10-11T12:40:40.313Z,0.0199,-1.0248,0.1004,-0.0111,0.2477,-0.0288,0.0057,-0.0071,-0.0064,-2.6573,1.4641,2.9957
2024-10-11T12:40:40.323Z,0.0199,-1.0248,0.1004,-0.0461,0.3099,0.0275,0.0038,-0.0061,-0.0059,-2.6561,1.4639,2.9939
2024-10-11T12:40:40.333Z,0.0175,-1.0260,0.1020,-0.0461,0.3099,0.0275,0.0029,-0.0075,-0.0057,-2.6561,1.4639,2.9939
2024-10-11T12:40:40.343Z,0.0171,-1.0258,0.0992,-0.0461,0.3099,0.0275,0.0064,-0.0103,-0.0075,-2.6561,1.4639,2.9939
2024-10-11T12:40:40.353Z,0.0156,-1.0248,0.0972,0.0006,0.3132,0.0673,0.0047,-0.0086,-0.0066,-2.6550,1.4637,2.9923
2024-10-11T12:40:40.363Z,0.0135,-1.0220,0.1012,0.0006,0.3132,0.0673,0.0044,-0.0089,-0.0062,-2.6550,1.4637,2.9923
2024-10-11T12:40:40.372Z,0.0095,-1.0171,0.0993,0.0006,0.3132,0.0673,0.0041,-0.0111,-0.0099,-2.6550,1.4637,2.9923
2024-10-11T12:40:40.382Z,0.0095,-1.0171,0.0993,0.0376,0.2190,0.0484,0.0093,-0.0155,-0.0078,-2.6530,1.4635,2.9897
2024-10-11T12:40:40.392Z,0.0153,-1.0142,0.0986,0.0376,0.2190,0.0484,0.0040,-0.0171,-0.0105,-2.6530,1.4635,2.9897
2024-10-11T12:40:40.403Z,0.0131,-1.0100,0.1089,0.0376,0.2190,0.0484,0.0049,-0.0171,-0.0098,-2.6530,1.4635,2.9897
2024-10-11T12:40:40.412Z,0.0131,-1.0100,0.1089,0.0354,0.1524,-0.0119,0.0043,-0.0139,-0.0105,-2.6505,1.4633,2.9865
2024-10-11T12:40:40.422Z,0.0224,-1.0099,0.1017,0.0354,0.1524,-0.0119,0.0020,-0.0135,-0.0071,-2.6505,1.4633,2.9865
2024-10-11T12:40:40.433Z,0.0215,-1.0094,0.1057,0.0354,0.1524,-0.0119,0.0007,-0.0107,-0.0090,-2.6505,1.4633,2.9865
2024-10-11T12:40:40.443Z,0.0215,-1.0094,0.1057,-0.0130,0.1257,0.0139,0.0023,-0.0146,-0.0060,-2.6483,1.4632,2.9836
2024-10-11T12:40:40.453Z,0.0259,-1.0070,0.1109,-0.0130,0.1257,0.0139,-0.0004,-0.0121,-0.0066,-2.6483,1.4632,2.9836
2024-10-11T12:40:40.462Z,0.0233,-1.0087,0.1114,-0.0130,0.1257,0.0139,-0.0044,-0.0112,-0.0045,-2.6483,1.4632,2.9836
2024-10-11T12:40:40.472Z,0.0233,-1.0087,0.1114,-0.0412,0.1217,-0.0377,-0.0045,-0.0085,-0.0058,-2.6470,1.4632,2.9819
2024-10-11T12:40:40.483Z,0.0189,-0.9980,0.1137,-0.0412,0.1217,-0.0377,-0.0049,-0.0069,-0.0030,-2.6470,1.4632,2.9819
2024-10-11T12:40:40.493Z,0.0207,-0.9955,0.1120,-0.0412,0.1217,-0.0377,-0.0082,-0.0046,-0.0021,-2.6470,1.4632,2.9819
2024-10-11T12:40:40.502Z,0.0134,-0.9919,0.1142,-0.0058,-0.0119,-0.0611,-0.0110,-0.0025,-0.0023,-2.6461,1.4634,2.9805
2024-10-11T12:40:40.513Z,0.0110,-0.9891,0.1103,-0.0058,-0.0119,-0.0611,-0.0106,-0.0028,-0.0036,-2.6461,1.4634,2.9805
2024-10-11T12:40:40.522Z,0.0104,-0.9875,0.1102,-0.0058,-0.0119,-0.0611,-0.0104,0.0009,-0.0017,-2.6461,1.4634,2.9805
2024-10-11T12:40:40.533Z,0.0104,-0.9875,0.1102,0.0759,-0.0797,-0.0829,-0.0123,0.0016,-0.0037,-2.6453,1.4637,2.9794
2024-10-11T12:40:40.543Z,0.0091,-0.9847,0.1129,0.0759,-0.0797,-0.0829,-0.0119,0.0030,-0.0028,-2.6453,1.4637,2.9794
2024-10-11T12:40:40.553Z,0.0076,-0.9865,0.1098,0.0759,-0.0797,-0.0829,-0.0136,0.0020,0.0001,-2.6453,1.4637,2.9794
2024-10-11T12:40:40.563Z,0.0104,-0.9831,0.1081,0.0785,-0.0801,-0.0708,-0.0136,0.0018,0.0003,-2.6445,1.4641,2.9784
2024-10-11T12:40:40.572Z,0.0154,-0.9808,0.1074,0.0785,-0.0801,-0.0708,-0.0163,0.0038,-0.0010,-2.6445,1.4641,2.9784
2024-10-11T12:40:40.582Z,0.0216,-0.9756,0.1100,0.0785,-0.0801,-0.0708,-0.0158,0.0062,-0.0010,-2.6445,1.4641,2.9784
2024-10-11T12:40:40.593Z,0.0216,-0.9756,0.1100,-0.0306,-0.2024,-0.0570,-0.0185,0.0104,0.0008,-2.6438,1.4645,2.9777
2024-10-11T12:40:40.603Z,0.0180,-0.9708,0.1047,-0.0306,-0.2024,-0.0570,-0.0162,0.0082,0.0025,-2.6438,1.4645,2.9777
2024-10-11T12:40:40.613Z,0.0198,-0.9720,0.1041,-0.0306,-0.2024,-0.0570,-0.0172,0.0110,0.0022,-2.6438,1.4645,2.9777
2024-10-11T12:40:40.622Z,0.0182,-0.9768,0.0940,-0.0165,-0.1891,0.0613,-0.0159,0.0127,0.0045,-2.6440,1.4650,2.9781
2024-10-11T12:40:40.633Z,0.0217,-0.9718,0.0977,-0.0165,-0.1891,0.0613,-0.0135,0.0134,0.0045,-2.6440,1.4650,2.9781
2024-10-11T12:40:40.642Z,0.0205,-0.9655,0.0998,-0.0165,-0.1891,0.0613,-0.0164,0.0134,0.0044,-2.6440,1.4650,2.9781
2024-10-11T12:40:40.653Z,0.0144,-0.9584,0.1034,-0.0100,-0.3213,0.0291,-0.0162,0.0109,0.0067,-2.6448,1.4654,2.9791
2024-10-11T12:40:40.662Z,0.0150,-0.9554,0.1028,-0.0100,-0.3213,0.0291,-0.0133,0.0097,0.0040,-2.6448,1.4654,2.9791
2024-10-11T12:40:40.672Z,0.0169,-0.9520,0.1074,-0.0100,-0.3213,0.0291,-0.0154,0.0077,0.0026,-2.6448,1.4654,2.9791
2024-10-11T12:40:40.683Z,0.0169,-0.9520,0.1074,-0.0236,-0.4188,-0.0694,-0.0140,0.0084,0.0048,-2.6454,1.4659,2.9798
2024-10-11T12:40:40.694Z,0.0094,-0.9501,0.1159,-0.0236,-0.4188,-0.0694,-0.0176,0.0078,0.0042,-2.6454,1.4659,2.9798
2024-10-11T12:40:40.702Z,0.0092,-0.9544,0.1165,-0.0236,-0.4188,-0.0694,-0.0153,0.0076,0.0037,-2.6454,1.4659,2.9798
2024-10-11T12:40:40.713Z,0.0118,-0.9569,0.1150,0.0526,-0.3864,-0.1312,-0.0165,0.0065,0.0034,-2.6460,1.4663,2.9803
2024-10-11T12:40:40.722Z,0.0135,-0.9600,0.1091,0.0526,-0.3864,-0.1312,-0.0138,0.0058,0.0034,-2.6460,1.4663,2.9803
2024-10-11T12:40:40.733Z,0.0275,-0.9611,0.1078,0.0526,-0.3864,-0.1312,-0.0141,0.0084,0.0052,-2.6460,1.4663,2.9803
2024-10-11T12:40:40.743Z,0.0272,-0.9637,0.1103,-0.1348,-0.3149,-0.0881,-0.0136,0.0125,0.0065,-2.6469,1.4667,2.9813
2024-10-11T12:40:40.753Z,0.0175,-0.9641,0.1031,-0.1348,-0.3149,-0.0881,-0.0113,0.0173,0.0069,-2.6469,1.4667,2.9813
2024-10-11T12:40:40.762Z,0.0126,-0.9647,0.0921,-0.1348,-0.3149,-0.0881,-0.0092,0.0130,0.0071,-2.6469,1.4667,2.9813
2024-10-11T12:40:40.772Z,0.0173,-0.9627,0.0852,0.0339,-0.2993,0.1358,-0.0063,0.0094,0.0051,-2.6485,1.4670,2.9831
2024-10-11T12:40:40.782Z,0.0177,-0.9615,0.0849,0.0339,-0.2993,0.1358,-0.0039,0.0108,0.0054,-2.6485,1.4670,2.9831
2024-10-11T12:40:40.793Z,0.0139,-0.9634,0.0805,0.0339,-0.2993,0.1358,-0.0024,0.0127,0.0063,-2.6485,1.4670,2.9831
2024-10-11T12:40:40.803Z,0.0121,-0.9633,0.0753,0.0329,-0.3020,0.2462,0.0046,0.0078,0.0069,-2.6505,1.4670,2.9851
2024-10-11T12:40:40.812Z,0.0127,-0.9663,0.0763,0.0329,-0.3020,0.2462,0.0068,0.0017,0.0039,-2.6505,1.4670,2.9851
2024-10-11T12:40:40.822Z,0.0159,-0.9697,0.0829,0.0329,-0.3020,0.2462,0.0060,0.0022,0.0045,-2.6505,1.4670,2.9851
2024-10-11T12:40:40.833Z,0.0160,-0.9741,0.0865,-0.0259,-0.2202,0.1884,0.0083,-0.0003,0.0034,-2.6517,1.4668,2.9863
2024-10-11T12:40:40.842Z,0.0114,-0.9792,0.0907,-0.0259,-0.2202,0.1884,0.0130,0.0023,0.0029,-2.6517,1.4668,2.9863
2024-10-11T12:40:40.852Z,0.0228,-0.9864,0.0960,-0.0259,-0.2202,0.1884,0.0116,0.0075,0.0057,-2.6517,1.4668,2.9863
2024-10-11T12:40:40.862Z,0.0204,-0.9899,0.0970,-0.0768,-0.0604,0.0885,0.0142,0.0091,0.0055,-2.6536,1.4665,2.9881
2024-10-11T12:40:40.872Z,0.0166,-0.9925,0.1006,-0.0768,-0.0604,0.0885,0.0127,0.0086,0.0047,-2.6536,1.4665,2.9881
2024-10-11T12:40:40.883Z,0.0171,-0.9965,0.1078,-0.0768,-0.0604,0.0885,0.0145,0.0127,0.0056,-2.6536,1.4665,2.9881
2024-10-11T12:40:40.893Z,0.0171,-0.9965,0.1078,-0.0247,0.0372,-0.0552,0.0153,0.0162,0.0068,-2.6559,1.4661,2.9905
2024-10-11T12:40:40.903Z,0.0204,-1.0018,0.1106,-0.0247,0.0372,-0.0552,0.0149,0.0179,0.0059,-2.6559,1.4661,2.9905
2024-10-11T12:40:40.912Z,0.0229,-1.0061,0.1065,-0.0247,0.0372,-0.0552,0.0154,0.0193,0.0062,-2.6559,1.4661,2.9905
2024-10-11T12:40:40.922Z,0.0203,-1.0107,0.1107,-0.0638,0.1358,-0.0481,0.0151,0.0213,0.0040,-2.6581,1.4658,2.9931
2024-10-11T12:40:40.932Z,0.0120,-1.0121,0.1105,-0.0638,0.1358,-0.0481,0.0159,0.0258,0.0029,-2.6581,1.4658,2.9931
2024-10-11T12:40:40.942Z,0.0138,-1.0136,0.1076,-0.0638,0.1358,-0.0481,0.0183,0.0277,0.0033,-2.6581,1.4658,2.9931
2024-10-11T12:40:40.953Z,0.0151,-1.0155,0.1070,0.0241,0.1961,-0.0495,0.0180,0.0300,0.0038,-2.6595,1.4653,2.9950
2024-10-11T12:40:40.962Z,0.0168,-1.0170,0.1098,0.0241,0.1961,-0.0495,0.0193,0.0287,-0.0005,-2.6595,1.4653,2.9950
2024-10-11T12:40:40.972Z,0.0129,-1.0221,0.1053,0.0241,0.1961,-0.0495,0.0190,0.0286,-0.0001,-2.6595,1.4653,2.9950
2024-10-11T12:40:40.983Z,0.0233,-1.0285,0.1023,-0.0188,0.3030,-0.0124,0.0218,0.0254,-0.0023,-2.6607,1.4647,2.9968
2024-10-11T12:40:40.993Z,0.0252,-1.0342,0.1068,-0.0188,0.3030,-0.0124,0.0216,0.0322,0.0003,-2.6607,1.4647,2.9968
2024-10-11T12:40:41.002Z,0.0294,-1.0402,0.1082,-0.0188,0.3030,-0.0124,0.0227,0.0354,-0.0005,-2.6607,1.4647,2.9968
2024-10-11T12:40:41.013Z,0.0294,-1.0466,0.1050,-0.1500,0.4753,-0.0180,0.0216,0.0365,-0.0013,-2.6618,1.4641,2.9986
2024-10-11T12:40:41.022Z,0.0262,-1.0555,0.1102,-0.1500,0.4753,-0.0180,0.0227,0.0337,-0.0027,-2.6618,1.4641,2.9986
2024-10-11T12:40:41.032Z,0.0216,-1.0649,0.1151,-0.1500,0.4753,-0.0180,0.0205,0.0308,-0.0028,-2.6618,1.4641,2.9986
2024-10-11T12:40:41.044Z,0.0198,-1.0711,0.1083,-0.0581,0.7376,-0.0550,0.0184,0.0353,-0.0039,-2.6624,1.4634,2.9999
2024-10-11T12:40:41.052Z,0.0193,-1.0746,0.1070,-0.0581,0.7376,-0.0550,0.0211,0.0386,-0.0034,-2.6624,1.4634,2.9999
2024-10-11T12:40:41.062Z,0.0286,-1.0727,0.1099,-0.0581,0.7376,-0.0550,0.0173,0.0360,-0.0053,-2.6624,1.4634,2.9999
2024-10-11T12:40:41.072Z,0.0223,-1.0679,0.1134,-0.1251,0.7445,-0.0241,0.0177,0.0364,-0.0064,-2.6619,1.4628,3.0002
2024-10-11T12:40:41.083Z,0.0188,-1.0660,0.1140,-0.1251,0.7445,-0.0241,0.0143,0.0314,-0.0098,-2.6619,1.4628,3.0002
2024-10-11T12:40:41.092Z,0.0192,-1.0617,0.1152,-0.1251,0.7445,-0.0241,0.0137,0.0347,-0.0076,-2.6619,1.4628,3.0002
2024-10-11T12:40:41.102Z,0.0233,-1.0597,0.1180,-0.0322,0.6507,-0.0561,0.0135,0.0313,-0.0071,-2.6604,1.4624,2.9995
2024-10-11T12:40:41.112Z,0.0287,-1.0582,0.1197,-0.0322,0.6507,-0.0561,0.0122,0.0351,-0.0080,-2.6604,1.4624,2.9995
2024-10-11T12:40:41.122Z,0.0191,-1.0548,0.1313,-0.0322,0.6507,-0.0561,0.0099,0.0264,-0.0078,-2.6604,1.4624,2.9995
2024-10-11T12:40:41.133Z,0.0228,-1.0535,0.1344,-0.0459,0.5901,-0.2483,0.0067,0.0228,-0.0096,-2.6587,1.4620,2.9983
2024-10-11T12:40:41.142Z,0.0229,-1.0516,0.1302,-0.0459,0.5901,-0.2483,0.0035,0.0221,-0.0083,-2.6587,1.4620,2.9983
2024-10-11T12:40:41.153Z,0.0214,-1.0486,0.1251,-0.0459,0.5901,-0.2483,0.0049,0.0267,-0.0082,-2.6587,1.4620,2.9983
2024-10-11T12:40:41.163Z,0.0214,-1.0486,0.1251,-0.0607,0.5193,-0.1591,-0.0005,0.0229,-0.0083,-2.6563,1.4619,2.9964
2024-10-11T12:40:41.172Z,0.0184,-1.0427,0.1214,-0.0607,0.5193,-0.1591,-0.0023,0.0241,-0.0113,-2.6563,1.4619,2.9964
2024-10-11T12:40:41.182Z,0.0174,-1.0386,0.1101,-0.0607,0.5193,-0.1591,-0.0011,0.0196,-0.0108,-2.6563,1.4619,2.9964
2024-10-11T12:40:41.194Z,0.0220,-1.0307,0.1076,-0.0458,0.3925,-0.0245,-0.0052,0.0196,-0.0104,-2.6533,1.4619,2.9939
2024-10-11T12:40:41.202Z,0.0185,-1.0188,0.1063,-0.0458,0.3925,-0.0245,-0.0064,0.0204,-0.0106,-2.6533,1.4619,2.9939
2024-10-11T12:40:41.212Z,0.0160,-1.0126,0.1060,-0.0458,0.3925,-0.0245,-0.0090,0.0226,-0.0121,-2.6533,1.4619,2.9939
2024-10-11T12:40:41.222Z,0.0099,-1.0093,0.1038,0.0312,0.1589,0.0036,-0.0076,0.0217,-0.0136,-2.6501,1.4620,2.9910
2024-10-11T12:40:41.233Z,0.0105,-1.0064,0.1052,0.0312,0.1589,0.0036,-0.0061,0.0202,-0.0124,-2.6501,1.4620,2.9910
2024-10-11T12:40:41.242Z,0.0173,-0.9990,0.1009,0.0312,0.1589,0.0036,-0.0077,0.0163,-0.0121,-2.6501,1.4620,2.9910
2024-10-11T12:40:41.252Z,0.0142,-0.9968,0.1076,-0.0028,0.0394,0.0097,-0.0076,0.0159,-0.0113,-2.6468,1.4621,2.9880
2024-10-11T12:40:41.262Z,0.0170,-0.9897,0.1140,-0.0028,0.0394,0.0097,-0.0105,0.0166,-0.0097,-2.6468,1.4621,2.9880
2024-10-11T12:40:41.272Z,0.0145,-0.9817,0.1183,-0.0028,0.0394,0.0097,-0.0122,0.0204,-0.0111,-2.6468,1.4621,2.9880
2024-10-11T12:40:41.283Z,0.0104,-0.9804,0.1131,0.0584,-0.1233,-0.0950,-0.0153,0.0201,-0.0115,-2.6436,1.4624,2.9850
2024-10-11T12:40:41.293Z,0.0174,-0.9746,0.1076,0.0584,-0.1233,-0.0950,-0.0117,0.0200,-0.0095,-2.6436,1.4624,2.9850
2024-10-11T12:40:41.303Z,0.0113,-0.9771,0.1110,0.0584,-0.1233,-0.0950,-0.0135,0.0215,-0.0101,-2.6436,1.4624,2.9850
2024-10-11T12:40:41.312Z,0.0178,-0.9758,0.1126,0.0204,-0.1597,-0.0491,-0.0114,0.0221,-0.0060,-2.6410,1.4628,2.9828
2024-10-11T12:40:41.322Z,0.0157,-0.9732,0.1086,0.0204,-0.1597,-0.0491,-0.0148,0.0239,-0.0064,-2.6410,1.4628,2.9828
2024-10-11T12:40:41.333Z,0.0128,-0.9768,0.1031,0.0204,-0.1597,-0.0491,-0.0146,0.0277,-0.0074,-2.6410,1.4628,2.9828
2024-10-11T12:40:41.343Z,0.0202,-0.9733,0.1048,0.0066,-0.1957,0.0330,-0.0160,0.0330,-0.0041,-2.6390,1.4631,2.9813
2024-10-11T12:40:41.353Z,0.0213,-0.9712,0.0992,0.0066,-0.1957,0.0330,-0.0146,0.0314,-0.0031,-2.6390,1.4631,2.9813
2024-10-11T12:40:41.362Z,0.0181,-0.9707,0.0942,0.0066,-0.1957,0.0330,-0.0132,0.0319,-0.0031,-2.6390,1.4631,2.9813
2024-10-11T12:40:41.372Z,0.0099,-0.9657,0.0962,0.0331,-0.2588,0.1332,-0.0124,0.0308,-0.0046,-2.6380,1.4635,2.9811
2024-10-11T12:40:41.383Z,0.0152,-0.9614,0.0949,0.0331,-0.2588,0.1332,-0.0127,0.0310,-0.0033,-2.6380,1.4635,2.9811
2024-10-11T12:40:41.392Z,0.0166,-0.9600,0.0959,0.0331,-0.2588,0.1332,-0.0108,0.0309,-0.0058,-2.6380,1.4635,2.9811
2024-10-11T12:40:41.402Z,0.0164,-0.9604,0.0937,0.0231,-0.3357,0.0988,-0.0089,0.0299,-0.0031,-2.6368,1.4638,2.9806
2024-10-11T12:40:41.412Z,0.0238,-0.9640,0.0962,0.0231,-0.3357,0.0988,-0.0099,0.0307,-0.0023,-2.6368,1.4638,2.9806
2024-10-11T12:40:41.422Z,0.0236,-0.9659,0.0987,0.0231,-0.3357,0.0988,-0.0083,0.0304,-0.0017,-2.6368,1.4638,2.9806
2024-10-11T12:40:41.432Z,0.0279,-0.9705,0.0916,-0.0787,-0.2632,0.0818,-0.0058,0.0282,0.0000,-2.6363,1.4640,2.9808
2024-10-11T12:40:41.443Z,0.0287,-0.9743,0.0934,-0.0787,-0.2632,0.0818,-0.0114,0.0324,0.0010,-2.6363,1.4640,2.9808
2024-10-11T12:40:41.453Z,0.0278,-0.9721,0.0952,-0.0787,-0.2632,0.0818,-0.0096,0.0310,0.0016,-2.6363,1.4640,2.9808
2024-10-11T12:40:41.463Z,0.0222,-0.9659,0.0974,-0.0736,-0.2427,0.0636,-0.0067,0.0309,0.0008,-2.6366,1.4642,2.9817
2024-10-11T12:40:41.472Z,0.0247,-0.9625,0.0954,-0.0736,-0.2427,0.0636,-0.0082,0.0316,0.0018,-2.6366,1.4642,2.9817
2024-10-11T12:40:41.483Z,0.0202,-0.9615,0.0840,-0.0736,-0.2427,0.0636,-0.0047,0.0330,0.0010,-2.6366,1.4642,2.9817
2024-10-11T12:40:41.494Z,0.0226,-0.9635,0.0798,-0.0527,-0.3036,0.2359,-0.0023,0.0307,0.0033,-2.6372,1.4644,2.9830
2024-10-11T12:40:41.502Z,0.0183,-0.9598,0.0922,-0.0527,-0.3036,0.2359,-0.0016,0.0286,0.0001,-2.6372,1.4644,2.9830
2024-10-11T12:40:41.512Z,0.0203,-0.9593,0.0955,-0.0527,-0.3036,0.2359,0.0022,0.0240,0.0004,-2.6372,1.4644,2.9830
2024-10-11T12:40:41.522Z,0.0248,-0.9626,0.0986,-0.0568,-0.3324,0.0612,0.0023,0.0213,0.0032,-2.6374,1.4645,2.9837
2024-10-11T12:40:41.532Z,0.0319,-0.9655,0.1003,-0.0568,-0.3324,0.0612,-0.0003,0.0198,0.0033,-2.6374,1.4645,2.9837
2024-10-11T12:40:41.543Z,0.0237,-0.9658,0.1071,-0.0568,-0.3324,0.0612,-0.0009,0.0239,0.0052,-2.6374,1.4645,2.9837
2024-10-11T12:40:41.553Z,0.0183,-0.9639,0.1211,-0.0245,-0.2973,-0.0858,-0.0025,0.0238,0.0051,-2.6388,1.4645,2.9855
2024-10-11T12:40:41.563Z,0.0224,-0.9649,0.1255,-0.0245,-0.2973,-0.0858,-0.0053,0.0260,0.0058,-2.6388,1.4645,2.9855
2024-10-11T12:40:41.572Z,0.0173,-0.9638,0.1237,-0.0245,-0.2973,-0.0858,-0.0062,0.0217,0.0089,-2.6388,1.4645,2.9855
2024-10-11T12:40:41.583Z,0.0190,-0.9626,0.1223,-0.0002,-0.3107,-0.1851,-0.0082,0.0238,0.0086,-2.6405,1.4647,2.9877
2024-10-11T12:40:41.593Z,0.0198,-0.9636,0.1240,-0.0002,-0.3107,-0.1851,-0.0122,0.0307,0.0058,-2.6405,1.4647,2.9877
2024-10-11T12:40:41.603Z,0.0145,-0.9648,0.1193,-0.0002,-0.3107,-0.1851,-0.0118,0.0338,0.0074,-2.6405,1.4647,2.9877
2024-10-11T12:40:41.613Z,0.0123,-0.9703,0.1131,0.0233,-0.2675,-0.1202,-0.0104,0.0369,0.0083,-2.6424,1.4651,2.9904
2024-10-11T12:40:41.622Z,0.0085,-0.9735,0.1101,0.0233,-0.2675,-0.1202,-0.0102,0.0393,0.0043,-2.6424,1.4651,2.9904
2024-10-11T12:40:41.633Z,0.0110,-0.9720,0.1098,0.0233,-0.2675,-0.1202,-0.0086,0.0380,0.0060,-2.6424,1.4651,2.9904
2024-10-11T12:40:41.644Z,0.0041,-0.9707,0.1097,0.0719,-0.2235,-0.0475,-0.0081,0.0421,0.0078,-2.6444,1.4653,2.9933
2024-10-11T12:40:41.652Z,0.0036,-0.9749,0.1096,0.0719,-0.2235,-0.0475,-0.0077,0.0357,0.0058,-2.6444,1.4653,2.9933
2024-10-11T12:40:41.662Z,0.0119,-0.9764,0.1112,0.0719,-0.2235,-0.0475,-0.0102,0.0388,0.0048,-2.6444,1.4653,2.9933
2024-10-11T12:40:41.672Z,0.0159,-0.9787,0.1051,0.0104,-0.1570,-0.0420,-0.0073,0.0363,0.0089,-2.6462,1.4655,2.9960
2024-10-11T12:40:41.682Z,0.0190,-0.9780,0.1110,0.0104,-0.1570,-0.0420,-0.0078,0.0337,0.0077,-2.6462,1.4655,2.9960
2024-10-11T12:40:41.694Z,0.0162,-0.9762,0.1191,0.0104,-0.1570,-0.0420,-0.0072,0.0341,0.0078,-2.6462,1.4655,2.9960
2024-10-11T12:40:41.703Z,0.0068,-0.9738,0.1217,0.0466,-0.2016,-0.1692,-0.0135,0.0338,0.0069,-2.6481,1.4658,2.9986
2024-10-11T12:40:41.713Z,0.0182,-0.9757,0.1217,0.0466,-0.2016,-0.1692,-0.0119,0.0304,0.0050,-2.6481,1.4658,2.9986
2024-10-11T12:40:41.722Z,0.0172,-0.9783,0.1181,0.0466,-0.2016,-0.1692,-0.0155,0.0273,0.0077,-2.6481,1.4658,2.9986
2024-10-11T12:40:41.733Z,0.0178,-0.9805,0.1148,-0.0132,-0.1452,-0.1269,-0.0196,0.0205,0.0057,-2.6497,1.4662,3.0008
2024-10-11T12:40:41.743Z,0.0168,-0.9836,0.1144,-0.0132,-0.1452,-0.1269,-0.0221,0.0283,0.0045,-2.6497,1.4662,3.0008
2024-10-11T12:40:41.752Z,0.0093,-0.9877,0.1121,-0.0132,-0.1452,-0.1269,-0.0198,0.0280,0.0038,-2.6497,1.4662,3.0008
2024-10-11T12:40:41.763Z,0.0149,-0.9888,0.1100,0.0184,-0.0724,-0.0863,-0.0229,0.0278,0.0045,-2.6504,1.4668,3.0020
2024-10-11T12:40:41.772Z,0.0182,-0.9877,0.1099,0.0184,-0.0724,-0.0863,-0.0204,0.0266,0.0032,-2.6504,1.4668,3.0020
2024-10-11T12:40:41.782Z,0.0199,-0.9855,0.1045,0.0184,-0.0724,-0.0863,-0.0211,0.0286,0.0027,-2.6504,1.4668,3.0020
2024-10-11T12:40:41.793Z,0.0151,-0.9824,0.1061,-0.0336,-0.1275,-0.0275,-0.0217,0.0268,0.0040,-2.6511,1.4673,3.0032
2024-10-11T12:40:41.802Z,0.0150,-0.9821,0.1051,-0.0336,-0.1275,-0.0275,-0.0244,0.0242,0.0023,-2.6511,1.4673,3.0032
2024-10-11T12:40:41.812Z,0.0123,-0.9821,0.0987,-0.0336,-0.1275,-0.0275,-0.0250,0.0240,0.0028,-2.6511,1.4673,3.0032
2024-10-11T12:40:41.822Z,0.0133,-0.9851,0.0974,0.0267,-0.1145,0.0366,-0.0243,0.0220,0.0012,-2.6509,1.4680,3.0035
2024-10-11T12:40:41.833Z,0.0162,-0.9872,0.0943,0.0267,-0.1145,0.0366,-0.0237,0.0210,0.0030,-2.6509,1.4680,3.0035
2024-10-11T12:40:41.843Z,0.0204,-0.9886,0.0939,0.0267,-0.1145,0.0366,-0.0215,0.0182,0.0026,-2.6509,1.4680,3.0035
2024-10-11T12:40:41.852Z,0.0190,-0.9852,0.0900,-0.0542,-0.0712,0.0686,-0.0219,0.0189,0.0004,-2.6508,1.4686,3.0037
2024-10-11T12:40:41.863Z,0.0204,-0.9841,0.0828,-0.0542,-0.0712,0.0686,-0.0218,0.0187,0.0032,-2.6508,1.4686,3.0037
2024-10-11T12:40:41.872Z,0.0223,-0.9839,0.0756,-0.0542,-0.0712,0.0686,-0.0192,0.0165,0.0009,-2.6508,1.4686,3.0037
2024-10-11T12:40:41.882Z,0.0225,-0.9821,0.0766,-0.0844,-0.1117,0.2386,-0.0170,0.0181,0.0002,-2.6509,1.4691,3.0041
2024-10-11T12:40:41.893Z,0.0163,-0.9823,0.0833,-0.0844,-0.1117,0.2386,-0.0146,0.0152,0.0017,-2.6509,1.4691,3.0041
2024-10-11T12:40:41.902Z,0.0168,-0.9811,0.0761,-0.0844,-0.1117,0.2386,-0.0127,0.0161,-0.0026,-2.6509,1.4691,3.0041
2024-10-11T12:40:41.913Z,0.0205,-0.9806,0.0619,-0.0444,-0.1279,0.3093,-0.0079,0.0179,-0.0004,-2.6508,1.4695,3.0041
2024-10-11T12:40:41.923Z,0.0239,-0.9845,0.0574,-0.0444,-0.1279,0.3093,-0.0075,0.0190,-0.0013,-2.6508,1.4695,3.0041
2024-10-11T12:40:41.933Z,0.0198,-0.9848,0.0594,-0.0444,-0.1279,0.3093,-0.0042,0.0143,-0.0016,-2.6508,1.4695,3.0041
2024-10-11T12:40:41.945Z,0.0202,-0.9902,0.0592,-0.0725,-0.0684,0.3840,0.0011,0.0123,-0.0023,-2.6502,1.4697,3.0037
2024-10-11T12:40:41.952Z,0.0185,-0.9910,0.0563,-0.0725,-0.0684,0.3840,0.0009,0.0075,0.0003,-2.6502,1.4697,3.0037
2024-10-11T12:40:41.962Z,0.0239,-0.9929,0.0570,-0.0725,-0.0684,0.3840,0.0031,0.0071,-0.0001,-2.6502,1.4697,3.0037
2024-10-11T12:40:41.972Z,0.0200,-0.9946,0.0667,-0.0865,-0.0066,0.3905,0.0041,0.0060,-0.0015,-2.6498,1.4696,3.0033
2024-10-11T12:40:41.982Z,0.0175,-0.9949,0.0754,-0.0865,-0.0066,0.3905,0.0078,0.0016,-0.0016,-2.6498,1.4696,3.0033
2024-10-11T12:40:41.993Z,0.0187,-0.9990,0.0793,-0.0865,-0.0066,0.3905,0.0096,0.0007,-0.0026,-2.6498,1.4696,3.0033
2024-10-11T12:40:42.003Z,0.0178,-1.0037,0.0800,-0.0430,0.0711,0.2087,0.0100,-0.0021,-0.0017,-2.6492,1.4695,3.0026
2024-10-11T12:40:42.012Z,0.0222,-1.0024,0.0808,-0.0430,0.0711,0.2087,0.0118,0.0009,-0.0034,-2.6492,1.4695,3.0026
2024-10-11T12:40:42.022Z,0.0249,-1.0019,0.0829,-0.0430,0.0711,0.2087,0.0122,0.0043,-0.0008,-2.6492,1.4695,3.0026
2024-10-11T12:40:42.033Z,0.0169,-1.0010,0.0851,-0.0697,0.0596,0.1659,0.0142,0.0038,-0.0032,-2.6490,1.4693,3.0021
2024-10-11T12:40:42.043Z,0.0148,-1.0005,0.0782,-0.0697,0.0596,0.1659,0.0180,-0.0018,-0.0025,-2.6490,1.4693,3.0021
2024-10-11T12:40:42.052Z,0.0099,-0.9988,0.0715,-0.0697,0.0596,0.1659,0.0176,-0.0028,-0.0020,-2.6490,1.4693,3.0021
2024-10-11T12:40:42.063Z,0.0060,-0.9942,0.0714,0.0588,0.0006,0.2823,0.0225,-0.0065,-0.0047,-2.6486,1.4689,3.0014
2024-10-11T12:40:42.072Z,0.0009,-0.9950,0.0767,0.0588,0.0006,0.2823,0.0218,-0.0033,-0.0059,-2.6486,1.4689,3.0014
2024-10-11T12:40:42.083Z,0.0076,-0.9973,0.0849,0.0588,0.0006,0.2823,0.0218,0.0001,-0.0064,-2.6486,1.4689,3.0014
2024-10-11T12:40:42.093Z,0.0124,-1.0039,0.0858,0.0183,0.0486,0.1394,0.0227,-0.0021,-0.0083,-2.6479,1.4683,3.0003
2024-10-11T12:40:42.102Z,0.0079,-1.0059,0.0854,0.0183,0.0486,0.1394,0.0233,-0.0064,-0.0091,-2.6479,1.4683,3.0003
2024-10-11T12:40:42.112Z,0.0089,-1.0056,0.0883,0.0183,0.0486,0.1394,0.0229,-0.0058,-0.0082,-2.6479,1.4683,3.0003
2024-10-11T12:40:42.122Z,0.0106,-1.0088,0.0995,0.0452,0.1187,0.0777,0.0198,-0.0034,-0.0091,-2.6466,1.4677,2.9986
2024-10-11T12:40:42.132Z,0.0083,-1.0118,0.1093,0.0452,0.1187,0.0777,0.0197,-0.0018,-0.0084,-2.6466,1.4677,2.9986
2024-10-11T12:40:42.143Z,0.0076,-1.0132,0.1087,0.0452,0.1187,0.0777,0.0189,-0.0002,-0.0080,-2.6466,1.4677,2.9986
2024-10-11T12:40:42.153Z,0.0094,-1.0129,0.1052,0.0565,0.1927,-0.0412,0.0167,0.0017,-0.0095,-2.6449,1.4672,2.9968
2024-10-11T12:40:42.162Z,0.0061,-1.0107,0.1069,0.0565,0.1927,-0.0412,0.0121,0.0020,-0.0106,-2.6449,1.4672,2.9968
2024-10-11T12:40:42.172Z,-0.0007,-1.0114,0.1100,0.0565,0.1927,-0.0412,0.0121,0.0046,-0.0114,-2.6449,1.4672,2.9968
2024-10-11T12:40:42.183Z,0.0029,-1.0115,0.1181,0.1416,0.1629,-0.1285,0.0090,0.0027,-0.0137,-2.6425,1.4669,2.9942
2024-10-11T12:40:42.193Z,0.0057,-1.0121,0.1207,0.1416,0.1629,-0.1285,0.0062,0.0037,-0.0153,-2.6425,1.4669,2.9942
2024-10-11T12:40:42.203Z,0.0143,-1.0134,0.1198,0.1416,0.1629,-0.1285,0.0022,0.0026,-0.0150,-2.6425,1.4669,2.9942
2024-10-11T12:40:42.212Z,0.0173,-1.0195,0.1174,-0.0323,0.2123,-0.1661,-0.0002,0.0003,-0.0134,-2.6390,1.4668,2.9905
2024-10-11T12:40:42.222Z,0.0119,-1.0222,0.1200,-0.0323,0.2123,-0.1661,-0.0031,-0.0028,-0.0143,-2.6390,1.4668,2.9905
2024-10-11T12:40:42.233Z,0.0161,-1.0220,0.1236,-0.0323,0.2123,-0.1661,-0.0058,-0.0046,-0.0136,-2.6390,1.4668,2.9905
2024-10-11T12:40:42.243Z,0.0213,-1.0285,0.1142,-0.0393,0.3026,-0.1768,-0.0082,-0.0043,-0.0141,-2.6355,1.4668,2.9868
2024-10-11T12:40:42.253Z,0.0157,-1.0361,0.1076,-0.0393,0.3026,-0.1768,-0.0085,-0.0048,-0.0133,-2.6355,1.4668,2.9868
2024-10-11T12:40:42.262Z,0.0176,-1.0424,0.1110,-0.0393,0.3026,-0.1768,-0.0094,-0.0063,-0.0111,-2.6355,1.4668,2.9868
2024-10-11T12:40:42.272Z,0.0211,-1.0494,0.1117,-0.0454,0.4980,-0.0980,-0.0088,-0.0123,-0.0101,-2.6329,1.4670,2.9837
2024-10-11T12:40:42.283Z,0.0174,-1.0535,0.1139,-0.0454,0.4980,-0.0980,-0.0090,-0.0152,-0.0092,-2.6329,1.4670,2.9837
2024-10-11T12:40:42.293Z,0.0208,-1.0563,0.1084,-0.0454,0.4980,-0.0980,-0.0073,-0.0149,-0.0068,-2.6329,1.4670,2.9837
2024-10-11T12:40:42.303Z,0.0165,-1.0533,0.1064,-0.0304,0.5892,-0.0249,-0.0055,-0.0131,-0.0071,-2.6311,1.4671,2.9813
2024-10-11T12:40:42.312Z,0.0070,-1.0526,0.1122,-0.0304,0.5892,-0.0249,-0.0054,-0.0166,-0.0086,-2.6311,1.4671,2.9813
2024-10-11T12:40:42.322Z,0.0056,-1.0546,0.1226,-0.0304,0.5892,-0.0249,-0.0087,-0.0145,-0.0054,-2.6311,1.4671,2.9813
2024-10-11T12:40:42.333Z,0.0147,-1.0578,0.1190,0.0551,0.6028,-0.1783,-0.0084,-0.0182,-0.0047,-2.6292,1.4672,2.9786
2024-10-11T12:40:42.342Z,0.0177,-1.0587,0.1117,0.0551,0.6028,-0.1783,-0.0076,-0.0164,-0.0034,-2.6292,1.4672,2.9786
2024-10-11T12:40:42.352Z,0.0129,-1.0559,0.1105,0.0551,0.6028,-0.1783,-0.0046,-0.0190,-0.0036,-2.6292,1.4672,2.9786
2024-10-11T12:40:42.363Z,0.0096,-1.0532,0.1119,0.0655,0.5783,-0.0805,-0.0045,-0.0159,-0.0020,-2.6282,1.4674,2.9770
2024-10-11T12:40:42.372Z,0.0122,-1.0480,0.1109,0.0655,0.5783,-0.0805,-0.0051,-0.0126,0.0001,-2.6282,1.4674,2.9770
2024-10-11T12:40:42.382Z,0.0155,-1.0421,0.1153,0.0655,0.5783,-0.0805,-0.0063,-0.0067,-0.0004,-2.6282,1.4674,2.9770
2024-10-11T12:40:42.392Z,0.0129,-1.0434,0.1152,0.0111,0.4635,-0.1289,-0.0073,-0.0031,0.0003,-2.6282,1.4675,2.9765
2024-10-11T12:40:42.403Z,0.0154,-1.0435,0.1140,0.0111,0.4635,-0.1289,-0.0067,-0.0038,0.0031,-2.6282,1.4675,2.9765
2024-10-11T12:40:42.412Z,0.0177,-1.0418,0.1198,0.0111,0.4635,-0.1289,-0.0075,-0.0014,0.0046,-2.6282,1.4675,2.9765
2024-10-11T12:40:42.422Z,0.0186,-1.0433,0.1219,-0.0130,0.4703,-0.2002,-0.0073,-0.0033,0.0069,-2.6297,1.4677,2.9776
2024-10-11T12:40:42.432Z,0.0204,-1.0387,0.1264,-0.0130,0.4703,-0.2002,-0.0073,-0.0058,0.0066,-2.6297,1.4677,2.9776
2024-10-11T12:40:42.442Z,0.0260,-1.0369,0.1208,-0.0130,0.4703,-0.2002,-0.0095,-0.0036,0.0077,-2.6297,1.4677,2.9776
2024-10-11T12:40:42.453Z,0.0289,-1.0364,0.1193,-0.1187,0.4114,-0.2070,-0.0099,-0.0072,0.0099,-2.6318,1.4679,2.9793
2024-10-11T12:40:42.462Z,0.0272,-1.0334,0.1203,-0.1187,0.4114,-0.2070,-0.0126,-0.0103,0.0105,-2.6318,1.4679,2.9793
2024-10-11T12:40:42.472Z,0.0219,-1.0253,0.1125,-0.1187,0.4114,-0.2070,-0.0138,-0.0145,0.0109,-2.6318,1.4679,2.9793
2024-10-11T12:40:42.483Z,0.0265,-1.0188,0.1064,-0.0874,0.2694,-0.1119,-0.0132,-0.0128,0.0093,-2.6343,1.4683,2.9812
2024-10-11T12:40:42.492Z,0.0249,-1.0115,0.0972,-0.0874,0.2694,-0.1119,-0.0115,-0.0167,0.0084,-2.6343,1.4683,2.9812
2024-10-11T12:40:42.502Z,0.0230,-1.0052,0.0923,-0.0874,0.2694,-0.1119,-0.0105,-0.0215,0.0104,-2.6343,1.4683,2.9812
2024-10-11T12:40:42.512Z,0.0270,-1.0016,0.0943,-0.1075,0.0817,0.0407,-0.0113,-0.0233,0.0093,-2.6371,1.4686,2.9830
2024-10-11T12:40:42.522Z,0.0224,-1.0012,0.0931,-0.1075,0.0817,0.0407,-0.0108,-0.0214,0.0075,-2.6371,1.4686,2.9830
2024-10-11T12:40:42.532Z,0.0286,-0.9969,0.0874,-0.1075,0.0817,0.0407,-0.0095,-0.0234,0.0060,-2.6371,1.4686,2.9830
2024-10-11T12:40:42.542Z,0.0294,-0.9929,0.0889,-0.1358,0.0025,0.1130,-0.0051,-0.0290,0.0088,-2.6391,1.4688,2.9840
2024-10-11T12:40:42.553Z,0.0245,-0.9948,0.0921,-0.1358,0.0025,0.1130,-0.0078,-0.0354,0.0074,-2.6391,1.4688,2.9840
2024-10-11T12:40:42.563Z,0.0183,-1.0062,0.0929,-0.1358,0.0025,0.1130,-0.0051,-0.0348,0.0087,-2.6391,1.4688,2.9840
2024-10-11T12:40:42.572Z,0.0201,-1.0174,0.0896,-0.0040,0.1962,0.1122,-0.0041,-0.0369,0.0101,-2.6415,1.4690,2.9851
2024-10-11T12:40:42.583Z,0.0274,-1.0171,0.0819,-0.0040,0.1962,0.1122,0.0004,-0.0361,0.0101,-2.6415,1.4690,2.9851
2024-10-11T12:40:42.593Z,0.0181,-1.0124,0.0901,-0.0040,0.1962,0.1122,-0.0015,-0.0386,0.0100,-2.6415,1.4690,2.9851
2024-10-11T12:40:42.603Z,0.0170,-1.0069,0.0990,0.0010,0.1355,0.0713,-0.0009,-0.0359,0.0091,-2.6444,1.4690,2.9865
2024-10-11T12:40:42.612Z,0.0179,-1.0078,0.1026,0.0010,0.1355,0.0713,0.0020,-0.0343,0.0102,-2.6444,1.4690,2.9865
2024-10-11T12:40:42.622Z,0.0221,-1.0106,0.1028,0.0010,0.1355,0.0713,0.0018,-0.0282,0.0093,-2.6444,1.4690,2.9865
2024-10-11T12:40:42.632Z,0.0130,-1.0123,0.1057,-0.0125,0.1581,-0.0144,0.0025,-0.0275,0.0085,-2.6471,1.4690,2.9879
2024-10-11T12:40:42.643Z,0.0200,-1.0159,0.1139,-0.0125,0.1581,-0.0144,0.0038,-0.0270,0.0107,-2.6471,1.4690,2.9879
2024-10-11T12:40:42.653Z,0.0233,-1.0175,0.1223,-0.0125,0.1581,-0.0144,0.0017,-0.0268,0.0110,-2.6471,1.4690,2.9879
2024-10-11T12:40:42.662Z,0.0239,-1.0176,0.1233,-0.0807,0.2223,-0.2104,0.0049,-0.0237,0.0083,-2.6501,1.4690,2.9899
2024-10-11T12:40:42.672Z,0.0193,-1.0145,0.1233,-0.0807,0.2223,-0.2104,0.0021,-0.0236,0.0065,-2.6501,1.4690,2.9899
2024-10-11T12:40:42.683Z,0.0246,-1.0107,0.1246,-0.0807,0.2223,-0.2104,-0.0024,-0.0223,0.0059,-2.6501,1.4690,2.9899
2024-10-11T12:40:42.693Z,0.0284,-1.0114,0.1304,-0.1144,0.1515,-0.2730,-0.0066,-0.0200,0.0083,-2.6523,1.4691,2.9911
2024-10-11T12:40:42.702Z,0.0270,-1.0123,0.1278,-0.1144,0.1515,-0.2730,-0.0081,-0.0187,0.0061,-2.6523,1.4691,2.9911
2024-10-11T12:40:42.713Z,0.0215,-1.0146,0.1149,-0.1144,0.1515,-0.2730,-0.0104,-0.0190,0.0066,-2.6523,1.4691,2.9911
2024-10-11T12:40:42.722Z,0.0223,-1.0189,0.1084,-0.0575,0.2209,-0.1256,-0.0052,-0.0196,0.0065,-2.6540,1.4694,2.9921
2024-10-11T12:40:42.733Z,0.0231,-1.0172,0.0998,-0.0575,0.2209,-0.1256,-0.0082,-0.0186,0.0052,-2.6540,1.4694,2.9921
2024-10-11T12:40:42.743Z,0.0203,-1.0154,0.1015,-0.0575,0.2209,-0.1256,-0.0084,-0.0159,0.0033,-2.6540,1.4694,2.9921
2024-10-11T12:40:42.753Z,0.0181,-1.0131,0.1077,-0.0317,0.1914,-0.0599,-0.0100,-0.0201,0.0028,-2.6549,1.4695,2.9921
2024-10-11T12:40:42.762Z,0.0247,-1.0044,0.1072,-0.0317,0.1914,-0.0599,-0.0144,-0.0226,0.0016,-2.6549,1.4695,2.9921
2024-10-11T12:40:42.772Z,0.0206,-0.9970,0.1008,-0.0317,0.1914,-0.0599,-0.0086,-0.0257,0.0001,-2.6549,1.4695,2.9921
2024-10-11T12:40:42.782Z,0.0208,-0.9959,0.1053,-0.0427,0.0244,-0.0394,-0.0120,-0.0252,0.0022,-2.6552,1.4698,2.9915
2024-10-11T12:40:42.792Z,0.0293,-0.9899,0.1139,-0.0427,0.0244,-0.0394,-0.0086,-0.0232,0.0043,-2.6552,1.4698,2.9915
2024-10-11T12:40:42.803Z,0.0224,-0.9847,0.1119,-0.0427,0.0244,-0.0394,-0.0139,-0.0223,0.0054,-2.6552,1.4698,2.9915
2024-10-11T12:40:42.813Z,0.0215,-0.9786,0.1066,-0.0701,-0.1281,-0.0981,-0.0155,-0.0267,0.0043,-2.6559,1.4701,2.9912
2024-10-11T12:40:42.822Z,0.0182,-0.9797,0.1041,-0.0701,-0.1281,-0.0981,-0.0132,-0.0284,0.0035,-2.6559,1.4701,2.9912
2024-10-11T12:40:42.833Z,0.0109,-0.9829,0.1037,-0.0701,-0.1281,-0.0981,-0.0168,-0.0271,0.0046,-2.6559,1.4701,2.9912
2024-10-11T12:40:42.843Z,0.0143,-0.9833,0.1064,0.0433,-0.1058,-0.0600,-0.0207,-0.0321,0.0047,-2.6566,1.4705,2.9908
2024-10-11T12:40:42.853Z,0.0128,-0.9837,0.1040,0.0433,-0.1058,-0.0600,-0.0184,-0.0341,0.0045,-2.6566,1.4705,2.9908
2024-10-11T12:40:42.863Z,0.0078,-0.9813,0.0990,0.0433,-0.1058,-0.0600,-0.0193,-0.0383,0.0042,-2.6566,1.4705,2.9908
2024-10-11T12:40:42.872Z,0.0082,-0.9750,0.0921,0.0697,-0.1577,0.0091,-0.0166,-0.0488,0.0041,-2.6571,1.4710,2.9899
2024-10-11T12:40:42.883Z,0.0048,-0.9678,0.0847,0.0697,-0.1577,0.0091,-0.0176,-0.0471,0.0022,-2.6571,1.4710,2.9899
2024-10-11T12:40:42.893Z,0.0055,-0.9618,0.0834,0.0697,-0.1577,0.0091,-0.0142,-0.0472,0.0028,-2.6571,1.4710,2.9899
2024-10-11T12:40:42.903Z,0.0164,-0.9551,0.0736,0.0570,-0.3693,0.1766,-0.0099,-0.0540,0.0025,-2.6572,1.4714,2.9884
2024-10-11T12:40:42.912Z,0.0210,-0.9541,0.0577,0.0570,-0.3693,0.1766,-0.0066,-0.0570,0.0073,-2.6572,1.4714,2.9884
2024-10-11T12:40:42.922Z,0.0149,-0.9511,0.0522,0.0570,-0.3693,0.1766,-0.0032,-0.0661,0.0082,-2.6572,1.4714,2.9884
2024-10-11T12:40:42.932Z,0.0049,-0.9500,0.0519,0.0584,-0.4457,0.4724,0.0021,-0.0667,0.0055,-2.6591,1.4714,2.9882
2024-10-11T12:40:42.943Z,0.0104,-0.9488,0.0644,0.0584,-0.4457,0.4724,0.0076,-0.0695,0.0079,-2.6591,1.4714,2.9882
2024-10-11T12:40:42.952Z,0.0126,-0.9548,0.0655,0.0584,-0.4457,0.4724,0.0125,-0.0704,0.0053,-2.6591,1.4714,2.9882
2024-10-11T12:40:42.962Z,0.0110,-0.9587,0.0687,0.0359,-0.3769,0.3313,0.0134,-0.0723,0.0073,-2.6613,1.4711,2.9881
2024-10-11T12:40:42.972Z,0.0143,-0.9585,0.0838,0.0359,-0.3769,0.3313,0.0149,-0.0716,0.0086,-2.6613,1.4711,2.9881
2024-10-11T12:40:42.982Z,0.0063,-0.9619,0.0971,0.0359,-0.3769,0.3313,0.0142,-0.0741,0.0073,-2.6613,1.4711,2.9881
2024-10-11T12:40:42.993Z,0.0074,-0.9603,0.1058,0.0840,-0.3449,-0.0333,0.0137,-0.0715,0.0064,-2.6641,1.4707,2.9885
2024-10-11T12:40:43.002Z,0.0114,-0.9581,0.0970,0.0840,-0.3449,-0.0333,0.0174,-0.0713,0.0037,-2.6641,1.4707,2.9885
2024-10-11T12:40:43.013Z,0.0114,-0.9574,0.0902,0.0840,-0.3449,-0.0333,0.0212,-0.0731,0.0080,-2.6641,1.4707,2.9885
2024-10-11T12:40:43.022Z,0.0055,-0.9619,0.0883,0.0650,-0.3530,0.0905,0.0220,-0.0664,0.0038,-2.6669,1.4701,2.9889
2024-10-11T12:40:43.033Z,0.0060,-0.9657,0.0899,0.0650,-0.3530,0.0905,0.0245,-0.0643,0.0045,-2.6669,1.4701,2.9889
2024-10-11T12:40:43.042Z,0.0078,-0.9607,0.0966,0.0650,-0.3530,0.0905,0.0256,-0.0663,0.0031,-2.6669,1.4701,2.9889
2024-10-11T12:40:43.053Z,0.0052,-0.9630,0.0996,0.0905,-0.3294,0.0032,0.0255,-0.0688,0.0045,-2.6693,1.4694,2.9891
2024-10-11T12:40:43.062Z,0.0116,-0.9641,0.0960,0.0905,-0.3294,0.0032,0.0241,-0.0684,0.0030,-2.6693,1.4694,2.9891
2024-10-11T12:40:43.072Z,0.0089,-0.9668,0.1000,0.0905,-0.3294,0.0032,0.0220,-0.0649,0.0017,-2.6693,1.4694,2.9891
2024-10-11T12:40:43.083Z,0.0082,-0.9730,0.1020,0.0862,-0.2359,-0.0053,0.0231,-0.0644,0.0038,-2.6715,1.4687,2.9890
2024-10-11T12:40:43.093Z,0.0141,-0.9739,0.1093,0.0862,-0.2359,-0.0053,0.0235,-0.0646,0.0020,-2.6715,1.4687,2.9890
2024-10-11T12:40:43.102Z,0.0092,-0.9739,0.1090,0.0862,-0.2359,-0.0053,0.0192,-0.0650,0.0018,-2.6715,1.4687,2.9890
2024-10-11T12:40:43.112Z,0.0086,-0.9696,0.1052,0.0849,-0.2105,-0.0593,0.0202,-0.0634,-0.0003,-2.6730,1.4681,2.9883
2024-10-11T12:40:43.122Z,0.0105,-0.9634,0.1062,0.0849,-0.2105,-0.0593,0.0200,-0.0652,0.0024,-2.6730,1.4681,2.9883
2024-10-11T12:40:43.133Z,0.0140,-0.9610,0.1044,0.0849,-0.2105,-0.0593,0.0184,-0.0581,-0.0011,-2.6730,1.4681,2.9883
2024-10-11T12:40:43.143Z,0.0141,-0.9575,0.0945,0.0174,-0.3431,0.0039,0.0189,-0.0587,0.0001,-2.6742,1.4676,2.9875
2024-10-11T12:40:43.152Z,0.0145,-0.9515,0.0838,0.0174,-0.3431,0.0039,0.0230,-0.0608,0.0025,-2.6742,1.4676,2.9875
2024-10-11T12:40:43.162Z,0.0063,-0.9485,0.0820,0.0174,-0.3431,0.0039,0.0227,-0.0572,0.0023,-2.6742,1.4676,2.9875
2024-10-11T12:40:43.172Z,0.0098,-0.9402,0.0864,0.0856,-0.4875,0.1760,0.0265,-0.0549,0.0020,-2.6759,1.4669,2.9873
2024-10-11T12:40:43.182Z,0.0145,-0.9363,0.0838,0.0856,-0.4875,0.1760,0.0297,-0.0585,0.0023,-2.6759,1.4669,2.9873
2024-10-11T12:40:43.193Z,0.0052,-0.9320,0.0768,0.0856,-0.4875,0.1760,0.0303,-0.0540,-0.0000,-2.6759,1.4669,2.9873
2024-10-11T12:40:43.203Z,0.0007,-0.9329,0.0658,0.1422,-0.6222,0.3100,0.0344,-0.0482,0.0015,-2.6777,1.4660,2.9874
2024-10-11T12:40:43.212Z,0.0060,-0.9319,0.0666,0.1422,-0.6222,0.3100,0.0345,-0.0454,0.0018,-2.6777,1.4660,2.9874
2024-10-11T12:40:43.222Z,0.0053,-0.9317,0.0715,0.1422,-0.6222,0.3100,0.0356,-0.0468,0.0001,-2.6777,1.4660,2.9874
2024-10-11T12:40:43.233Z,-0.0001,-0.9314,0.0751,0.1379,-0.6247,0.2982,0.0381,-0.0443,-0.0001,-2.6795,1.4649,2.9876
2024-10-11T12:40:43.243Z,-0.0008,-0.9310,0.0774,0.1379,-0.6247,0.2982,0.0384,-0.0351,-0.0031,-2.6795,1.4649,2.9876
2024-10-11T12:40:43.253Z,0.0056,-0.9354,0.0787,0.1379,-0.6247,0.2982,0.0396,-0.0320,-0.0026,-2.6795,1.4649,2.9876
2024-10-11T12:40:43.263Z,0.0108,-0.9362,0.0769,0.0619,-0.5808,0.2835,0.0393,-0.0251,-0.0018,-2.6812,1.4638,2.9881
2024-10-11T12:40:43.272Z,0.0065,-0.9367,0.0845,0.0619,-0.5808,0.2835,0.0388,-0.0161,-0.0007,-2.6812,1.4638,2.9881
2024-10-11T12:40:43.283Z,0.0062,-0.9363,0.0912,0.0619,-0.5808,0.2835,0.0388,-0.0061,-0.0035,-2.6812,1.4638,2.9881
2024-10-11T12:40:43.293Z,0.0036,-0.9351,0.0955,0.1159,-0.5765,0.1222,0.0392,-0.0015,-0.0044,-2.6826,1.4625,2.9890
2024-10-11T12:40:43.303Z,0.0043,-0.9354,0.0985,0.1159,-0.5765,0.1222,0.0375,0.0089,-0.0059,-2.6826,1.4625,2.9890
2024-10-11T12:40:43.312Z,0.0057,-0.9358,0.1043,0.1159,-0.5765,0.1222,0.0362,0.0179,-0.0068,-2.6826,1.4625,2.9890
2024-10-11T12:40:43.322Z,0.0036,-0.9352,0.1077,0.1016,-0.5847,0.0209,0.0362,0.0212,-0.0087,-2.6830,1.4614,2.9895
2024-10-11T12:40:43.333Z,0.0033,-0.9422,0.1061,0.1016,-0.5847,0.0209,0.0364,0.0263,-0.0071,-2.6830,1.4614,2.9895
2024-10-11T12:40:43.343Z,0.0075,-0.9414,0.1099,0.1016,-0.5847,0.0209,0.0342,0.0328,-0.0084,-2.6830,1.4614,2.9895
2024-10-11T12:40:43.353Z,0.0080,-0.9452,0.1071,0.0768,-0.4880,0.0100,0.0278,0.0386,-0.0100,-2.6822,1.4604,2.9894
2024-10-11T12:40:43.362Z,0.0086,-0.9492,0.1131,0.0768,-0.4880,0.0100,0.0306,0.0429,-0.0099,-2.6822,1.4604,2.9894
2024-10-11T12:40:43.372Z,0.0122,-0.9536,0.1145,0.0768,-0.4880,0.0100,0.0271,0.0450,-0.0107,-2.6822,1.4604,2.9894
2024-10-11T12:40:43.382Z,0.0078,-0.9561,0.1039,0.0752,-0.3782,-0.0049,0.0256,0.0457,-0.0095,-2.6810,1.4595,2.9892
2024-10-11T12:40:43.393Z,0.0082,-0.9531,0.1008,0.0752,-0.3782,-0.0049,0.0247,0.0495,-0.0109,-2.6810,1.4595,2.9892
2024-10-11T12:40:43.403Z,0.0093,-0.9462,0.1063,0.0752,-0.3782,-0.0049,0.0242,0.0516,-0.0107,-2.6810,1.4595,2.9892
2024-10-11T12:40:43.413Z,0.0103,-0.9423,0.1130,0.0673,-0.4952,0.0104,0.0217,0.0541,-0.0128,-2.6796,1.4588,2.9891
2024-10-11T12:40:43.422Z,0.0113,-0.9454,0.1171,0.0673,-0.4952,0.0104,0.0191,0.0558,-0.0106,-2.6796,1.4588,2.9891
2024-10-11T12:40:43.432Z,0.0200,-0.9487,0.1118,0.0673,-0.4952,0.0104,0.0203,0.0577,-0.0097,-2.6796,1.4588,2.9891
2024-10-11T12:40:43.443Z,0.0198,-0.9502,0.1087,-0.0476,-0.4304,0.0131,0.0218,0.0570,-0.0084,-2.6784,1.4581,2.9894
2024-10-11T12:40:43.453Z,0.0147,-0.9486,0.1083,-0.0476,-0.4304,0.0131,0.0212,0.0537,-0.0065,-2.6784,1.4581,2.9894
2024-10-11T12:40:43.464Z,0.0268,-0.9504,0.1124,-0.0476,-0.4304,0.0131,0.0230,0.0523,-0.0049,-2.6784,1.4581,2.9894
2024-10-11T12:40:43.472Z,0.0337,-0.9507,0.1149,-0.1422,-0.4261,-0.0416,0.0198,0.0523,-0.0076,-2.6781,1.4575,2.9904
2024-10-11T12:40:43.483Z,0.0307,-0.9523,0.1159,-0.1422,-0.4261,-0.0416,0.0212,0.0475,-0.0014,-2.6781,1.4575,2.9904
2024-10-11T12:40:43.493Z,0.0294,-0.9547,0.1173,-0.1422,-0.4261,-0.0416,0.0218,0.0444,-0.0009,-2.6781,1.4575,2.9904
2024-10-11T12:40:43.502Z,0.0368,-0.9527,0.1163,-0.1683,-0.3996,-0.0398,0.0232,0.0396,0.0027,-2.6795,1.4568,2.9929
2024-10-11T12:40:43.513Z,0.0381,-0.9509,0.1180,-0.1683,-0.3996,-0.0398,0.0230,0.0341,0.0028,-2.6795,1.4568,2.9929
2024-10-11T12:40:43.522Z,0.0341,-0.9450,0.1234,-0.1683,-0.3996,-0.0398,0.0230,0.0298,0.0046,-2.6795,1.4568,2.9929
2024-10-11T12:40:43.533Z,0.0302,-0.9443,0.1247,-0.1350,-0.4794,-0.1087,0.0205,0.0257,0.0066,-2.6822,1.4562,2.9961
2024-10-11T12:40:43.542Z,0.0275,-0.9430,0.1267,-0.1350,-0.4794,-0.1087,0.0172,0.0222,0.0065,-2.6822,1.4562,2.9961
2024-10-11T12:40:43.552Z,0.0222,-0.9493,0.1266,-0.1350,-0.4794,-0.1087,0.0187,0.0177,0.0064,-2.6822,1.4562,2.9961
2024-10-11T12:40:43.563Z,0.0235,-0.9513,0.1197,-0.0671,-0.4127,-0.0920,0.0178,0.0123,0.0042,-2.6844,1.4556,2.9986
2024-10-11T12:40:43.572Z,0.0240,-0.9470,0.1178,-0.0671,-0.4127,-0.0920,0.0188,0.0128,0.0064,-2.6844,1.4556,2.9986
2024-10-11T12:40:43.582Z,0.0312,-0.9447,0.1069,-0.0671,-0.4127,-0.0920,0.0217,0.0155,0.0073,-2.6844,1.4556,2.9986
2024-10-11T12:40:43.592Z,0.0302,-0.9401,0.1010,-0.1549,-0.4918,0.1314,0.0227,0.0106,0.0085,-2.6871,1.4549,3.0014
2024-10-11T12:40:43.602Z,0.0254,-0.9353,0.1017,-0.1549,-0.4918,0.1314,0.0242,0.0069,0.0071,-2.6871,1.4549,3.0014
2024-10-11T12:40:43.615Z,0.0325,-0.9326,0.1067,-0.1819,-0.6009,0.1153,0.0273,0.0044,0.0054,-2.6897,1.4541,3.0039
2024-10-11T12:40:43.622Z,0.0327,-0.9315,0.0996,-0.1819,-0.6009,0.1153,0.0333,0.0012,0.0091,-2.6897,1.4541,3.0039
2024-10-11T12:40:43.632Z,0.0341,-0.9286,0.0949,-0.1819,-0.6009,0.1153,0.0358,-0.0046,0.0088,-2.6897,1.4541,3.0039
2024-10-11T12:40:43.643Z,0.0332,-0.9258,0.1026,-0.1819,-0.6009,0.1153,0.0415,-0.0085,0.0077,-2.6897,1.4541,3.0039
2024-10-11T12:40:43.653Z,0.0349,-0.9220,0.1167,-0.1830,-0.6864,0.0600,0.0421,-0.0108,0.0066,-2.6932,1.4530,3.0069
2024-10-11T12:40:43.663Z,0.0351,-0.9215,0.1220,-0.1830,-0.6864,0.0600,0.0421,-0.0108,0.0066,-2.6932,1.4530,3.0069
2024-10-11T12:40:43.672Z,0.0369,-0.9238,0.1253,-0.1830,-0.6864,0.0600,0.0441,-0.0123,0.0090,-2.6932,1.4530,3.0069
2024-10-11T12:40:43.683Z,0.0381,-0.9280,0.1302,-0.2139,-0.6526,-0.0921,0.0442,-0.0135,0.0062,-2.6964,1.4517,3.0095
2024-10-11T12:40:43.693Z,0.0355,-0.9310,0.1326,-0.2139,-0.6526,-0.0921,0.0389,-0.0128,0.0104,-2.6964,1.4517,3.0095
2024-10-11T12:40:43.703Z,0.0381,-0.9288,0.1323,-0.2139,-0.6526,-0.0921,0.0406,-0.0144,0.0083,-2.6964,1.4517,3.0095
2024-10-11T12:40:43.713Z,0.0357,-0.9294,0.1249,-0.2273,-0.6255,-0.0856,0.0406,-0.0144,0.0083,-2.6999,1.4505,3.0124
2024-10-11T12:40:43.722Z,0.0215,-0.9337,0.1281,-0.2273,-0.6255,-0.0856,0.0401,-0.0146,0.0086,-2.6999,1.4505,3.0124
2024-10-11T12:40:43.734Z,0.0237,-0.9377,0.1273,-0.2273,-0.6255,-0.0856,0.0398,-0.0122,0.0112,-2.6999,1.4505,3.0124
2024-10-11T12:40:43.743Z,0.0249,-0.9380,0.1309,-0.1050,-0.5377,-0.0740,0.0399,-0.0097,0.0108,-2.7037,1.4494,3.0154
2024-10-11T12:40:43.753Z,0.0172,-0.9392,0.1364,-0.1050,-0.5377,-0.0740,0.0348,-0.0097,0.0113,-2.7037,1.4494,3.0154
2024-10-11T12:40:43.765Z,0.0138,-0.9372,0.1375,0.0196,-0.5572,-0.1708,0.0348,-0.0097,0.0113,-2.7075,1.4482,3.0187
2024-10-11T12:40:43.772Z,0.0112,-0.9365,0.1410,0.0196,-0.5572,-0.1708,0.0339,0.0007,0.0102,-2.7075,1.4482,3.0187
2024-10-11T12:40:43.783Z,0.0085,-0.9413,0.1387,0.0196,-0.5572,-0.1708,0.0323,0.0092,0.0126,-2.7075,1.4482,3.0187
2024-10-11T12:40:43.793Z,0.0034,-0.9417,0.1397,0.0196,-0.5572,-0.1708,0.0330,0.0165,0.0137,-2.7075,1.4482,3.0187
2024-10-11T12:40:43.803Z,-0.0041,-0.9462,0.1357,0.1498,-0.4829,-0.1659,0.0289,0.0232,0.0116,-2.7114,1.4473,3.0226
2024-10-11T12:40:43.814Z,-0.0075,-0.9492,0.1303,0.1498,-0.4829,-0.1659,0.0297,0.0373,0.0132,-2.7114,1.4473,3.0226
2024-10-11T12:40:43.822Z,-0.0068,-0.9489,0.1248,0.1498,-0.4829,-0.1659,0.0297,0.0373,0.0132,-2.7114,1.4473,3.0226
2024-10-11T12:40:43.834Z,-0.0062,-0.9494,0.1265,0.1898,-0.4303,-0.0317,0.0292,0.0531,0.0142,-2.7154,1.4464,3.0273
2024-10-11T12:40:43.843Z,-0.0102,-0.9516,0.1299,0.1898,-0.4303,-0.0317,0.0300,0.0604,0.0143,-2.7154,1.4464,3.0273
2024-10-11T12:40:43.853Z,-0.0174,-0.9536,0.1275,0.1898,-0.4303,-0.0317,0.0291,0.0654,0.0129,-2.7154,1.4464,3.0273
2024-10-11T12:40:43.864Z,-0.0157,-0.9569,0.1280,0.3029,-0.3801,-0.0318,0.0287,0.0771,0.0107,-2.7194,1.4455,3.0329
2024-10-11T12:40:43.872Z,-0.0207,-0.9634,0.1318,0.3029,-0.3801,-0.0318,0.0278,0.0812,0.0102,-2.7194,1.4455,3.0329
2024-10-11T12:40:43.884Z,-0.0179,-0.9695,0.1370,0.2756,-0.1826,-0.1234,0.0278,0.0812,0.0102,-2.7228,1.4446,3.0383
2024-10-11T12:40:43.892Z,-0.0148,-0.9782,0.1414,0.2756,-0.1826,-0.1234,0.0316,0.0791,0.0068,-2.7228,1.4446,3.0383
2024-10-11T12:40:43.903Z,-0.0128,-0.9902,0.1474,0.2756,-0.1826,-0.1234,0.0242,0.0782,0.0076,-2.7228,1.4446,3.0383
2024-10-11T12:40:43.916Z,-0.0081,-0.9977,0.1445,0.1652,0.0675,-0.1803,0.0225,0.0788,0.0043,-2.7251,1.4439,3.0426
2024-10-11T12:40:43.922Z,-0.0017,-0.9994,0.1452,0.1652,0.0675,-0.1803,0.0225,0.0788,0.0043,-2.7251,1.4439,3.0426
2024-10-11T12:40:43.933Z,-0.0068,-1.0052,0.1483,0.1652,0.0675,-0.1803,0.0227,0.0813,0.0017,-2.7251,1.4439,3.0426
2024-10-11T12:40:43.943Z,-0.0068,-1.0052,0.1483,0.1652,0.0675,-0.1803,0.0181,0.0895,-0.0004,-2.7251,1.4439,3.0426
2024-10-11T12:40:43.953Z,-0.0054,-1.0094,0.1485,0.1928,0.1498,-0.2042,0.0180,0.0922,-0.0006,-2.7262,1.4432,3.0460
2024-10-11T12:40:43.964Z,-0.0043,-1.0152,0.1420,0.1928,0.1498,-0.2042,0.0174,0.0965,-0.0041,-2.7262,1.4432,3.0460
2024-10-11T12:40:43.972Z,-0.0136,-1.0199,0.1417,0.1928,0.1498,-0.2042,0.0161,0.1022,-0.0038,-2.7262,1.4432,3.0460
2024-10-11T12:40:43.983Z,-0.0147,-1.0307,0.1420,0.2533,0.3370,-0.1270,0.0165,0.1097,-0.0027,-2.7262,1.4426,3.0487
2024-10-11T12:40:43.993Z,-0.0177,-1.0392,0.1398,0.2533,0.3370,-0.1270,0.0128,0.1151,-0.0070,-2.7262,1.4426,3.0487
2024-10-11T12:40:44.004Z,-0.0235,-1.0455,0.1367,0.3496,0.5693,-0.0517,0.0079,0.1204,-0.0104,-2.7250,1.4422,3.0505
2024-10-11T12:40:44.013Z,-0.0237,-1.0552,0.1332,0.3496,0.5693,-0.0517,0.0049,0.1254,-0.0129,-2.7250,1.4422,3.0505
2024-10-11T12:40:44.022Z,-0.0203,-1.0637,0.1380,0.3496,0.5693,-0.0517,0.0023,0.1290,-0.0152,-2.7250,1.4422,3.0505
2024-10-11T12:40:44.033Z,-0.0116,-1.0692,0.1381,0.3496,0.5693,-0.0517,-0.0007,0.1267,-0.0151,-2.7250,1.4422,3.0505
2024-10-11T12:40:44.043Z,-0.0108,-1.0726,0.1412,0.2150,0.7799,-0.1060,-0.0063,0.1274,-0.0176,-2.7223,1.4421,3.0515
2024-10-11T12:40:44.053Z,-0.0016,-1.0884,0.1417,0.2150,0.7799,-0.1060,-0.0071,0.1256,-0.0194,-2.7223,1.4421,3.0515
2024-10-11T12:40:44.063Z,-0.0016,-1.0884,0.1417,0.2150,0.7799,-0.1060,-0.0089,0.1247,-0.0202,-2.7223,1.4421,3.0515
2024-10-11T12:40:44.072Z,0.0087,-1.0929,0.1516,0.0872,0.9630,-0.1897,-0.0133,0.1215,-0.0195,-2.7183,1.4422,3.0510
2024-10-11T12:40:44.083Z,0.0163,-1.1145,0.1514,0.0872,0.9630,-0.1897,-0.0144,0.1166,-0.0239,-2.7183,1.4422,3.0510
2024-10-11T12:40:44.093Z,0.0163,-1.1145,0.1514,-0.0724,1.2538,-0.2674,-0.0144,0.1166,-0.0239,-2.7134,1.4425,3.0493
2024-10-11T12:40:44.103Z,0.0242,-1.1272,0.1544,-0.0724,1.2538,-0.2674,-0.0166,0.1010,-0.0212,-2.7134,1.4425,3.0493
2024-10-11T12:40:44.113Z,0.0342,-1.1434,0.1574,-0.0724,1.2538,-0.2674,-0.0200,0.0929,-0.0228,-2.7134,1.4425,3.0493
2024-10-11T12:40:44.123Z,0.0343,-1.1608,0.1568,-0.0724,1.2538,-0.2674,-0.0198,0.0837,-0.0212,-2.7134,1.4425,3.0493
2024-10-11T12:40:44.133Z,0.0582,-1.1937,0.1525,-0.2441,1.7540,-0.3114,-0.0198,0.0837,-0.0212,-2.7080,1.4430,3.0465
2024-10-11T12:40:44.143Z,0.0569,-1.1956,0.1481,-0.2441,1.7540,-0.3114,-0.0221,0.0663,-0.0203,-2.7080,1.4430,3.0465
2024-10-11T12:40:44.153Z,0.0569,-1.1956,0.1481,-0.2441,1.7540,-0.3114,-0.0254,0.0552,-0.0192,-2.7080,1.4430,3.0465
2024-10-11T12:40:44.163Z,0.0601,-1.1714,0.1594,-0.4249,2.0096,-0.2082,-0.0245,0.0440,-0.0196,-2.7029,1.4435,3.0432
2024-10-11T12:40:44.173Z,0.0601,-1.1714,0.1594,-0.4249,2.0096,-0.2082,-0.0269,0.0389,-0.0203,-2.7029,1.4435,3.0432
2024-10-11T12:40:44.183Z,0.0500,-1.1608,0.1657,-0.4249,2.0096,-0.2082,-0.0265,0.0340,-0.0191,-2.7029,1.4435,3.0432
2024-10-11T12:40:44.193Z,0.0347,-1.1368,0.1782,-0.3333,1.5865,-0.3903,-0.0296,0.0314,-0.0215,-2.6980,1.4442,3.0394
2024-10-11T12:40:44.203Z,0.0247,-1.1253,0.1833,-0.3333,1.5865,-0.3903,-0.0305,0.0252,-0.0200,-2.6980,1.4442,3.0394
2024-10-11T12:40:44.214Z,0.0247,-1.1253,0.1833,-0.1062,1.2675,-0.5956,-0.0330,0.0181,-0.0250,-2.6925,1.4450,3.0344
2024-10-11T12:40:44.223Z,0.0267,-1.1172,0.1909,-0.1062,1.2675,-0.5956,-0.0342,0.0135,-0.0217,-2.6925,1.4450,3.0344
2024-10-11T12:40:44.232Z,0.0357,-1.1107,0.1982,-0.1062,1.2675,-0.5956,-0.0342,0.0135,-0.0217,-2.6925,1.4450,3.0344
2024-10-11T12:40:44.243Z,0.0357,-1.1107,0.1982,-0.2348,1.1948,-0.7075,-0.0425,0.0006,-0.0177,-2.6872,1.4461,3.0292
2024-10-11T12:40:44.252Z,0.0381,-1.1146,0.1960,-0.2348,1.1948,-0.7075,-0.0493,-0.0020,-0.0170,-2.6872,1.4461,3.0292
2024-10-11T12:40:44.263Z,0.0291,-1.1331,0.1785,-0.2348,1.1948,-0.7075,-0.0543,-0.0031,-0.0137,-2.6872,1.4461,3.0292
2024-10-11T12:40:44.272Z,0.0291,-1.1331,0.1785,-0.2348,1.1948,-0.7075,-0.0556,-0.0013,-0.0133,-2.6872,1.4461,3.0292
2024-10-11T12:40:44.283Z,0.0217,-1.1424,0.1578,-0.1013,1.4441,-0.4506,-0.0600,0.0024,-0.0147,-2.6826,1.4476,3.0243
2024-10-11T12:40:44.293Z,0.0132,-1.1585,0.1194,-0.1013,1.4441,-0.4506,-0.0620,0.0064,-0.0106,-2.6826,1.4476,3.0243
2024-10-11T12:40:44.303Z,0.0132,-1.1585,0.1194,0.0307,1.6857,0.0663,-0.0620,0.0064,-0.0106,-2.6782,1.4493,3.0198
2024-10-11T12:40:44.313Z,0.0005,-1.1954,0.1072,0.0307,1.6857,0.0663,-0.0596,0.0207,-0.0121,-2.6782,1.4493,3.0198
2024-10-11T12:40:44.322Z,0.0005,-1.1954,0.1072,0.0307,1.6857,0.0663,-0.0587,0.0287,-0.0106,-2.6782,1.4493,3.0198
2024-10-11T12:40:44.333Z,0.0036,-1.2146,0.1057,0.0780,2.2662,0.1080,-0.0587,0.0287,-0.0106,-2.6737,1.4510,3.0160
2024-10-11T12:40:44.343Z,0.0124,-1.2434,0.1149,0.0780,2.2662,0.1080,-0.0586,0.0426,-0.0112,-2.6737,1.4510,3.0160
2024-10-11T12:40:44.352Z,0.0124,-1.2434,0.1149,0.0780,2.2662,0.1080,-0.0610,0.0436,-0.0121,-2.6737,1.4510,3.0160
2024-10-11T12:40:44.363Z,0.0116,-1.2519,0.1214,0.0256,2.5547,-0.0827,-0.0647,0.0459,-0.0108,-2.6692,1.4528,3.0125
2024-10-11T12:40:44.372Z,0.0156,-1.2527,0.1276,0.0256,2.5547,-0.0827,-0.0615,0.0418,-0.0129,-2.6692,1.4528,3.0125
2024-10-11T12:40:44.382Z,0.0208,-1.2455,0.1307,0.0256,2.5547,-0.0827,-0.0666,0.0441,-0.0126,-2.6692,1.4528,3.0125
2024-10-11T12:40:44.393Z,0.0175,-1.2296,0.1300,-0.0230,2.2111,-0.2057,-0.0660,0.0367,-0.0116,-2.6641,1.4547,3.0085
2024-10-11T12:40:44.403Z,0.0266,-1.1786,0.1422,-0.0230,2.2111,-0.2057,-0.0693,0.0372,-0.0129,-2.6641,1.4547,3.0085
2024-10-11T12:40:44.412Z,0.0231,-1.1569,0.1468,-0.0230,2.2111,-0.2057,-0.0705,0.0385,-0.0142,-2.6641,1.4547,3.0085
2024-10-11T12:40:44.422Z,0.0231,-1.1569,0.1468,-0.0230,2.2111,-0.2057,-0.0711,0.0348,-0.0153,-2.6641,1.4547,3.0085
2024-10-11T12:40:44.433Z,0.0275,-1.1409,0.1472,-0.0917,1.5085,-0.3506,-0.0733,0.0279,-0.0133,-2.6581,1.4567,3.0034
2024-10-11T12:40:44.443Z,0.0272,-1.1270,0.1394,-0.0917,1.5085,-0.3506,-0.0731,0.0295,-0.0148,-2.6581,1.4567,3.0034
2024-10-11T12:40:44.453Z,0.0272,-1.1270,0.1394,-0.0984,1.2880,-0.2730,-0.0768,0.0267,-0.0155,-2.6520,1.4588,2.9979
2024-10-11T12:40:44.462Z,0.0320,-1.1183,0.1176,-0.0984,1.2880,-0.2730,-0.0759,0.0226,-0.0163,-2.6520,1.4588,2.9979
2024-10-11T12:40:44.472Z,0.0309,-1.1094,0.1035,-0.0984,1.2880,-0.2730,-0.0786,0.0212,-0.0146,-2.6520,1.4588,2.9979
2024-10-11T12:40:44.483Z,0.0309,-1.1094,0.1035,-0.1262,1.0674,0.0719,-0.0786,0.0212,-0.0146,-2.6460,1.4611,2.9923
2024-10-11T12:40:44.493Z,0.0237,-1.0763,0.0933,-0.1262,1.0674,0.0719,-0.0871,0.0250,-0.0113,-2.6460,1.4611,2.9923
2024-10-11T12:40:44.502Z,0.0176,-1.0536,0.0929,-0.1262,1.0674,0.0719,-0.0906,0.0334,-0.0119,-2.6460,1.4611,2.9923
2024-10-11T12:40:44.513Z,0.0176,-1.0536,0.0929,0.0303,0.4863,0.1174,-0.0962,0.0404,-0.0121,-2.6393,1.4637,2.9863
2024-10-11T12:40:44.523Z,0.0077,-1.0122,0.0975,0.0303,0.4863,0.1174,-0.0984,0.0486,-0.0150,-2.6393,1.4637,2.9863
2024-10-11T12:40:44.533Z,0.0077,-1.0122,0.0975,0.0303,0.4863,0.1174,-0.1026,0.0511,-0.0150,-2.6393,1.4637,2.9863
2024-10-11T12:40:44.543Z,0.0045,-0.9931,0.1034,0.0950,-0.0967,-0.0063,-0.1002,0.0541,-0.0154,-2.6310,1.4665,2.9793
2024-10-11T12:40:44.553Z,0.0130,-0.9617,0.1008,0.0950,-0.0967,-0.0063,-0.1004,0.0548,-0.0171,-2.6310,1.4665,2.9793
2024-10-11T12:40:44.563Z,0.0148,-0.9481,0.1049,0.0950,-0.0967,-0.0063,-0.0977,0.0578,-0.0158,-2.6310,1.4665,2.9793
2024-10-11T12:40:44.573Z,0.0148,-0.9481,0.1049,-0.0259,-0.4966,-0.0012,-0.0891,0.0569,-0.0153,-2.6221,1.4692,2.9719
2024-10-11T12:40:44.583Z,0.0248,-0.9409,0.0982,-0.0259,-0.4966,-0.0012,-0.0845,0.0597,-0.0121,-2.6221,1.4692,2.9719
2024-10-11T12:40:44.592Z,0.0379,-0.9468,0.0773,-0.0259,-0.4966,-0.0012,-0.0765,0.0593,-0.0141,-2.6221,1.4692,2.9719
2024-10-11T12:40:44.603Z,0.0379,-0.9468,0.0773,-0.1808,-0.4316,0.2851,-0.0682,0.0603,-0.0115,-2.6143,1.4715,2.9657
2024-10-11T12:40:44.612Z,0.0462,-0.9623,0.0523,-0.1808,-0.4316,0.2851,-0.0580,0.0600,-0.0099,-2.6143,1.4715,2.9657
2024-10-11T12:40:44.622Z,0.0527,-0.9620,0.0517,-0.1808,-0.4316,0.2851,-0.0476,0.0600,-0.0064,-2.6143,1.4715,2.9657
2024-10-11T12:40:44.634Z,0.0527,-0.9620,0.0517,-0.3412,-0.3145,0.4522,-0.0382,0.0579,-0.0055,-2.6092,1.4729,2.9622
2024-10-11T12:40:44.642Z,0.0465,-0.9651,0.0444,-0.3412,-0.3145,0.4522,-0.0305,0.0577,-0.0070,-2.6092,1.4729,2.9622
2024-10-11T12:40:44.653Z,0.0496,-0.9641,0.0466,-0.3412,-0.3145,0.4522,-0.0178,0.0536,-0.0049,-2.6092,1.4729,2.9622
2024-10-11T12:40:44.663Z,0.0526,-0.9626,0.0550,-0.3358,-0.3147,0.4295,-0.0154,0.0482,-0.0034,-2.6066,1.4736,2.9610
2024-10-11T12:40:44.672Z,0.0515,-0.9640,0.0641,-0.3358,-0.3147,0.4295,-0.0110,0.0436,0.0011,-2.6066,1.4736,2.9610
2024-10-11T12:40:44.684Z,0.0447,-0.9674,0.0725,-0.3358,-0.3147,0.4295,-0.0069,0.0381,-0.0023,-2.6066,1.4736,2.9610
2024-10-11T12:40:44.692Z,0.0447,-0.9674,0.0725,-0.2330,-0.2670,0.1501,-0.0005,0.0313,-0.0023,-2.6064,1.4737,2.9616
2024-10-11T12:40:44.702Z,0.0413,-0.9722,0.0855,-0.2330,-0.2670,0.1501,0.0012,0.0282,0.0026,-2.6064,1.4737,2.9616
2024-10-11T12:40:44.712Z,0.0356,-0.9697,0.0837,-0.2330,-0.2670,0.1501,0.0049,0.0220,0.0015,-2.6064,1.4737,2.9616
2024-10-11T12:40:44.722Z,0.0356,-0.9697,0.0837,-0.1706,-0.2695,0.0899,0.0049,0.0220,0.0015,-2.6078,1.4736,2.9635
2024-10-11T12:40:44.733Z,0.0344,-0.9667,0.0879,-0.1706,-0.2695,0.0899,0.0090,0.0146,0.0049,-2.6078,1.4736,2.9635
2024-10-11T12:40:44.742Z,0.0326,-0.9528,0.0888,-0.1706,-0.2695,0.0899,0.0117,0.0122,0.0068,-2.6078,1.4736,2.9635
2024-10-11T12:40:44.753Z,0.0326,-0.9528,0.0888,-0.1314,-0.4568,0.0698,0.0135,0.0101,0.0097,-2.6103,1.4733,2.9660
2024-10-11T12:40:44.763Z,0.0268,-0.9379,0.0771,-0.1314,-0.4568,0.0698,0.0155,0.0117,0.0096,-2.6103,1.4733,2.9660
2024-10-11T12:40:44.772Z,0.0231,-0.9355,0.0766,-0.1314,-0.4568,0.0698,0.0229,0.0088,0.0118,-2.6103,1.4733,2.9660
2024-10-11T12:40:44.784Z,0.0231,-0.9355,0.0766,-0.0298,-0.6085,0.1860,0.0260,0.0143,0.0141,-2.6140,1.4728,2.9697
2024-10-11T12:40:44.793Z,0.0181,-0.9296,0.0720,-0.0298,-0.6085,0.1860,0.0312,0.0160,0.0105,-2.6140,1.4728,2.9697
2024-10-11T12:40:44.802Z,0.0155,-0.9273,0.0727,-0.0298,-0.6085,0.1860,0.0320,0.0228,0.0143,-2.6140,1.4728,2.9697
2024-10-11T12:40:44.813Z,0.0128,-0.9251,0.0705,0.0162,-0.6695,0.2645,0.0380,0.0254,0.0129,-2.6193,1.4718,2.9753
2024-10-11T12:40:44.822Z,0.0172,-0.9226,0.0784,0.0162,-0.6695,0.2645,0.0416,0.0296,0.0128,-2.6193,1.4718,2.9753
2024-10-11T12:40:44.833Z,0.0217,-0.9197,0.0835,0.0162,-0.6695,0.2645,0.0463,0.0274,0.0172,-2.6193,1.4718,2.9753
2024-10-11T12:40:44.843Z,0.0200,-0.9174,0.0801,-0.0541,-0.7407,0.1622,0.0498,0.0276,0.0183,-2.6261,1.4706,2.9827
2024-10-11T12:40:44.852Z,0.0185,-0.9086,0.0855,-0.0541,-0.7407,0.1622,0.0481,0.0273,0.0187,-2.6261,1.4706,2.9827
2024-10-11T12:40:44.863Z,0.0193,-0.9000,0.0910,-0.0541,-0.7407,0.1622,0.0508,0.0217,0.0153,-2.6261,1.4706,2.9827
2024-10-11T12:40:44.873Z,0.0193,-0.9000,0.0910,-0.0013,-0.9656,0.0262,0.0502,0.0178,0.0131,-2.6332,1.4693,2.9903
2024-10-11T12:40:44.883Z,0.0101,-0.8941,0.1035,-0.0013,-0.9656,0.0262,0.0531,0.0138,0.0110,-2.6332,1.4693,2.9903
2024-10-11T12:40:44.892Z,0.0141,-0.8981,0.1018,-0.0013,-0.9656,0.0262,0.0549,0.0100,0.0118,-2.6332,1.4693,2.9903
2024-10-11T12:40:44.903Z,0.0141,-0.8981,0.1018,-0.0139,-0.9406,0.0081,0.0528,0.0100,0.0100,-2.6392,1.4678,2.9964
2024-10-11T12:40:44.912Z,0.0153,-0.8950,0.1024,-0.0139,-0.9406,0.0081,0.0580,0.0065,0.0098,-2.6392,1.4678,2.9964
2024-10-11T12:40:44.922Z,0.0155,-0.8887,0.1014,-0.0139,-0.9406,0.0081,0.0584,0.0058,0.0098,-2.6392,1.4678,2.9964
2024-10-11T12:40:44.934Z,0.0164,-0.8845,0.0970,-0.0251,-1.0571,0.0328,0.0583,0.0058,0.0091,-2.6445,1.4661,3.0016
2024-10-11T12:40:44.942Z,0.0177,-0.8818,0.0881,-0.0251,-1.0571,0.0328,0.0614,0.0012,0.0075,-2.6445,1.4661,3.0016
2024-10-11T12:40:44.953Z,0.0180,-0.8770,0.0807,-0.0251,-1.0571,0.0328,0.0619,-0.0012,0.0094,-2.6445,1.4661,3.0016
2024-10-11T12:40:44.963Z,0.0180,-0.8770,0.0807,-0.0371,-1.1602,0.2756,0.0642,-0.0077,0.0079,-2.6498,1.4643,3.0065
2024-10-11T12:40:44.972Z,0.0142,-0.8735,0.0694,-0.0371,-1.1602,0.2756,0.0663,-0.0112,0.0081,-2.6498,1.4643,3.0065
2024-10-11T12:40:44.984Z,0.0134,-0.8705,0.0682,-0.0371,-1.1602,0.2756,0.0703,-0.0152,0.0064,-2.6498,1.4643,3.0065
2024-10-11T12:40:44.993Z,0.0137,-0.8714,0.0641,0.0063,-1.2082,0.4075,0.0745,-0.0168,0.0045,-2.6545,1.4622,3.0105
2024-10-11T12:40:45.002Z,0.0126,-0.8735,0.0672,0.0063,-1.2082,0.4075,0.0734,-0.0153,0.0041,-2.6545,1.4622,3.0105
2024-10-11T12:40:45.013Z,0.0098,-0.8795,0.0701,0.0063,-1.2082,0.4075,0.0761,-0.0165,0.0034,-2.6545,1.4622,3.0105
2024-10-11T12:40:45.022Z,0.0098,-0.8795,0.0701,0.0290,-1.0965,0.3563,0.0749,-0.0171,0.0005,-2.6581,1.4600,3.0132
2024-10-11T12:40:45.033Z,0.0056,-0.8854,0.0907,0.0290,-1.0965,0.3563,0.0721,-0.0172,-0.0012,-2.6581,1.4600,3.0132
2024-10-11T12:40:45.043Z,0.0023,-0.8886,0.0971,0.0290,-1.0965,0.3563,0.0740,-0.0170,-0.0038,-2.6581,1.4600,3.0132
2024-10-11T12:40:45.052Z,0.0023,-0.8886,0.0971,0.1238,-1.0230,0.1212,0.0701,-0.0136,-0.0044,-2.6599,1.4578,3.0143
2024-10-11T12:40:45.063Z,0.0019,-0.8896,0.1039,0.1238,-1.0230,0.1212,0.0706,-0.0146,-0.0076,-2.6599,1.4578,3.0143
2024-10-11T12:40:45.072Z,0.0033,-0.8863,0.1136,0.1238,-1.0230,0.1212,0.0690,-0.0113,-0.0107,-2.6599,1.4578,3.0143
2024-10-11T12:40:45.083Z,0.0033,-0.8863,0.1136,0.1046,-1.0650,-0.0281,0.0642,-0.0121,-0.0115,-2.6598,1.4557,3.0136
2024-10-11T12:40:45.092Z,0.0030,-0.8905,0.1157,0.1046,-1.0650,-0.0281,0.0602,-0.0068,-0.0125,-2.6598,1.4557,3.0136
2024-10-11T12:40:45.102Z,0.0063,-0.8925,0.1150,0.1046,-1.0650,-0.0281,0.0588,-0.0050,-0.0153,-2.6598,1.4557,3.0136
2024-10-11T12:40:45.112Z,0.0078,-0.8961,0.1206,0.0679,-0.9717,-0.0198,0.0593,-0.0037,-0.0170,-2.6582,1.4538,3.0116
2024-10-11T12:40:45.122Z,0.0071,-0.9003,0.1223,0.0679,-0.9717,-0.0198,0.0522,-0.0024,-0.0178,-2.6582,1.4538,3.0116
2024-10-11T12:40:45.132Z,0.0084,-0.8985,0.1266,0.0679,-0.9717,-0.0198,0.0515,-0.0025,-0.0175,-2.6582,1.4538,3.0116
2024-10-11T12:40:45.143Z,0.0084,-0.8985,0.1266,0.0608,-0.9353,-0.1170,0.0450,0.0016,-0.0195,-2.6555,1.4523,3.0086
2024-10-11T12:40:45.152Z,0.0155,-0.8979,0.1346,0.0608,-0.9353,-0.1170,0.0365,0.0105,-0.0189,-2.6555,1.4523,3.0086
2024-10-11T12:40:45.162Z,0.0168,-0.8963,0.1415,0.0608,-0.9353,-0.1170,0.0310,0.0145,-0.0202,-2.6555,1.4523,3.0086
2024-10-11T12:40:45.173Z,0.0168,-0.8963,0.1415,-0.0205,-0.9417,-0.2139,0.0268,0.0196,-0.0171,-2.6524,1.4512,3.0057
2024-10-11T12:40:45.183Z,0.0184,-0.8957,0.1405,-0.0205,-0.9417,-0.2139,0.0200,0.0243,-0.0144,-2.6524,1.4512,3.0057
2024-10-11T12:40:45.192Z,0.0223,-0.8937,0.1400,-0.0205,-0.9417,-0.2139,0.0161,0.0271,-0.0155,-2.6524,1.4512,3.0057
2024-10-11T12:40:45.202Z,0.0223,-0.8937,0.1400,-0.0635,-1.0099,-0.1867,0.0096,0.0363,-0.0143,-2.6493,1.4506,3.0032
2024-10-11T12:40:45.212Z,0.0170,-0.8857,0.1329,-0.0635,-1.0099,-0.1867,0.0046,0.0395,-0.0152,-2.6493,1.4506,3.0032
2024-10-11T12:40:45.223Z,0.0145,-0.8828,0.1297,-0.0635,-1.0099,-0.1867,0.0007,0.0393,-0.0160,-2.6493,1.4506,3.0032
2024-10-11T12:40:45.234Z,0.0101,-0.8812,0.1248,0.0380,-1.0779,-0.0887,0.0001,0.0412,-0.0145,-2.6459,1.4504,3.0008
2024-10-11T12:40:45.242Z,0.0056,-0.8760,0.1197,0.0380,-1.0779,-0.0887,-0.0036,0.0416,-0.0179,-2.6459,1.4504,3.0008
2024-10-11T12:40:45.252Z,0.0063,-0.8723,0.1198,0.0380,-1.0779,-0.0887,-0.0023,0.0455,-0.0181,-2.6459,1.4504,3.0008
2024-10-11T12:40:45.262Z,0.0092,-0.8671,0.1230,0.0978,-1.2094,-0.0346,-0.0048,0.0458,-0.0153,-2.6420,1.4504,2.9979
2024-10-11T12:40:45.272Z,0.0104,-0.8651,0.1224,0.0978,-1.2094,-0.0346,-0.0040,0.0419,-0.0185,-2.6420,1.4504,2.9979
2024-10-11T12:40:45.282Z,0.0119,-0.8597,0.1257,0.0978,-1.2094,-0.0346,-0.0050,0.0383,-0.0150,-2.6420,1.4504,2.9979
2024-10-11T12:40:45.292Z,0.0188,-0.8557,0.1256,0.0198,-1.3371,-0.0714,-0.0058,0.0308,-0.0149,-2.6382,1.4504,2.9951
2024-10-11T12:40:45.302Z,0.0155,-0.8535,0.1235,0.0198,-1.3371,-0.0714,-0.0077,0.0259,-0.0155,-2.6382,1.4504,2.9951
2024-10-11T12:40:45.313Z,0.0148,-0.8522,0.1245,0.0198,-1.3371,-0.0714,-0.0068,0.0227,-0.0131,-2.6382,1.4504,2.9951
2024-10-11T12:40:45.322Z,0.0142,-0.8522,0.1288,0.0285,-1.3976,-0.0784,-0.0088,0.0150,-0.0164,-2.6344,1.4505,2.9918
2024-10-11T12:40:45.332Z,0.0193,-0.8530,0.1365,0.0285,-1.3976,-0.0784,-0.0131,0.0108,-0.0156,-2.6344,1.4505,2.9918
2024-10-11T12:40:45.343Z,0.0251,-0.8601,0.1408,0.0285,-1.3976,-0.0784,-0.0168,0.0063,-0.0161,-2.6344,1.4505,2.9918
2024-10-11T12:40:45.352Z,0.0251,-0.8601,0.1408,-0.0730,-1.2652,-0.2422,-0.0219,0.0005,-0.0133,-2.6302,1.4509,2.9875
2024-10-11T12:40:45.363Z,0.0293,-0.8697,0.1482,-0.0730,-1.2652,-0.2422,-0.0243,-0.0077,-0.0105,-2.6302,1.4509,2.9875
2024-10-11T12:40:45.372Z,0.0296,-0.8703,0.1494,-0.0730,-1.2652,-0.2422,-0.0282,-0.0088,-0.0123,-2.6302,1.4509,2.9875
2024-10-11T12:40:45.384Z,0.0226,-0.8706,0.1459,-0.0627,-1.2045,-0.2882,-0.0302,-0.0110,-0.0100,-2.6263,1.4517,2.9833
2024-10-11T12:40:45.392Z,0.0202,-0.8722,0.1421,-0.0627,-1.2045,-0.2882,-0.0357,-0.0133,-0.0081,-2.6263,1.4517,2.9833
2024-10-11T12:40:45.402Z,0.0211,-0.8728,0.1416,-0.0627,-1.2045,-0.2882,-0.0403,-0.0143,-0.0079,-2.6263,1.4517,2.9833
2024-10-11T12:40:45.412Z,0.0209,-0.8777,0.1401,-0.0114,-1.1636,-0.2408,-0.0396,-0.0163,-0.0065,-2.6230,1.4527,2.9793
2024-10-11T12:40:45.422Z,0.0216,-0.8834,0.1347,-0.0114,-1.1636,-0.2408,-0.0415,-0.0180,-0.0066,-2.6230,1.4527,2.9793
2024-10-11T12:40:45.433Z,0.0242,-0.8850,0.1299,-0.0114,-1.1636,-0.2408,-0.0388,-0.0201,-0.0081,-2.6230,1.4527,2.9793
2024-10-11T12:40:45.443Z,0.0240,-0.8843,0.1292,-0.0515,-1.0616,-0.1524,-0.0398,-0.0182,-0.0035,-2.6201,1.4539,2.9756
2024-10-11T12:40:45.453Z,0.0257,-0.8864,0.1294,-0.0515,-1.0616,-0.1524,-0.0383,-0.0165,-0.0081,-2.6201,1.4539,2.9756
2024-10-11T12:40:45.463Z,0.0195,-0.8897,0.1323,-0.0515,-1.0616,-0.1524,-0.0399,-0.0137,-0.0040,-2.6201,1.4539,2.9756
2024-10-11T12:40:45.472Z,0.0197,-0.8969,0.1355,0.0014,-0.9771,-0.2022,-0.0375,-0.0140,-0.0028,-2.6178,1.4550,2.9727
2024-10-11T12:40:45.483Z,0.0185,-0.9031,0.1370,0.0014,-0.9771,-0.2022,-0.0367,-0.0081,-0.0047,-2.6178,1.4550,2.9727
2024-10-11T12:40:45.492Z,0.0148,-0.9077,0.1321,0.0014,-0.9771,-0.2022,-0.0374,-0.0062,-0.0042,-2.6178,1.4550,2.9727
2024-10-11T12:40:45.503Z,0.0151,-0.9104,0.1288,0.0491,-0.8263,-0.1629,-0.0346,-0.0067,-0.0012,-2.6157,1.4559,2.9701
2024-10-11T12:40:45.512Z,0.0196,-0.9079,0.1257,0.0491,-0.8263,-0.1629,-0.0320,-0.0030,-0.0033,-2.6157,1.4559,2.9701
2024-10-11T12:40:45.522Z,0.0229,-0.9114,0.1140,0.0491,-0.8263,-0.1629,-0.0325,0.0009,-0.0049,-2.6157,1.4559,2.9701
2024-10-11T12:40:45.533Z,0.0206,-0.9112,0.1105,-0.0208,-0.7996,-0.0047,-0.0295,0.0032,-0.0019,-2.6135,1.4568,2.9676
2024-10-11T12:40:45.542Z,0.0162,-0.9122,0.1042,-0.0208,-0.7996,-0.0047,-0.0292,0.0091,-0.0051,-2.6135,1.4568,2.9676
2024-10-11T12:40:45.552Z,0.0109,-0.9112,0.1019,-0.0208,-0.7996,-0.0047,-0.0223,0.0046,-0.0051,-2.6135,1.4568,2.9676
2024-10-11T12:40:45.562Z,0.0049,-0.9062,0.0966,0.1315,-0.8286,0.1016,-0.0213,0.0046,-0.0108,-2.6108,1.4575,2.9648
2024-10-11T12:40:45.572Z,0.0048,-0.9042,0.0869,0.1315,-0.8286,0.1016,-0.0156,0.0041,-0.0125,-2.6108,1.4575,2.9648
2024-10-11T12:40:45.583Z,0.0056,-0.9033,0.0842,0.1315,-0.8286,0.1016,-0.0117,0.0061,-0.0166,-2.6108,1.4575,2.9648
2024-10-11T12:40:45.592Z,0.0026,-0.9016,0.0838,0.1696,-0.8887,0.2708,-0.0092,0.0064,-0.0196,-2.6066,1.4577,2.9606
2024-10-11T12:40:45.603Z,0.0097,-0.9029,0.0867,0.1696,-0.8887,0.2708,-0.0023,0.0089,-0.0182,-2.6066,1.4577,2.9606
2024-10-11T12:40:45.612Z,0.0089,-0.9066,0.0894,0.1696,-0.8887,0.2708,-0.0018,0.0108,-0.0199,-2.6066,1.4577,2.9606
2024-10-11T12:40:45.622Z,0.0113,-0.9129,0.0882,0.1119,-0.8237,0.2178,0.0007,0.0160,-0.0226,-2.6014,1.4576,2.9555
2024-10-11T12:40:45.633Z,0.0167,-0.9149,0.0898,0.1119,-0.8237,0.2178,0.0044,0.0194,-0.0219,-2.6014,1.4576,2.9555
2024-10-11T12:40:45.642Z,0.0229,-0.9205,0.0875,0.1119,-0.8237,0.2178,0.0051,0.0233,-0.0188,-2.6014,1.4576,2.9555
