time,gFx,gFy,gFz,ax,ay,az,wx,wy,wz,yaw,pitch,roll
2024-10-11T13:48:29.229Z,0.0278,-0.9707,0.1855,-0.0037,-0.0875,0.1057,-0.0016,0.0114,0.0066,2.9055,1.3716,3.0158
2024-10-11T13:48:29.234Z,0.0262,-0.9745,0.1892,-0.0037,-0.0875,0.1057,0.0046,0.0115,0.0046,2.9055,1.3716,3.0158
2024-10-11T13:48:29.244Z,0.0263,-0.9769,0.1917,-0.0222,-0.0240,0.0435,0.0049,0.0104,0.0054,2.9045,1.3715,3.0169
2024-10-11T13:48:29.254Z,0.0296,-0.9776,0.1952,-0.0222,-0.0240,0.0435,0.0047,0.0071,0.0041,2.9045,1.3715,3.0169
2024-10-11T13:48:29.264Z,0.0278,-0.9771,0.1953,-0.0222,-0.0240,0.0435,0.0057,0.0102,0.0058,2.9045,1.3715,3.0169
2024-10-11T13:48:29.274Z,0.0257,-0.9796,0.1945,-0.0091,-0.0018,0.0207,0.0028,0.0078,0.0067,2.9036,1.3715,3.0178
2024-10-11T13:48:29.284Z,0.0269,-0.9776,0.1952,-0.0091,-0.0018,0.0207,0.0042,0.0072,0.0054,2.9036,1.3715,3.0178
2024-10-11T13:48:29.294Z,0.0258,-0.9768,0.1938,-0.0091,-0.0018,0.0207,0.0049,0.0110,0.0059,2.9036,1.3715,3.0178
2024-10-11T13:48:29.304Z,0.0235,-0.9780,0.1948,0.0000,-0.0144,0.0206,0.0048,0.0107,0.0052,2.9025,1.3714,3.0189
2024-10-11T13:48:29.314Z,0.0246,-0.9796,0.1956,0.0000,-0.0144,0.0206,0.0045,0.0092,0.0058,2.9025,1.3714,3.0189
2024-10-11T13:48:29.324Z,0.0249,-0.9814,0.1951,0.0000,-0.0144,0.0206,0.0052,0.0099,0.0069,2.9025,1.3714,3.0189
2024-10-11T13:48:29.334Z,0.0228,-0.9838,0.1955,0.0079,0.0384,0.0134,0.0054,0.0075,0.0033,2.9014,1.3712,3.0199
2024-10-11T13:48:29.344Z,0.0250,-0.9829,0.1963,0.0079,0.0384,0.0134,0.0045,0.0089,0.0067,2.9014,1.3712,3.0199
2024-10-11T13:48:29.354Z,0.0214,-0.9837,0.1971,0.0079,0.0384,0.0134,0.0043,0.0063,0.0031,2.9014,1.3712,3.0199
2024-10-11T13:48:29.364Z,0.0225,-0.9857,0.1980,0.0041,0.0519,-0.0109,0.0033,0.0045,0.0044,2.9004,1.3711,3.0209
2024-10-11T13:48:29.374Z,0.0235,-0.9855,0.1993,0.0041,0.0519,-0.0109,0.0046,0.0052,0.0032,2.9004,1.3711,3.0209
2024-10-11T13:48:29.384Z,0.0217,-0.9866,0.1979,0.0041,0.0519,-0.0109,0.0030,0.0024,0.0015,2.9004,1.3711,3.0209
2024-10-11T13:48:29.394Z,0.0237,-0.9841,0.1982,-0.0029,0.0400,-0.0061,-0.0004,0.0030,0.0023,2.8997,1.3709,3.0215
2024-10-11T13:48:29.404Z,0.0232,-0.9837,0.1974,-0.0029,0.0400,-0.0061,0.0015,0.0047,0.0010,2.8997,1.3709,3.0215
2024-10-11T13:48:29.414Z,0.0257,-0.9825,0.1967,-0.0029,0.0400,-0.0061,0.0016,0.0019,0.0014,2.8997,1.3709,3.0215
2024-10-11T13:48:29.424Z,0.0273,-0.9830,0.1984,-0.0364,0.0280,-0.0175,0.0004,0.0023,0.0007,2.8992,1.3709,3.0218
2024-10-11T13:48:29.434Z,0.0280,-0.9822,0.1964,-0.0364,0.0280,-0.0175,-0.0002,0.0028,0.0013,2.8992,1.3709,3.0218
2024-10-11T13:48:29.444Z,0.0250,-0.9794,0.1964,-0.0364,0.0280,-0.0175,-0.0000,0.0050,0.0007,2.8992,1.3709,3.0218
2024-10-11T13:48:29.454Z,0.0254,-0.9821,0.1984,-0.0233,0.0219,-0.0124,0.0014,0.0037,-0.0004,2.8985,1.3709,3.0224
2024-10-11T13:48:29.464Z,0.0244,-0.9828,0.1979,-0.0233,0.0219,-0.0124,-0.0019,0.0030,0.0010,2.8985,1.3709,3.0224
2024-10-11T13:48:29.474Z,0.0249,-0.9832,0.1963,-0.0233,0.0219,-0.0124,-0.0014,0.0063,-0.0009,2.8985,1.3709,3.0224
2024-10-11T13:48:29.485Z,0.0234,-0.9832,0.1979,-0.0038,0.0316,-0.0155,-0.0032,0.0068,0.0014,2.8978,1.3709,3.0229
2024-10-11T13:48:29.494Z,0.0214,-0.9836,0.1991,-0.0038,0.0316,-0.0155,-0.0028,0.0050,-0.0004,2.8978,1.3709,3.0229
2024-10-11T13:48:29.505Z,0.0195,-0.9818,0.1976,-0.0038,0.0316,-0.0155,-0.0056,0.0054,-0.0009,2.8978,1.3709,3.0229
2024-10-11T13:48:29.514Z,0.0224,-0.9833,0.1960,0.0134,0.0356,0.0107,-0.0024,0.0054,-0.0006,2.8988,1.3710,3.0218
2024-10-11T13:48:29.524Z,0.0215,-0.9827,0.1955,0.0134,0.0356,0.0107,-0.0018,0.0018,-0.0020,2.8988,1.3710,3.0218
2024-10-11T13:48:29.534Z,0.0226,-0.9838,0.1953,0.0134,0.0356,0.0107,-0.0032,0.0023,-0.0024,2.8988,1.3710,3.0218
2024-10-11T13:48:29.544Z,0.0234,-0.9835,0.1934,-0.0048,0.0230,0.0354,-0.0056,-0.0003,-0.0034,2.8991,1.3711,3.0212
2024-10-11T13:48:29.555Z,0.0241,-0.9817,0.1942,-0.0048,0.0230,0.0354,-0.0036,-0.0016,-0.0014,2.8991,1.3711,3.0212
2024-10-11T13:48:29.564Z,0.0242,-0.9818,0.1920,-0.0048,0.0230,0.0354,-0.0032,-0.0049,-0.0008,2.8991,1.3711,3.0212
2024-10-11T13:48:29.574Z,0.0258,-0.9814,0.1929,-0.0298,0.0170,0.0445,-0.0019,-0.0040,-0.0011,2.8990,1.3711,3.0210
2024-10-11T13:48:29.584Z,0.0267,-0.9816,0.1938,-0.0298,0.0170,0.0445,-0.0041,-0.0072,-0.0013,2.8990,1.3711,3.0210
2024-10-11T13:48:29.594Z,0.0262,-0.9800,0.1929,-0.0298,0.0170,0.0445,-0.0031,-0.0087,-0.0025,2.8990,1.3711,3.0210
2024-10-11T13:48:29.605Z,0.0279,-0.9803,0.1947,-0.0369,0.0014,0.0243,-0.0007,-0.0107,-0.0010,2.8987,1.3712,3.0209
2024-10-11T13:48:29.614Z,0.0260,-0.9800,0.1953,-0.0369,0.0014,0.0243,-0.0023,-0.0101,-0.0014,2.8987,1.3712,3.0209
2024-10-11T13:48:29.624Z,0.0259,-0.9797,0.1961,-0.0369,0.0014,0.0243,-0.0015,-0.0073,-0.0021,2.8987,1.3712,3.0209
2024-10-11T13:48:29.634Z,0.0247,-0.9806,0.1988,-0.0110,-0.0023,-0.0146,0.0005,-0.0072,-0.0000,2.8987,1.3713,3.0204
2024-10-11T13:48:29.644Z,0.0262,-0.9788,0.1968,-0.0110,-0.0023,-0.0146,-0.0033,-0.0075,-0.0025,2.8987,1.3713,3.0204
2024-10-11T13:48:29.655Z,0.0269,-0.9809,0.1974,-0.0110,-0.0023,-0.0146,-0.0009,-0.0057,0.0014,2.8987,1.3713,3.0204
2024-10-11T13:48:29.664Z,0.0272,-0.9805,0.1991,-0.0320,0.0016,-0.0321,-0.0033,-0.0047,-0.0014,2.8988,1.3715,3.0197
2024-10-11T13:48:29.675Z,0.0268,-0.9796,0.1986,-0.0320,0.0016,-0.0321,-0.0015,-0.0043,0.0016,2.8988,1.3715,3.0197
2024-10-11T13:48:29.684Z,0.0249,-0.9771,0.1973,-0.0320,0.0016,-0.0321,-0.0041,-0.0021,0.0009,2.8988,1.3715,3.0197
2024-10-11T13:48:29.695Z,0.0231,-0.9773,0.1947,0.0061,-0.0210,0.0261,-0.0033,0.0006,0.0023,2.8990,1.3716,3.0193
2024-10-11T13:48:29.706Z,0.0265,-0.9785,0.1921,0.0061,-0.0210,0.0261,-0.0047,0.0019,-0.0005,2.8990,1.3716,3.0193
2024-10-11T13:48:29.714Z,0.0236,-0.9817,0.1898,0.0061,-0.0210,0.0261,-0.0016,0.0032,-0.0004,2.8990,1.3716,3.0193
2024-10-11T13:48:29.724Z,0.0257,-0.9861,0.1893,-0.0145,0.0576,0.0794,-0.0027,0.0062,0.0009,2.8988,1.3716,3.0193
2024-10-11T13:48:29.734Z,0.0242,-0.9882,0.1854,-0.0145,0.0576,0.0794,0.0025,0.0081,-0.0022,2.8988,1.3716,3.0193
2024-10-11T13:48:29.744Z,0.0250,-0.9860,0.1881,-0.0145,0.0576,0.0794,-0.0004,0.0101,-0.0008,2.8988,1.3716,3.0193
2024-10-11T13:48:29.756Z,0.0172,-0.9882,0.1963,0.0806,0.0660,0.0079,-0.0000,0.0109,-0.0025,2.8986,1.3716,3.0194
2024-10-11T13:48:29.764Z,0.0251,-0.9774,0.1964,0.0806,0.0660,0.0079,-0.0045,0.0134,0.0004,2.8986,1.3716,3.0194
2024-10-11T13:48:29.774Z,0.0196,-0.9824,0.1983,0.0806,0.0660,0.0079,-0.0008,0.0142,-0.0003,2.8986,1.3716,3.0194
2024-10-11T13:48:29.784Z,0.0226,-0.9760,0.1967,0.0011,-0.0446,-0.0099,-0.0028,0.0147,-0.0007,2.8986,1.3716,3.0196
2024-10-11T13:48:29.794Z,0.0253,-0.9776,0.1991,0.0011,-0.0446,-0.0099,-0.0045,0.0190,-0.0009,2.8986,1.3716,3.0196
2024-10-11T13:48:29.805Z,0.0174,-0.9757,0.2004,0.0011,-0.0446,-0.0099,-0.0045,0.0172,-0.0009,2.8986,1.3716,3.0196
2024-10-11T13:48:29.814Z,0.0247,-0.9742,0.2006,-0.0076,-0.0619,-0.0391,-0.0024,0.0197,-0.0011,2.8985,1.3717,3.0199
2024-10-11T13:48:29.824Z,0.0227,-0.9743,0.1999,-0.0076,-0.0619,-0.0391,-0.0038,0.0198,-0.0012,2.8985,1.3717,3.0199
2024-10-11T13:48:29.834Z,0.0226,-0.9755,0.1985,-0.0076,-0.0619,-0.0391,-0.0064,0.0218,-0.0010,2.8985,1.3717,3.0199
2024-10-11T13:48:29.844Z,0.0208,-0.9764,0.1958,0.0325,-0.0423,-0.0008,-0.0056,0.0234,-0.0011,2.8983,1.3718,3.0205
2024-10-11T13:48:29.855Z,0.0203,-0.9778,0.1949,0.0325,-0.0423,-0.0008,-0.0044,0.0218,0.0003,2.8983,1.3718,3.0205
2024-10-11T13:48:29.864Z,0.0215,-0.9790,0.1970,0.0325,-0.0423,-0.0008,-0.0066,0.0216,-0.0009,2.8983,1.3718,3.0205
2024-10-11T13:48:29.874Z,0.0220,-0.9807,0.1956,0.0146,0.0036,0.0088,-0.0068,0.0209,-0.0019,2.8983,1.3719,3.0209
2024-10-11T13:48:29.884Z,0.0232,-0.9814,0.1943,0.0146,0.0036,0.0088,-0.0027,0.0196,-0.0036,2.8983,1.3719,3.0209
2024-10-11T13:48:29.894Z,0.0234,-0.9828,0.1916,0.0146,0.0036,0.0088,-0.0051,0.0204,-0.0007,2.8983,1.3719,3.0209
2024-10-11T13:48:29.906Z,0.0225,-0.9812,0.1916,0.0142,0.0022,0.0463,-0.0028,0.0204,0.0004,2.8983,1.3720,3.0213
2024-10-11T13:48:29.915Z,0.0249,-0.9807,0.1905,0.0142,0.0022,0.0463,-0.0020,0.0182,-0.0013,2.8983,1.3720,3.0213
2024-10-11T13:48:29.926Z,0.0270,-0.9794,0.1899,0.0142,0.0022,0.0463,0.0005,0.0201,0.0002,2.8983,1.3720,3.0213
2024-10-11T13:48:29.934Z,0.0242,-0.9788,0.1890,0.0032,-0.0230,0.0720,-0.0001,0.0210,0.0016,2.8981,1.3720,3.0218
2024-10-11T13:48:29.944Z,0.0235,-0.9762,0.1902,0.0032,-0.0230,0.0720,0.0003,0.0229,0.0001,2.8981,1.3720,3.0218
2024-10-11T13:48:29.955Z,0.0216,-0.9757,0.1903,0.0032,-0.0230,0.0720,0.0038,0.0260,-0.0003,2.8981,1.3720,3.0218
2024-10-11T13:48:29.964Z,0.0188,-0.9747,0.1884,0.0467,-0.0493,0.0719,0.0024,0.0265,0.0020,2.8977,1.3719,3.0226
2024-10-11T13:48:29.974Z,0.0203,-0.9764,0.1875,0.0467,-0.0493,0.0719,0.0034,0.0283,-0.0003,2.8977,1.3719,3.0226
2024-10-11T13:48:29.984Z,0.0171,-0.9773,0.1861,0.0467,-0.0493,0.0719,0.0031,0.0318,0.0014,2.8977,1.3719,3.0226
2024-10-11T13:48:29.994Z,0.0213,-0.9801,0.1862,0.0241,-0.0071,0.1005,0.0057,0.0318,-0.0005,2.8973,1.3718,3.0236
2024-10-11T13:48:30.005Z,0.0173,-0.9810,0.1846,0.0241,-0.0071,0.1005,0.0077,0.0293,0.0015,2.8973,1.3718,3.0236
2024-10-11T13:48:30.014Z,0.0209,-0.9803,0.1845,0.0241,-0.0071,0.1005,0.0084,0.0295,0.0002,2.8973,1.3718,3.0236
2024-10-11T13:48:30.024Z,0.0236,-0.9789,0.1862,-0.0098,-0.0104,0.1011,0.0110,0.0274,0.0003,2.8971,1.3716,3.0245
2024-10-11T13:48:30.034Z,0.0217,-0.9795,0.1837,-0.0098,-0.0104,0.1011,0.0128,0.0283,0.0002,2.8971,1.3716,3.0245
2024-10-11T13:48:30.044Z,0.0197,-0.9782,0.1833,-0.0098,-0.0104,0.1011,0.0143,0.0240,-0.0005,2.8971,1.3716,3.0245
2024-10-11T13:48:30.056Z,0.0213,-0.9785,0.1833,0.0162,-0.0208,0.1356,0.0173,0.0220,-0.0025,2.8966,1.3713,3.0255
2024-10-11T13:48:30.064Z,0.0208,-0.9769,0.1832,0.0162,-0.0208,0.1356,0.0178,0.0223,-0.0017,2.8966,1.3713,3.0255
2024-10-11T13:48:30.074Z,0.0238,-0.9742,0.1852,0.0162,-0.0208,0.1356,0.0189,0.0217,-0.0021,2.8966,1.3713,3.0255
2024-10-11T13:48:30.084Z,0.0246,-0.9729,0.1851,-0.0114,-0.0684,0.1138,0.0196,0.0177,-0.0044,2.8961,1.3709,3.0265
2024-10-11T13:48:30.094Z,0.0250,-0.9737,0.1888,-0.0114,-0.0684,0.1138,0.0190,0.0154,-0.0038,2.8961,1.3709,3.0265
2024-10-11T13:48:30.105Z,0.0242,-0.9749,0.1905,-0.0114,-0.0684,0.1138,0.0224,0.0132,-0.0036,2.8961,1.3709,3.0265
2024-10-11T13:48:30.114Z,0.0225,-0.9756,0.1919,0.0043,-0.0425,0.0532,0.0222,0.0094,-0.0030,2.8961,1.3704,3.0266
2024-10-11T13:48:30.125Z,0.0222,-0.9773,0.1948,0.0043,-0.0425,0.0532,0.0235,0.0107,-0.0046,2.8961,1.3704,3.0266
2024-10-11T13:48:30.135Z,0.0222,-0.9773,0.1948,0.0043,-0.0425,0.0532,0.0228,0.0085,-0.0020,2.8961,1.3704,3.0266
2024-10-11T13:48:30.145Z,0.0212,-0.9760,0.1941,0.0140,-0.0353,0.0415,0.0200,0.0100,-0.0042,2.8960,1.3698,3.0268
2024-10-11T13:48:30.155Z,0.0204,-0.9774,0.1954,0.0140,-0.0353,0.0415,0.0207,0.0113,-0.0043,2.8960,1.3698,3.0268
2024-10-11T13:48:30.164Z,0.0215,-0.9798,0.1942,0.0140,-0.0353,0.0415,0.0202,0.0077,-0.0057,2.8960,1.3698,3.0268
2024-10-11T13:48:30.174Z,0.0222,-0.9798,0.1949,0.0123,-0.0031,0.0420,0.0187,0.0072,-0.0047,2.8960,1.3692,3.0268
2024-10-11T13:48:30.185Z,0.0214,-0.9787,0.1969,0.0123,-0.0031,0.0420,0.0197,0.0051,-0.0063,2.8960,1.3692,3.0268
2024-10-11T13:48:30.194Z,0.0214,-0.9787,0.1969,0.0123,-0.0031,0.0420,0.0206,0.0039,-0.0041,2.8960,1.3692,3.0268
2024-10-11T13:48:30.206Z,0.0230,-0.9780,0.1958,-0.0017,-0.0108,0.0400,0.0187,0.0065,-0.0078,2.8962,1.3686,3.0265
2024-10-11T13:48:30.214Z,0.0250,-0.9799,0.1938,-0.0017,-0.0108,0.0400,0.0172,0.0050,-0.0040,2.8962,1.3686,3.0265
2024-10-11T13:48:30.224Z,0.0249,-0.9815,0.1946,-0.0017,-0.0108,0.0400,0.0136,0.0060,-0.0093,2.8962,1.3686,3.0265
2024-10-11T13:48:30.235Z,0.0250,-0.9844,0.2002,-0.0182,0.0391,0.0340,0.0149,0.0045,-0.0086,2.8967,1.3681,3.0259
2024-10-11T13:48:30.245Z,0.0254,-0.9860,0.2017,-0.0182,0.0391,0.0340,0.0134,0.0058,-0.0098,2.8967,1.3681,3.0259
2024-10-11T13:48:30.256Z,0.0256,-0.9829,0.2033,-0.0182,0.0391,0.0340,0.0142,0.0040,-0.0072,2.8967,1.3681,3.0259
2024-10-11T13:48:30.264Z,0.0256,-0.9829,0.2033,-0.0220,0.0373,-0.0317,0.0147,0.0063,-0.0078,2.8976,1.3677,3.0249
2024-10-11T13:48:30.275Z,0.0234,-0.9840,0.2044,-0.0220,0.0373,-0.0317,0.0149,0.0071,-0.0090,2.8976,1.3677,3.0249
2024-10-11T13:48:30.285Z,0.0218,-0.9859,0.2067,-0.0220,0.0373,-0.0317,0.0107,0.0096,-0.0132,2.8976,1.3677,3.0249
2024-10-11T13:48:30.295Z,0.0211,-0.9867,0.2092,0.0198,0.0687,-0.0637,0.0097,0.0116,-0.0109,2.8985,1.3673,3.0240
2024-10-11T13:48:30.305Z,0.0200,-0.9871,0.2102,0.0198,0.0687,-0.0637,0.0107,0.0151,-0.0092,2.8985,1.3673,3.0240
2024-10-11T13:48:30.315Z,0.0194,-0.9836,0.2092,0.0198,0.0687,-0.0637,0.0102,0.0174,-0.0111,2.8985,1.3673,3.0240
2024-10-11T13:48:30.325Z,0.0192,-0.9831,0.2112,0.0437,0.0363,-0.0813,0.0096,0.0176,-0.0116,2.8998,1.3669,3.0230
2024-10-11T13:48:30.335Z,0.0179,-0.9830,0.2116,0.0437,0.0363,-0.0813,0.0097,0.0217,-0.0101,2.8998,1.3669,3.0230
2024-10-11T13:48:30.345Z,0.0199,-0.9830,0.2134,0.0437,0.0363,-0.0813,0.0069,0.0262,-0.0123,2.8998,1.3669,3.0230
2024-10-11T13:48:30.355Z,0.0199,-0.9830,0.2134,0.0390,0.0306,-0.1243,0.0047,0.0283,-0.0141,2.9011,1.3666,3.0221
2024-10-11T13:48:30.365Z,0.0226,-0.9853,0.2143,0.0390,0.0306,-0.1243,0.0059,0.0301,-0.0113,2.9011,1.3666,3.0221
2024-10-11T13:48:30.376Z,0.0259,-0.9837,0.2123,0.0390,0.0306,-0.1243,0.0070,0.0328,-0.0116,2.9011,1.3666,3.0221
2024-10-11T13:48:30.385Z,0.0278,-0.9842,0.2107,-0.0191,0.0411,-0.1034,0.0014,0.0323,-0.0123,2.9026,1.3664,3.0213
2024-10-11T13:48:30.395Z,0.0303,-0.9846,0.2116,-0.0191,0.0411,-0.1034,0.0017,0.0304,-0.0123,2.9026,1.3664,3.0213
2024-10-11T13:48:30.405Z,0.0303,-0.9859,0.2101,-0.0191,0.0411,-0.1034,-0.0018,0.0308,-0.0111,2.9026,1.3664,3.0213
2024-10-11T13:48:30.415Z,0.0301,-0.9856,0.2100,-0.0523,0.0591,-0.0789,-0.0032,0.0273,-0.0097,2.9038,1.3663,3.0208
2024-10-11T13:48:30.425Z,0.0325,-0.9861,0.2079,-0.0523,0.0591,-0.0789,-0.0015,0.0259,-0.0110,2.9038,1.3663,3.0208
2024-10-11T13:48:30.435Z,0.0278,-0.9828,0.2096,-0.0523,0.0591,-0.0789,-0.0040,0.0274,-0.0112,2.9038,1.3663,3.0208
2024-10-11T13:48:30.445Z,0.0265,-0.9801,0.2083,-0.0228,0.0392,-0.0816,-0.0035,0.0288,-0.0102,2.9049,1.3662,3.0203
2024-10-11T13:48:30.455Z,0.0269,-0.9773,0.2094,-0.0228,0.0392,-0.0816,-0.0022,0.0248,-0.0103,2.9049,1.3662,3.0203
2024-10-11T13:48:30.465Z,0.0267,-0.9779,0.2105,-0.0228,0.0392,-0.0816,-0.0054,0.0282,-0.0103,2.9049,1.3662,3.0203
2024-10-11T13:48:30.473Z,0.0267,-0.9779,0.2105,-0.0222,-0.0154,-0.0950,-0.0044,0.0240,-0.0092,2.9062,1.3662,3.0196
2024-10-11T13:48:30.485Z,0.0273,-0.9781,0.2125,-0.0222,-0.0154,-0.0950,-0.0053,0.0255,-0.0112,2.9062,1.3662,3.0196
2024-10-11T13:48:30.495Z,0.0289,-0.9791,0.2125,-0.0222,-0.0154,-0.0950,-0.0053,0.0220,-0.0095,2.9062,1.3662,3.0196
2024-10-11T13:48:30.505Z,0.0312,-0.9802,0.2092,-0.0408,-0.0018,-0.0994,-0.0050,0.0200,-0.0089,2.9078,1.3663,3.0185
2024-10-11T13:48:30.514Z,0.0306,-0.9802,0.2086,-0.0408,-0.0018,-0.0994,-0.0044,0.0189,-0.0089,2.9078,1.3663,3.0185
2024-10-11T13:48:30.524Z,0.0306,-0.9802,0.2086,-0.0408,-0.0018,-0.0994,-0.0036,0.0184,-0.0049,2.9078,1.3663,3.0185
2024-10-11T13:48:30.534Z,0.0322,-0.9781,0.2030,-0.0717,-0.0103,-0.0266,-0.0047,0.0192,-0.0073,2.9088,1.3663,3.0178
2024-10-11T13:48:30.544Z,0.0334,-0.9796,0.2027,-0.0717,-0.0103,-0.0266,-0.0057,0.0166,-0.0073,2.9088,1.3663,3.0178
2024-10-11T13:48:30.555Z,0.0345,-0.9784,0.2003,-0.0717,-0.0103,-0.0266,-0.0027,0.0178,-0.0044,2.9088,1.3663,3.0178
2024-10-11T13:48:30.565Z,0.0362,-0.9769,0.1971,-0.0969,-0.0138,0.0169,-0.0046,0.0161,-0.0059,2.9095,1.3662,3.0174
2024-10-11T13:48:30.575Z,0.0356,-0.9765,0.2007,-0.0969,-0.0138,0.0169,-0.0018,0.0132,-0.0041,2.9095,1.3662,3.0174
2024-10-11T13:48:30.584Z,0.0350,-0.9752,0.2014,-0.0969,-0.0138,0.0169,-0.0006,0.0124,-0.0012,2.9095,1.3662,3.0174
2024-10-11T13:48:30.595Z,0.0324,-0.9745,0.2036,-0.0911,-0.0445,0.0036,-0.0024,0.0114,0.0013,2.9096,1.3662,3.0174
2024-10-11T13:48:30.605Z,0.0307,-0.9750,0.2052,-0.0911,-0.0445,0.0036,-0.0020,0.0138,-0.0004,2.9096,1.3662,3.0174
2024-10-11T13:48:30.615Z,0.0297,-0.9753,0.2073,-0.0911,-0.0445,0.0036,-0.0015,0.0140,0.0019,2.9096,1.3662,3.0174
2024-10-11T13:48:30.623Z,0.0297,-0.9753,0.2073,-0.0406,-0.0361,-0.0572,0.0001,0.0125,0.0005,2.9092,1.3662,3.0179
2024-10-11T13:48:30.635Z,0.0294,-0.9743,0.2085,-0.0406,-0.0361,-0.0572,-0.0012,0.0137,0.0011,2.9092,1.3662,3.0179
2024-10-11T13:48:30.645Z,0.0288,-0.9742,0.2074,-0.0348,-0.0539,-0.0583,0.0014,0.0105,0.0026,2.9092,1.3662,3.0181
2024-10-11T13:48:30.654Z,0.0297,-0.9732,0.2065,-0.0348,-0.0539,-0.0583,0.0055,0.0091,0.0008,2.9092,1.3662,3.0181
2024-10-11T13:48:30.664Z,0.0286,-0.9746,0.2072,-0.0348,-0.0539,-0.0583,0.0047,0.0112,0.0000,2.9092,1.3662,3.0181
2024-10-11T13:48:30.675Z,0.0270,-0.9762,0.2073,-0.0348,-0.0539,-0.0583,0.0023,0.0120,-0.0002,2.9092,1.3662,3.0181
2024-10-11T13:48:30.685Z,0.0263,-0.9738,0.2050,-0.0263,-0.0242,-0.0524,0.0012,0.0126,-0.0046,2.9093,1.3661,3.0181
2024-10-11T13:48:30.694Z,0.0261,-0.9730,0.2046,-0.0263,-0.0242,-0.0524,0.0014,0.0121,-0.0025,2.9093,1.3661,3.0181
2024-10-11T13:48:30.706Z,0.0267,-0.9726,0.2046,-0.0232,-0.0650,-0.0246,0.0002,0.0142,-0.0035,2.9094,1.3659,3.0181
2024-10-11T13:48:30.714Z,0.0284,-0.9715,0.2039,-0.0232,-0.0650,-0.0246,0.0023,0.0154,-0.0020,2.9094,1.3659,3.0181
2024-10-11T13:48:30.724Z,0.0275,-0.9723,0.2031,-0.0232,-0.0650,-0.0246,0.0032,0.0143,0.0005,2.9094,1.3659,3.0181
2024-10-11T13:48:30.735Z,0.0270,-0.9730,0.2019,-0.0154,-0.0559,-0.0028,0.0038,0.0151,-0.0008,2.9097,1.3657,3.0180
2024-10-11T13:48:30.744Z,0.0274,-0.9762,0.2034,-0.0154,-0.0559,-0.0028,0.0026,0.0166,-0.0020,2.9097,1.3657,3.0180
2024-10-11T13:48:30.754Z,0.0280,-0.9778,0.2032,-0.0154,-0.0559,-0.0028,0.0033,0.0147,-0.0031,2.9097,1.3657,3.0180
2024-10-11T13:48:30.766Z,0.0311,-0.9771,0.2036,-0.0562,-0.0122,-0.0161,0.0020,0.0124,-0.0012,2.9101,1.3653,3.0178
2024-10-11T13:48:30.774Z,0.0311,-0.9771,0.2036,-0.0562,-0.0122,-0.0161,0.0050,0.0135,-0.0019,2.9101,1.3653,3.0178
2024-10-11T13:48:30.785Z,0.0291,-0.9783,0.2058,-0.0562,-0.0122,-0.0161,0.0028,0.0123,-0.0044,2.9101,1.3653,3.0178
2024-10-11T13:48:30.794Z,0.0304,-0.9793,0.2070,-0.0562,-0.0122,-0.0161,0.0036,0.0108,-0.0056,2.9101,1.3653,3.0178
2024-10-11T13:48:30.805Z,0.0306,-0.9822,0.2082,-0.0512,0.0049,-0.0456,0.0041,0.0086,-0.0040,2.9107,1.3651,3.0174
2024-10-11T13:48:30.814Z,0.0288,-0.9828,0.2100,-0.0512,0.0049,-0.0456,0.0050,0.0102,-0.0088,2.9107,1.3651,3.0174
2024-10-11T13:48:30.824Z,0.0284,-0.9836,0.2111,-0.0512,0.0049,-0.0456,0.0062,0.0089,-0.0065,2.9107,1.3651,3.0174
2024-10-11T13:48:30.834Z,0.0280,-0.9816,0.2113,-0.0232,0.0416,-0.0797,0.0056,0.0109,-0.0060,2.9112,1.3649,3.0169
2024-10-11T13:48:30.844Z,0.0308,-0.9800,0.2115,-0.0232,0.0416,-0.0797,0.0035,0.0056,-0.0050,2.9112,1.3649,3.0169
2024-10-11T13:48:30.855Z,0.0300,-0.9801,0.2093,-0.0458,0.0160,-0.0603,-0.0002,0.0088,-0.0058,2.9117,1.3647,3.0164
2024-10-11T13:48:30.864Z,0.0307,-0.9799,0.2073,-0.0458,0.0160,-0.0603,-0.0004,0.0051,-0.0040,2.9117,1.3647,3.0164
2024-10-11T13:48:30.874Z,0.0297,-0.9799,0.2083,-0.0458,0.0160,-0.0603,0.0020,0.0086,-0.0057,2.9117,1.3647,3.0164
2024-10-11T13:48:30.885Z,0.0278,-0.9803,0.2090,-0.0227,0.0140,-0.0599,0.0013,0.0097,-0.0030,2.9121,1.3646,3.0159
2024-10-11T13:48:30.894Z,0.0286,-0.9787,0.2094,-0.0227,0.0140,-0.0599,0.0013,0.0107,-0.0052,2.9121,1.3646,3.0159
2024-10-11T13:48:30.904Z,0.0261,-0.9803,0.2060,-0.0227,0.0140,-0.0599,-0.0010,0.0110,-0.0016,2.9121,1.3646,3.0159
2024-10-11T13:48:30.915Z,0.0220,-0.9793,0.2051,0.0341,0.0059,-0.0158,-0.0007,0.0130,0.0011,2.9123,1.3644,3.0158
2024-10-11T13:48:30.925Z,0.0227,-0.9770,0.2029,0.0341,0.0059,-0.0158,0.0007,0.0147,-0.0021,2.9123,1.3644,3.0158
2024-10-11T13:48:30.934Z,0.0235,-0.9776,0.2015,0.0341,0.0059,-0.0158,0.0015,0.0162,-0.0006,2.9123,1.3644,3.0158
2024-10-11T13:48:30.945Z,0.0219,-0.9785,0.2009,0.0381,0.0074,0.0256,-0.0017,0.0148,-0.0023,2.9126,1.3643,3.0157
2024-10-11T13:48:30.954Z,0.0206,-0.9785,0.2000,0.0381,0.0074,0.0256,0.0010,0.0155,-0.0027,2.9126,1.3643,3.0157
2024-10-11T13:48:30.964Z,0.0232,-0.9778,0.1993,0.0381,0.0074,0.0256,-0.0009,0.0160,-0.0044,2.9126,1.3643,3.0157
2024-10-11T13:48:30.976Z,0.0232,-0.9778,0.1993,0.0264,0.0204,0.0419,-0.0021,0.0163,-0.0044,2.9128,1.3643,3.0157
2024-10-11T13:48:30.984Z,0.0233,-0.9822,0.1994,0.0264,0.0204,0.0419,-0.0018,0.0155,-0.0040,2.9128,1.3643,3.0157
2024-10-11T13:48:30.995Z,0.0230,-0.9829,0.1997,0.0264,0.0204,0.0419,-0.0031,0.0144,-0.0054,2.9128,1.3643,3.0157
2024-10-11T13:48:31.005Z,0.0233,-0.9861,0.2010,0.0186,0.0677,0.0149,-0.0036,0.0132,-0.0048,2.9133,1.3643,3.0154
2024-10-11T13:48:31.015Z,0.0278,-0.9852,0.2027,0.0186,0.0677,0.0149,-0.0042,0.0145,-0.0067,2.9133,1.3643,3.0154
2024-10-11T13:48:31.025Z,0.0269,-0.9852,0.2055,0.0186,0.0677,0.0149,-0.0052,0.0115,-0.0065,2.9133,1.3643,3.0154
2024-10-11T13:48:31.036Z,0.0309,-0.9850,0.2050,-0.0500,0.0599,-0.0177,-0.0054,0.0124,-0.0065,2.9139,1.3644,3.0149
2024-10-11T13:48:31.044Z,0.0298,-0.9843,0.2059,-0.0500,0.0599,-0.0177,-0.0052,0.0126,-0.0080,2.9139,1.3644,3.0149
2024-10-11T13:48:31.054Z,0.0298,-0.9846,0.2055,-0.0500,0.0599,-0.0177,-0.0057,0.0109,-0.0039,2.9139,1.3644,3.0149
2024-10-11T13:48:31.065Z,0.0305,-0.9825,0.2056,-0.0488,0.0417,-0.0228,-0.0061,0.0096,-0.0034,2.9142,1.3646,3.0146
2024-10-11T13:48:31.075Z,0.0317,-0.9833,0.2046,-0.0488,0.0417,-0.0228,-0.0053,0.0116,-0.0049,2.9142,1.3646,3.0146
2024-10-11T13:48:31.083Z,0.0324,-0.9821,0.2054,-0.0488,0.0417,-0.0228,-0.0059,0.0086,-0.0040,2.9142,1.3646,3.0146
2024-10-11T13:48:31.095Z,0.0307,-0.9808,0.2030,-0.0436,0.0133,0.0064,-0.0087,0.0060,-0.0002,2.9146,1.3647,3.0143
2024-10-11T13:48:31.104Z,0.0290,-0.9806,0.2003,-0.0436,0.0133,0.0064,-0.0065,0.0051,-0.0018,2.9146,1.3647,3.0143
2024-10-11T13:48:31.114Z,0.0289,-0.9765,0.2007,-0.0436,0.0133,0.0064,-0.0095,0.0094,-0.0046,2.9146,1.3647,3.0143
2024-10-11T13:48:31.125Z,0.0289,-0.9765,0.2007,-0.0231,0.0003,0.0400,-0.0082,0.0092,-0.0048,2.9150,1.3649,3.0138
2024-10-11T13:48:31.134Z,0.0268,-0.9782,0.1992,-0.0231,0.0003,0.0400,-0.0072,0.0077,-0.0043,2.9150,1.3649,3.0138
2024-10-11T13:48:31.144Z,0.0295,-0.9799,0.1989,-0.0231,0.0003,0.0400,-0.0076,0.0065,-0.0030,2.9150,1.3649,3.0138
2024-10-11T13:48:31.156Z,0.0288,-0.9802,0.2001,-0.0233,0.0104,0.0225,-0.0081,0.0094,-0.0030,2.9156,1.3650,3.0132
2024-10-11T13:48:31.164Z,0.0325,-0.9793,0.2009,-0.0233,0.0104,0.0225,-0.0094,0.0059,-0.0042,2.9156,1.3650,3.0132
2024-10-11T13:48:31.175Z,0.0349,-0.9789,0.1998,-0.0233,0.0104,0.0225,-0.0060,0.0061,0.0007,2.9156,1.3650,3.0132
2024-10-11T13:48:31.185Z,0.0350,-0.9784,0.2010,-0.0821,-0.0122,0.0137,-0.0073,0.0065,0.0006,2.9159,1.3652,3.0129
2024-10-11T13:48:31.195Z,0.0323,-0.9786,0.2009,-0.0821,-0.0122,0.0137,-0.0087,0.0080,0.0010,2.9159,1.3652,3.0129
2024-10-11T13:48:31.204Z,0.0332,-0.9758,0.1928,-0.0821,-0.0122,0.0137,-0.0084,0.0075,0.0036,2.9159,1.3652,3.0129
2024-10-11T13:48:31.215Z,0.0337,-0.9681,0.1922,-0.0787,-0.0980,0.0928,-0.0070,0.0104,0.0046,2.9153,1.3655,3.0134
2024-10-11T13:48:31.226Z,0.0334,-0.9745,0.1921,-0.0787,-0.0980,0.0928,-0.0074,0.0105,0.0054,2.9153,1.3655,3.0134
2024-10-11T13:48:31.234Z,0.0349,-0.9702,0.1949,-0.0787,-0.0980,0.0928,-0.0063,0.0088,0.0082,2.9153,1.3655,3.0134
2024-10-11T13:48:31.246Z,0.0362,-0.9760,0.1991,-0.0894,-0.0241,0.0323,-0.0057,0.0090,0.0046,2.9145,1.3657,3.0142
2024-10-11T13:48:31.254Z,0.0282,-0.9764,0.2001,-0.0894,-0.0241,0.0323,-0.0065,0.0090,0.0072,2.9145,1.3657,3.0142
2024-10-11T13:48:31.264Z,0.0292,-0.9823,0.2029,-0.0894,-0.0241,0.0323,-0.0046,0.0060,0.0072,2.9145,1.3657,3.0142
2024-10-11T13:48:31.276Z,0.0248,-0.9829,0.2050,0.0155,0.0345,-0.0315,-0.0070,0.0085,0.0080,2.9136,1.3658,3.0151
2024-10-11T13:48:31.283Z,0.0229,-0.9814,0.2047,0.0155,0.0345,-0.0315,-0.0048,0.0101,0.0080,2.9136,1.3658,3.0151
2024-10-11T13:48:31.294Z,0.0226,-0.9804,0.2088,0.0155,0.0345,-0.0315,-0.0029,0.0114,0.0089,2.9136,1.3658,3.0151
2024-10-11T13:48:31.304Z,0.0226,-0.9811,0.2106,0.0245,0.0196,-0.0880,-0.0060,0.0124,0.0068,2.9125,1.3660,3.0162
2024-10-11T13:48:31.314Z,0.0222,-0.9817,0.2124,0.0245,0.0196,-0.0880,-0.0060,0.0150,0.0059,2.9125,1.3660,3.0162
2024-10-11T13:48:31.324Z,0.0225,-0.9830,0.2092,0.0245,0.0196,-0.0880,-0.0091,0.0158,0.0077,2.9125,1.3660,3.0162
2024-10-11T13:48:31.334Z,0.0241,-0.9840,0.2101,0.0091,0.0418,-0.0869,-0.0075,0.0170,0.0069,2.9116,1.3662,3.0173
2024-10-11T13:48:31.344Z,0.0246,-0.9870,0.2121,0.0091,0.0418,-0.0869,-0.0062,0.0194,0.0083,2.9116,1.3662,3.0173
2024-10-11T13:48:31.354Z,0.0267,-0.9874,0.2095,0.0091,0.0418,-0.0869,-0.0095,0.0161,0.0062,2.9116,1.3662,3.0173
2024-10-11T13:48:31.364Z,0.0250,-0.9863,0.2076,-0.0052,0.0660,-0.0570,-0.0101,0.0174,0.0044,2.9105,1.3665,3.0187
2024-10-11T13:48:31.374Z,0.0277,-0.9845,0.2073,-0.0052,0.0660,-0.0570,-0.0122,0.0179,0.0043,2.9105,1.3665,3.0187
2024-10-11T13:48:31.384Z,0.0257,-0.9845,0.2068,-0.0052,0.0660,-0.0570,-0.0108,0.0157,0.0052,2.9105,1.3665,3.0187
2024-10-11T13:48:31.394Z,0.0257,-0.9845,0.2068,0.0134,0.0336,-0.0524,-0.0153,0.0183,0.0037,2.9098,1.3668,3.0197
2024-10-11T13:48:31.404Z,0.0212,-0.9831,0.2038,0.0134,0.0336,-0.0524,-0.0153,0.0174,0.0037,2.9098,1.3668,3.0197
2024-10-11T13:48:31.414Z,0.0204,-0.9807,0.2040,0.0134,0.0336,-0.0524,-0.0135,0.0187,0.0031,2.9098,1.3668,3.0197
2024-10-11T13:48:31.426Z,0.0226,-0.9788,0.2033,0.0225,-0.0017,-0.0160,-0.0181,0.0189,0.0034,2.9092,1.3671,3.0205
2024-10-11T13:48:31.434Z,0.0245,-0.9766,0.2021,0.0225,-0.0017,-0.0160,-0.0148,0.0193,0.0007,2.9092,1.3671,3.0205
2024-10-11T13:48:31.444Z,0.0277,-0.9756,0.2026,0.0225,-0.0017,-0.0160,-0.0146,0.0176,0.0025,2.9092,1.3671,3.0205
2024-10-11T13:48:31.455Z,0.0279,-0.9741,0.2012,-0.0344,-0.0465,-0.0030,-0.0137,0.0158,0.0023,2.9092,1.3675,3.0208
2024-10-11T13:48:31.465Z,0.0310,-0.9735,0.1981,-0.0344,-0.0465,-0.0030,-0.0152,0.0148,-0.0002,2.9092,1.3675,3.0208
2024-10-11T13:48:31.474Z,0.0342,-0.9735,0.1981,-0.0344,-0.0465,-0.0030,-0.0134,0.0120,0.0019,2.9092,1.3675,3.0208
2024-10-11T13:48:31.484Z,0.0363,-0.9722,0.1986,-0.1179,-0.0702,0.0109,-0.0137,0.0118,0.0007,2.9089,1.3679,3.0212
2024-10-11T13:48:31.494Z,0.0333,-0.9722,0.1980,-0.1179,-0.0702,0.0109,-0.0135,0.0087,0.0021,2.9089,1.3679,3.0212
2024-10-11T13:48:31.504Z,0.0287,-0.9730,0.1927,-0.1179,-0.0702,0.0109,-0.0143,0.0081,0.0031,2.9089,1.3679,3.0212
2024-10-11T13:48:31.514Z,0.0351,-0.9751,0.1899,-0.1045,-0.0381,0.0901,-0.0172,0.0073,0.0020,2.9086,1.3683,3.0215
2024-10-11T13:48:31.524Z,0.0299,-0.9789,0.1906,-0.1045,-0.0381,0.0901,-0.0171,0.0072,0.0030,2.9086,1.3683,3.0215
2024-10-11T13:48:31.534Z,0.0365,-0.9807,0.1859,-0.1045,-0.0381,0.0901,-0.0195,0.0018,0.0066,2.9086,1.3683,3.0215
2024-10-11T13:48:31.545Z,0.0373,-0.9844,0.1822,-0.1166,0.0648,0.1667,-0.0179,-0.0006,0.0029,2.9082,1.3688,3.0216
2024-10-11T13:48:31.554Z,0.0366,-0.9911,0.1800,-0.1166,0.0648,0.1667,-0.0192,-0.0083,0.0073,2.9082,1.3688,3.0216
2024-10-11T13:48:31.564Z,0.0403,-0.9916,0.1762,-0.1166,0.0648,0.1667,-0.0145,-0.0164,0.0082,2.9082,1.3688,3.0216
2024-10-11T13:48:31.575Z,0.0356,-0.9930,0.1759,-0.1110,0.1279,0.2277,-0.0087,-0.0200,0.0073,2.9072,1.3692,3.0219
2024-10-11T13:48:31.584Z,0.0377,-0.9875,0.1783,-0.1110,0.1279,0.2277,-0.0054,-0.0240,0.0083,2.9072,1.3692,3.0219
2024-10-11T13:48:31.594Z,0.0369,-0.9811,0.1831,-0.1110,0.1279,0.2277,-0.0020,-0.0256,0.0060,2.9072,1.3692,3.0219
2024-10-11T13:48:31.604Z,0.0354,-0.9771,0.1887,-0.1107,-0.0298,0.0965,-0.0012,-0.0275,0.0044,2.9062,1.3692,3.0218
2024-10-11T13:48:31.614Z,0.0358,-0.9755,0.1883,-0.1107,-0.0298,0.0965,0.0001,-0.0290,0.0030,2.9062,1.3692,3.0218
2024-10-11T13:48:31.625Z,0.0347,-0.9742,0.1893,-0.1107,-0.0298,0.0965,0.0034,-0.0313,0.0065,2.9062,1.3692,3.0218
2024-10-11T13:48:31.634Z,0.0335,-0.9737,0.1923,-0.0997,-0.0590,0.0642,0.0024,-0.0317,0.0038,2.9057,1.3692,3.0211
2024-10-11T13:48:31.644Z,0.0351,-0.9728,0.1950,-0.0997,-0.0590,0.0642,0.0032,-0.0344,0.0019,2.9057,1.3692,3.0211
2024-10-11T13:48:31.654Z,0.0304,-0.9762,0.1971,-0.0997,-0.0590,0.0642,0.0003,-0.0361,0.0026,2.9057,1.3692,3.0211
2024-10-11T13:48:31.665Z,0.0339,-0.9780,0.1961,-0.0924,-0.0170,0.0269,0.0020,-0.0357,0.0048,2.9052,1.3693,3.0202
2024-10-11T13:48:31.676Z,0.0307,-0.9788,0.1968,-0.0924,-0.0170,0.0269,-0.0016,-0.0369,0.0045,2.9052,1.3693,3.0202
2024-10-11T13:48:31.685Z,0.0297,-0.9770,0.1953,-0.0924,-0.0170,0.0269,0.0011,-0.0360,0.0018,2.9052,1.3693,3.0202
2024-10-11T13:48:31.694Z,0.0295,-0.9773,0.1958,-0.0479,-0.0275,0.0324,-0.0011,-0.0347,0.0029,2.9047,1.3693,3.0193
2024-10-11T13:48:31.704Z,0.0291,-0.9752,0.1945,-0.0479,-0.0275,0.0324,-0.0021,-0.0341,0.0016,2.9047,1.3693,3.0193
2024-10-11T13:48:31.714Z,0.0271,-0.9756,0.1950,-0.0479,-0.0275,0.0324,-0.0015,-0.0352,-0.0002,2.9047,1.3693,3.0193
2024-10-11T13:48:31.724Z,0.0256,-0.9743,0.1951,-0.0076,-0.0533,0.0391,-0.0018,-0.0324,-0.0016,2.9045,1.3694,3.0183
2024-10-11T13:48:31.734Z,0.0246,-0.9745,0.1960,-0.0076,-0.0533,0.0391,-0.0017,-0.0304,0.0002,2.9045,1.3694,3.0183
2024-10-11T13:48:31.744Z,0.0242,-0.9746,0.1974,-0.0076,-0.0533,0.0391,-0.0017,-0.0292,-0.0008,2.9045,1.3694,3.0183
2024-10-11T13:48:31.754Z,0.0243,-0.9769,0.1974,0.0028,-0.0289,0.0124,-0.0009,-0.0302,-0.0014,2.9045,1.3694,3.0171
2024-10-11T13:48:31.764Z,0.0261,-0.9768,0.1948,0.0028,-0.0289,0.0124,-0.0014,-0.0285,0.0016,2.9045,1.3694,3.0171
2024-10-11T13:48:31.774Z,0.0246,-0.9779,0.1920,0.0028,-0.0289,0.0124,-0.0004,-0.0274,0.0008,2.9045,1.3694,3.0171
2024-10-11T13:48:31.784Z,0.0237,-0.9811,0.1891,0.0066,0.0226,0.0917,0.0012,-0.0275,0.0008,2.9043,1.3694,3.0162
2024-10-11T13:48:31.794Z,0.0222,-0.9820,0.1881,0.0066,0.0226,0.0917,0.0010,-0.0248,0.0008,2.9043,1.3694,3.0162
2024-10-11T13:48:31.804Z,0.0237,-0.9801,0.1909,0.0066,0.0226,0.0917,0.0008,-0.0225,0.0004,2.9043,1.3694,3.0162
2024-10-11T13:48:31.814Z,0.0234,-0.9817,0.1920,0.0132,0.0141,0.0633,0.0034,-0.0201,0.0023,2.9038,1.3694,3.0158
2024-10-11T13:48:31.824Z,0.0247,-0.9820,0.1916,0.0132,0.0141,0.0633,0.0038,-0.0204,0.0051,2.9038,1.3694,3.0158
2024-10-11T13:48:31.834Z,0.0229,-0.9805,0.1918,0.0132,0.0141,0.0633,0.0016,-0.0195,0.0039,2.9038,1.3694,3.0158
2024-10-11T13:48:31.846Z,0.0233,-0.9813,0.1933,0.0127,0.0123,0.0474,0.0038,-0.0129,0.0031,2.9028,1.3693,3.0160
2024-10-11T13:48:31.854Z,0.0244,-0.9827,0.1944,0.0127,0.0123,0.0474,0.0054,-0.0152,0.0074,2.9028,1.3693,3.0160
2024-10-11T13:48:31.864Z,0.0226,-0.9837,0.1944,0.0127,0.0123,0.0474,0.0043,-0.0096,0.0062,2.9028,1.3693,3.0160
2024-10-11T13:48:31.875Z,0.0215,-0.9836,0.1939,0.0398,0.0335,0.0432,0.0056,-0.0106,0.0073,2.9015,1.3693,3.0167
2024-10-11T13:48:31.884Z,0.0176,-0.9848,0.1952,0.0398,0.0335,0.0432,0.0034,-0.0097,0.0043,2.9015,1.3693,3.0167
2024-10-11T13:48:31.894Z,0.0143,-0.9850,0.1942,0.0398,0.0335,0.0432,0.0037,-0.0063,0.0069,2.9015,1.3693,3.0167
2024-10-11T13:48:31.905Z,0.0128,-0.9841,0.1947,0.1133,0.0457,0.0351,0.0035,-0.0028,0.0063,2.9002,1.3692,3.0176
2024-10-11T13:48:31.914Z,0.0151,-0.9847,0.1936,0.1133,0.0457,0.0351,0.0056,-0.0036,0.0063,2.9002,1.3692,3.0176
2024-10-11T13:48:31.925Z,0.0150,-0.9837,0.1904,0.1133,0.0457,0.0351,0.0032,-0.0063,0.0076,2.9002,1.3692,3.0176
2024-10-11T13:48:31.934Z,0.0182,-0.9810,0.1910,0.0642,0.0065,0.0784,0.0055,-0.0090,0.0066,2.8990,1.3691,3.0183
2024-10-11T13:48:31.944Z,0.0182,-0.9777,0.1925,0.0642,0.0065,0.0784,0.0054,-0.0106,0.0041,2.8990,1.3691,3.0183
2024-10-11T13:48:31.954Z,0.0195,-0.9779,0.1915,0.0642,0.0065,0.0784,0.0044,-0.0086,0.0062,2.8990,1.3691,3.0183
2024-10-11T13:48:31.964Z,0.0197,-0.9771,0.1927,0.0545,-0.0291,0.0618,0.0046,-0.0088,0.0043,2.8977,1.3690,3.0190
2024-10-11T13:48:31.975Z,0.0179,-0.9759,0.1931,0.0545,-0.0291,0.0618,0.0052,-0.0106,0.0076,2.8977,1.3690,3.0190
2024-10-11T13:48:31.984Z,0.0178,-0.9750,0.1959,0.0545,-0.0291,0.0618,0.0037,-0.0043,0.0039,2.8977,1.3690,3.0190
2024-10-11T13:48:31.994Z,0.0169,-0.9749,0.1964,0.0718,-0.0526,0.0266,0.0039,-0.0017,0.0047,2.8961,1.3689,3.0202
2024-10-11T13:48:32.004Z,0.0187,-0.9742,0.1978,0.0718,-0.0526,0.0266,0.0046,-0.0000,0.0053,2.8961,1.3689,3.0202
2024-10-11T13:48:32.014Z,0.0180,-0.9741,0.1968,0.0718,-0.0526,0.0266,0.0047,0.0021,0.0057,2.8961,1.3689,3.0202
2024-10-11T13:48:32.025Z,0.0171,-0.9731,0.1961,0.0580,-0.0653,0.0295,0.0062,0.0030,0.0019,2.8950,1.3688,3.0211
2024-10-11T13:48:32.034Z,0.0179,-0.9759,0.1948,0.0580,-0.0653,0.0295,0.0072,0.0078,0.0038,2.8950,1.3688,3.0211
2024-10-11T13:48:32.044Z,0.0160,-0.9780,0.1936,0.0580,-0.0653,0.0295,0.0069,0.0116,-0.0008,2.8950,1.3688,3.0211
2024-10-11T13:48:32.054Z,0.0156,-0.9805,0.1922,0.0905,0.0061,0.0707,0.0057,0.0120,0.0013,2.8942,1.3686,3.0220
2024-10-11T13:48:32.064Z,0.0142,-0.9805,0.1893,0.0905,0.0061,0.0707,0.0070,0.0203,0.0011,2.8942,1.3686,3.0220
2024-10-11T13:48:32.074Z,0.0170,-0.9807,0.1877,0.0905,0.0061,0.0707,0.0064,0.0204,0.0018,2.8942,1.3686,3.0220
2024-10-11T13:48:32.084Z,0.0177,-0.9803,0.1869,0.0554,0.0083,0.1175,0.0079,0.0200,-0.0003,2.8935,1.3684,3.0230
2024-10-11T13:48:32.094Z,0.0209,-0.9798,0.1857,0.0554,0.0083,0.1175,0.0101,0.0227,0.0010,2.8935,1.3684,3.0230
2024-10-11T13:48:32.104Z,0.0215,-0.9810,0.1843,0.0554,0.0083,0.1175,0.0108,0.0264,0.0015,2.8935,1.3684,3.0230
2024-10-11T13:48:32.114Z,0.0199,-0.9827,0.1862,0.0306,0.0295,0.1352,0.0107,0.0278,0.0010,2.8928,1.3681,3.0243
2024-10-11T13:48:32.126Z,0.0225,-0.9807,0.1846,0.0306,0.0295,0.1352,0.0122,0.0318,0.0008,2.8928,1.3681,3.0243
2024-10-11T13:48:32.134Z,0.0221,-0.9820,0.1865,0.0306,0.0295,0.1352,0.0111,0.0307,0.0014,2.8928,1.3681,3.0243
2024-10-11T13:48:32.144Z,0.0244,-0.9812,0.1872,-0.0153,0.0083,0.1290,0.0160,0.0274,0.0024,2.8919,1.3677,3.0257
2024-10-11T13:48:32.154Z,0.0250,-0.9813,0.1897,-0.0153,0.0083,0.1290,0.0187,0.0267,0.0021,2.8919,1.3677,3.0257
2024-10-11T13:48:32.164Z,0.0254,-0.9813,0.1924,-0.0153,0.0083,0.1290,0.0171,0.0250,0.0006,2.8919,1.3677,3.0257
2024-10-11T13:48:32.175Z,0.0273,-0.9797,0.1955,-0.0418,-0.0015,0.0549,0.0178,0.0195,0.0001,2.8913,1.3673,3.0268
2024-10-11T13:48:32.184Z,0.0291,-0.9767,0.1991,-0.0418,-0.0015,0.0549,0.0193,0.0212,-0.0022,2.8913,1.3673,3.0268
2024-10-11T13:48:32.194Z,0.0300,-0.9738,0.2018,-0.0418,-0.0015,0.0549,0.0197,0.0132,0.0003,2.8913,1.3673,3.0268
2024-10-11T13:48:32.204Z,0.0303,-0.9739,0.2052,-0.0779,-0.0552,-0.0449,0.0169,0.0103,-0.0010,2.8910,1.3668,3.0272
2024-10-11T13:48:32.214Z,0.0300,-0.9724,0.2064,-0.0779,-0.0552,-0.0449,0.0140,0.0064,-0.0028,2.8910,1.3668,3.0272
2024-10-11T13:48:32.225Z,0.0282,-0.9734,0.2087,-0.0779,-0.0552,-0.0449,0.0140,0.0040,-0.0016,2.8910,1.3668,3.0272
2024-10-11T13:48:32.234Z,0.0281,-0.9750,0.2092,-0.0444,-0.0441,-0.0817,0.0114,0.0008,-0.0021,2.8908,1.3664,3.0272
2024-10-11T13:48:32.244Z,0.0261,-0.9778,0.2104,-0.0444,-0.0441,-0.0817,0.0119,-0.0024,-0.0037,2.8908,1.3664,3.0272
2024-10-11T13:48:32.254Z,0.0257,-0.9807,0.2089,-0.0444,-0.0441,-0.0817,0.0089,-0.0028,-0.0042,2.8908,1.3664,3.0272
2024-10-11T13:48:32.264Z,0.0271,-0.9850,0.2089,-0.0348,0.0661,-0.0573,0.0089,-0.0034,-0.0038,2.8910,1.3661,3.0267
2024-10-11T13:48:32.275Z,0.0266,-0.9888,0.2069,-0.0348,0.0661,-0.0573,0.0060,-0.0053,-0.0035,2.8910,1.3661,3.0267
2024-10-11T13:48:32.284Z,0.0290,-0.9912,0.2063,-0.0348,0.0661,-0.0573,0.0067,-0.0044,-0.0055,2.8910,1.3661,3.0267
2024-10-11T13:48:32.294Z,0.0286,-0.9917,0.2069,-0.0473,0.1227,-0.0508,0.0061,-0.0064,-0.0051,2.8914,1.3658,3.0259
2024-10-11T13:48:32.304Z,0.0304,-0.9918,0.2071,-0.0473,0.1227,-0.0508,0.0064,-0.0093,-0.0020,2.8914,1.3658,3.0259
2024-10-11T13:48:32.314Z,0.0302,-0.9906,0.2077,-0.0473,0.1227,-0.0508,0.0044,-0.0116,-0.0052,2.8914,1.3658,3.0259
2024-10-11T13:48:32.325Z,0.0277,-0.9901,0.2081,-0.0410,0.1034,-0.0596,0.0050,-0.0117,-0.0018,2.8917,1.3656,3.0250
2024-10-11T13:48:32.334Z,0.0255,-0.9872,0.2063,-0.0410,0.1034,-0.0596,0.0015,-0.0132,-0.0039,2.8917,1.3656,3.0250
2024-10-11T13:48:32.345Z,0.0239,-0.9852,0.2065,-0.0410,0.1034,-0.0596,0.0034,-0.0093,-0.0036,2.8917,1.3656,3.0250
2024-10-11T13:48:32.354Z,0.0217,-0.9835,0.2048,0.0223,0.0392,-0.0286,0.0048,-0.0096,-0.0038,2.8918,1.3655,3.0244
2024-10-11T13:48:32.364Z,0.0201,-0.9813,0.2050,0.0223,0.0392,-0.0286,0.0006,-0.0068,-0.0044,2.8918,1.3655,3.0244
2024-10-11T13:48:32.375Z,0.0178,-0.9803,0.2025,0.0223,0.0392,-0.0286,0.0016,-0.0025,-0.0060,2.8918,1.3655,3.0244
2024-10-11T13:48:32.384Z,0.0211,-0.9782,0.2033,0.0247,-0.0128,-0.0116,0.0015,-0.0041,-0.0044,2.8922,1.3654,3.0236
2024-10-11T13:48:32.394Z,0.0212,-0.9769,0.2031,0.0247,-0.0128,-0.0116,0.0026,-0.0037,-0.0039,2.8922,1.3654,3.0236
2024-10-11T13:48:32.404Z,0.0224,-0.9751,0.2025,0.0247,-0.0128,-0.0116,-0.0009,-0.0028,-0.0044,2.8922,1.3654,3.0236
2024-10-11T13:48:32.414Z,0.0245,-0.9753,0.2030,-0.0070,-0.0387,-0.0063,-0.0014,-0.0022,-0.0053,2.8925,1.3653,3.0230
2024-10-11T13:48:32.426Z,0.0229,-0.9752,0.2020,-0.0070,-0.0387,-0.0063,0.0002,0.0017,-0.0042,2.8925,1.3653,3.0230
2024-10-11T13:48:32.434Z,0.0225,-0.9748,0.2029,-0.0070,-0.0387,-0.0063,0.0016,0.0023,-0.0027,2.8925,1.3653,3.0230
2024-10-11T13:48:32.444Z,0.0224,-0.9743,0.2026,0.0148,-0.0427,-0.0007,0.0014,0.0064,-0.0038,2.8928,1.3652,3.0226
2024-10-11T13:48:32.455Z,0.0243,-0.9742,0.2012,0.0148,-0.0427,-0.0007,0.0017,0.0099,-0.0024,2.8928,1.3652,3.0226
2024-10-11T13:48:32.466Z,0.0245,-0.9736,0.1983,0.0148,-0.0427,-0.0007,0.0059,0.0128,-0.0011,2.8928,1.3652,3.0226
2024-10-11T13:48:32.475Z,0.0219,-0.9743,0.1968,0.0240,-0.0484,0.0620,0.0059,0.0128,-0.0011,2.8925,1.3651,3.0229
2024-10-11T13:48:32.485Z,0.0208,-0.9744,0.1953,0.0240,-0.0484,0.0620,0.0090,0.0168,-0.0009,2.8925,1.3651,3.0229
2024-10-11T13:48:32.494Z,0.0213,-0.9731,0.1929,0.0240,-0.0484,0.0620,0.0090,0.0168,-0.0009,2.8925,1.3651,3.0229
2024-10-11T13:48:32.506Z,0.0179,-0.9736,0.1935,0.0551,-0.0567,0.0952,0.0123,0.0237,-0.0008,2.8921,1.3648,3.0235
2024-10-11T13:48:32.515Z,0.0201,-0.9717,0.1936,0.0551,-0.0567,0.0952,0.0120,0.0248,0.0001,2.8921,1.3648,3.0235
2024-10-11T13:48:32.527Z,0.0187,-0.9704,0.1953,0.0551,-0.0567,0.0952,0.0150,0.0232,-0.0006,2.8921,1.3648,3.0235
2024-10-11T13:48:32.533Z,0.0206,-0.9715,0.1967,0.0347,-0.0740,0.0683,0.0150,0.0232,-0.0006,2.8917,1.3644,3.0243
2024-10-11T13:48:32.544Z,0.0191,-0.9714,0.1987,0.0347,-0.0740,0.0683,0.0141,0.0256,-0.0024,2.8917,1.3644,3.0243
2024-10-11T13:48:32.554Z,0.0208,-0.9723,0.2005,0.0347,-0.0740,0.0683,0.0145,0.0260,-0.0009,2.8917,1.3644,3.0243
2024-10-11T13:48:32.565Z,0.0218,-0.9719,0.2029,0.0202,-0.0669,0.0117,0.0165,0.0274,-0.0018,2.8913,1.3640,3.0253
2024-10-11T13:48:32.575Z,0.0206,-0.9747,0.2033,0.0202,-0.0669,0.0117,0.0148,0.0278,-0.0005,2.8913,1.3640,3.0253
2024-10-11T13:48:32.584Z,0.0202,-0.9735,0.2050,0.0202,-0.0669,0.0117,0.0148,0.0278,-0.0005,2.8913,1.3640,3.0253
2024-10-11T13:48:32.593Z,0.0218,-0.9723,0.2063,0.0171,-0.0550,-0.0205,0.0159,0.0299,0.0007,2.8908,1.3636,3.0264
2024-10-11T13:48:32.605Z,0.0245,-0.9737,0.2068,0.0171,-0.0550,-0.0205,0.0128,0.0311,0.0012,2.8908,1.3636,3.0264
2024-10-11T13:48:32.615Z,0.0249,-0.9742,0.2100,0.0171,-0.0550,-0.0205,0.0141,0.0304,-0.0003,2.8908,1.3636,3.0264
2024-10-11T13:48:32.623Z,0.0251,-0.9740,0.2102,-0.0280,-0.0406,-0.0491,0.0141,0.0304,-0.0003,2.8903,1.3632,3.0276
2024-10-11T13:48:32.635Z,0.0288,-0.9778,0.2080,-0.0280,-0.0406,-0.0491,0.0152,0.0303,-0.0015,2.8903,1.3632,3.0276
2024-10-11T13:48:32.643Z,0.0266,-0.9778,0.2088,-0.0280,-0.0406,-0.0491,0.0152,0.0303,-0.0015,2.8903,1.3632,3.0276
2024-10-11T13:48:32.655Z,0.0275,-0.9796,0.2092,-0.0400,0.0196,-0.0431,0.0142,0.0330,-0.0023,2.8898,1.3628,3.0286
2024-10-11T13:48:32.665Z,0.0271,-0.9832,0.2104,-0.0400,0.0196,-0.0431,0.0120,0.0327,-0.0000,2.8898,1.3628,3.0286
2024-10-11T13:48:32.675Z,0.0267,-0.9838,0.2108,-0.0400,0.0196,-0.0431,0.0132,0.0323,-0.0007,2.8898,1.3628,3.0286
2024-10-11T13:48:32.684Z,0.0279,-0.9848,0.2108,-0.0416,0.0588,-0.0549,0.0132,0.0323,-0.0007,2.8894,1.3623,3.0296
2024-10-11T13:48:32.695Z,0.0288,-0.9844,0.2103,-0.0416,0.0588,-0.0549,0.0137,0.0258,0.0003,2.8894,1.3623,3.0296
2024-10-11T13:48:32.705Z,0.0321,-0.9840,0.2110,-0.0416,0.0588,-0.0549,0.0123,0.0227,-0.0015,2.8894,1.3623,3.0296
2024-10-11T13:48:32.714Z,0.0305,-0.9839,0.2114,-0.0759,0.0525,-0.0419,0.0120,0.0191,-0.0018,2.8891,1.3619,3.0304
2024-10-11T13:48:32.725Z,0.0325,-0.9809,0.2091,-0.0759,0.0525,-0.0419,0.0105,0.0161,-0.0005,2.8891,1.3619,3.0304
2024-10-11T13:48:32.734Z,0.0327,-0.9793,0.2097,-0.0759,0.0525,-0.0419,0.0098,0.0167,-0.0007,2.8891,1.3619,3.0304
2024-10-11T13:48:32.745Z,0.0300,-0.9799,0.2115,-0.0697,0.0092,-0.0541,0.0104,0.0135,0.0012,2.8889,1.3615,3.0309
2024-10-11T13:48:32.754Z,0.0327,-0.9778,0.2127,-0.0697,0.0092,-0.0541,0.0073,0.0137,0.0005,2.8889,1.3615,3.0309
2024-10-11T13:48:32.765Z,0.0318,-0.9777,0.2157,-0.0697,0.0092,-0.0541,0.0066,0.0121,-0.0010,2.8889,1.3615,3.0309
2024-10-11T13:48:32.775Z,0.0321,-0.9777,0.2184,-0.0869,-0.0049,-0.1088,0.0041,0.0102,-0.0011,2.8889,1.3612,3.0310
2024-10-11T13:48:32.785Z,0.0314,-0.9795,0.2183,-0.0869,-0.0049,-0.1088,0.0043,0.0110,0.0004,2.8889,1.3612,3.0310
2024-10-11T13:48:32.795Z,0.0306,-0.9783,0.2200,-0.0869,-0.0049,-0.1088,0.0036,0.0118,0.0010,2.8889,1.3612,3.0310
2024-10-11T13:48:32.805Z,0.0307,-0.9796,0.2195,-0.0668,0.0212,-0.1226,0.0035,0.0069,-0.0009,2.8890,1.3610,3.0309
2024-10-11T13:48:32.814Z,0.0258,-0.9815,0.2200,-0.0668,0.0212,-0.1226,0.0012,0.0092,-0.0016,2.8890,1.3610,3.0309
2024-10-11T13:48:32.824Z,0.0241,-0.9830,0.2199,-0.0668,0.0212,-0.1226,0.0022,0.0093,-0.0016,2.8890,1.3610,3.0309
2024-10-11T13:48:32.835Z,0.0232,-0.9824,0.2177,0.0005,0.0349,-0.0998,-0.0005,0.0089,-0.0018,2.8891,1.3609,3.0308
2024-10-11T13:48:32.843Z,0.0241,-0.9826,0.2165,0.0005,0.0349,-0.0998,-0.0005,0.0089,-0.0018,2.8891,1.3609,3.0308
2024-10-11T13:48:32.855Z,0.0232,-0.9837,0.2151,0.0005,0.0349,-0.0998,-0.0039,0.0049,-0.0029,2.8891,1.3609,3.0308
2024-10-11T13:48:32.864Z,0.0222,-0.9828,0.2137,0.0044,0.0505,-0.0583,-0.0047,0.0036,-0.0037,2.8896,1.3608,3.0303
2024-10-11T13:48:32.875Z,0.0228,-0.9841,0.2125,0.0044,0.0505,-0.0583,-0.0017,0.0027,-0.0056,2.8896,1.3608,3.0303
2024-10-11T13:48:32.884Z,0.0219,-0.9829,0.2128,0.0044,0.0505,-0.0583,-0.0031,0.0030,-0.0029,2.8896,1.3608,3.0303
2024-10-11T13:48:32.895Z,0.0222,-0.9859,0.2127,0.0053,0.0731,-0.0537,-0.0027,0.0046,-0.0053,2.8901,1.3608,3.0296
2024-10-11T13:48:32.904Z,0.0242,-0.9886,0.2134,0.0053,0.0731,-0.0537,-0.0044,0.0069,-0.0043,2.8901,1.3608,3.0296
2024-10-11T13:48:32.914Z,0.0242,-0.9891,0.2121,0.0053,0.0731,-0.0537,-0.0047,0.0049,-0.0049,2.8901,1.3608,3.0296
2024-10-11T13:48:32.924Z,0.0264,-0.9878,0.2098,-0.0348,0.0927,-0.0280,-0.0024,0.0027,-0.0060,2.8907,1.3608,3.0290
2024-10-11T13:48:32.934Z,0.0280,-0.9865,0.2104,-0.0348,0.0927,-0.0280,-0.0032,0.0052,-0.0046,2.8907,1.3608,3.0290
2024-10-11T13:48:32.946Z,0.0255,-0.9865,0.2100,-0.0348,0.0927,-0.0280,-0.0062,0.0007,-0.0013,2.8907,1.3608,3.0290
2024-10-11T13:48:32.954Z,0.0235,-0.9829,0.2115,0.0019,0.0393,-0.0445,-0.0040,0.0010,-0.0029,2.8909,1.3608,3.0285
2024-10-11T13:48:32.964Z,0.0226,-0.9818,0.2116,0.0019,0.0393,-0.0445,-0.0049,0.0026,-0.0046,2.8909,1.3608,3.0285
2024-10-11T13:48:32.975Z,0.0236,-0.9812,0.2118,0.0019,0.0393,-0.0445,-0.0084,0.0029,-0.0064,2.8909,1.3608,3.0285
2024-10-11T13:48:32.984Z,0.0234,-0.9774,0.2120,0.0009,-0.0086,-0.0402,-0.0084,0.0039,-0.0070,2.8914,1.3609,3.0279
2024-10-11T13:48:32.995Z,0.0220,-0.9768,0.2119,0.0009,-0.0086,-0.0402,-0.0075,0.0059,-0.0041,2.8914,1.3609,3.0279
2024-10-11T13:48:33.005Z,0.0241,-0.9748,0.2146,0.0009,-0.0086,-0.0402,-0.0058,0.0023,-0.0044,2.8914,1.3609,3.0279
2024-10-11T13:48:33.015Z,0.0243,-0.9757,0.2120,-0.0078,-0.0274,-0.0476,-0.0103,0.0028,-0.0067,2.8921,1.3611,3.0271
2024-10-11T13:48:33.024Z,0.0252,-0.9744,0.2102,-0.0078,-0.0274,-0.0476,-0.0085,0.0029,-0.0056,2.8921,1.3611,3.0271
2024-10-11T13:48:33.034Z,0.0264,-0.9740,0.2108,-0.0078,-0.0274,-0.0476,-0.0102,0.0042,-0.0032,2.8921,1.3611,3.0271
2024-10-11T13:48:33.045Z,0.0264,-0.9748,0.2105,-0.0231,-0.0311,-0.0424,-0.0109,0.0066,-0.0063,2.8929,1.3613,3.0262
2024-10-11T13:48:33.054Z,0.0260,-0.9743,0.2099,-0.0231,-0.0311,-0.0424,-0.0097,0.0032,-0.0050,2.8929,1.3613,3.0262
2024-10-11T13:48:33.064Z,0.0247,-0.9759,0.2103,-0.0231,-0.0311,-0.0424,-0.0083,0.0032,-0.0063,2.8929,1.3613,3.0262
2024-10-11T13:48:33.074Z,0.0255,-0.9757,0.2071,-0.0175,-0.0196,-0.0020,-0.0085,0.0029,-0.0063,2.8936,1.3615,3.0253
2024-10-11T13:48:33.084Z,0.0249,-0.9770,0.2048,-0.0175,-0.0196,-0.0020,-0.0098,0.0047,-0.0075,2.8936,1.3615,3.0253
2024-10-11T13:48:33.094Z,0.0246,-0.9780,0.2038,-0.0175,-0.0196,-0.0020,-0.0076,0.0023,-0.0059,2.8936,1.3615,3.0253
2024-10-11T13:48:33.104Z,0.0248,-0.9774,0.2036,-0.0050,-0.0050,0.0197,-0.0060,-0.0005,-0.0049,2.8945,1.3617,3.0243
2024-10-11T13:48:33.114Z,0.0260,-0.9766,0.2041,-0.0050,-0.0050,0.0197,-0.0095,0.0000,-0.0072,2.8945,1.3617,3.0243
2024-10-11T13:48:33.124Z,0.0263,-0.9749,0.2047,-0.0050,-0.0050,0.0197,-0.0097,-0.0014,-0.0065,2.8945,1.3617,3.0243
2024-10-11T13:48:33.134Z,0.0291,-0.9747,0.2045,-0.0469,-0.0337,0.0116,-0.0073,-0.0023,-0.0084,2.8954,1.3618,3.0230
2024-10-11T13:48:33.144Z,0.0290,-0.9755,0.2031,-0.0469,-0.0337,0.0116,-0.0070,-0.0009,-0.0059,2.8954,1.3618,3.0230
2024-10-11T13:48:33.154Z,0.0298,-0.9738,0.2041,-0.0469,-0.0337,0.0116,-0.0101,-0.0035,-0.0065,2.8954,1.3618,3.0230
2024-10-11T13:48:33.164Z,0.0328,-0.9765,0.2056,-0.0817,-0.0173,0.0127,-0.0066,-0.0058,-0.0069,2.8965,1.3620,3.0216
2024-10-11T13:48:33.174Z,0.0313,-0.9747,0.2035,-0.0817,-0.0173,0.0127,-0.0062,-0.0079,-0.0074,2.8965,1.3620,3.0216
2024-10-11T13:48:33.184Z,0.0318,-0.9763,0.2052,-0.0817,-0.0173,0.0127,-0.0091,-0.0046,-0.0075,2.8965,1.3620,3.0216
2024-10-11T13:48:33.195Z,0.0312,-0.9781,0.2062,-0.0600,0.0029,-0.0129,-0.0091,-0.0046,-0.0075,2.8974,1.3622,3.0203
2024-10-11T13:48:33.205Z,0.0306,-0.9797,0.2068,-0.0600,0.0029,-0.0129,-0.0079,-0.0035,-0.0066,2.8974,1.3622,3.0203
2024-10-11T13:48:33.215Z,0.0331,-0.9807,0.2053,-0.0600,0.0029,-0.0129,-0.0052,-0.0044,-0.0063,2.8974,1.3622,3.0203
2024-10-11T13:48:33.225Z,0.0327,-0.9794,0.2055,-0.0680,0.0047,0.0047,-0.0092,-0.0034,-0.0035,2.8983,1.3623,3.0190
2024-10-11T13:48:33.235Z,0.0339,-0.9778,0.2055,-0.0680,0.0047,0.0047,-0.0095,-0.0021,-0.0042,2.8983,1.3623,3.0190
2024-10-11T13:48:33.244Z,0.0337,-0.9770,0.2056,-0.0680,0.0047,0.0047,-0.0073,-0.0034,-0.0024,2.8983,1.3623,3.0190
2024-10-11T13:48:33.254Z,0.0323,-0.9776,0.2062,-0.0683,-0.0147,-0.0098,-0.0103,-0.0012,-0.0044,2.8992,1.3626,3.0178
2024-10-11T13:48:33.264Z,0.0316,-0.9778,0.2080,-0.0683,-0.0147,-0.0098,-0.0108,-0.0011,-0.0001,2.8992,1.3626,3.0178
2024-10-11T13:48:33.274Z,0.0304,-0.9794,0.2096,-0.0683,-0.0147,-0.0098,-0.0135,-0.0005,-0.0012,2.8992,1.3626,3.0178
2024-10-11T13:48:33.284Z,0.0319,-0.9807,0.2109,-0.0674,0.0283,-0.0650,-0.0123,0.0024,-0.0017,2.9005,1.3628,3.0162
2024-10-11T13:48:33.295Z,0.0312,-0.9829,0.2105,-0.0674,0.0283,-0.0650,-0.0113,0.0001,0.0007,2.9005,1.3628,3.0162
2024-10-11T13:48:33.304Z,0.0311,-0.9837,0.2100,-0.0674,0.0283,-0.0650,-0.0114,0.0017,-0.0005,2.9005,1.3628,3.0162
2024-10-11T13:48:33.314Z,0.0297,-0.9841,0.2066,-0.0312,0.0544,-0.0179,-0.0146,-0.0004,0.0028,2.9012,1.3631,3.0152
2024-10-11T13:48:33.324Z,0.0286,-0.9849,0.2056,-0.0312,0.0544,-0.0179,-0.0154,0.0036,0.0008,2.9012,1.3631,3.0152
2024-10-11T13:48:33.334Z,0.0273,-0.9850,0.2056,-0.0312,0.0544,-0.0179,-0.0114,0.0065,0.0026,2.9012,1.3631,3.0152
2024-10-11T13:48:33.345Z,0.0274,-0.9847,0.2054,-0.0096,0.0531,-0.0093,-0.0135,0.0071,0.0035,2.9014,1.3634,3.0148
2024-10-11T13:48:33.354Z,0.0298,-0.9803,0.2044,-0.0096,0.0531,-0.0093,-0.0141,0.0079,0.0039,2.9014,1.3634,3.0148
2024-10-11T13:48:33.364Z,0.0327,-0.9780,0.2008,-0.0096,0.0531,-0.0093,-0.0137,0.0075,0.0046,2.9014,1.3634,3.0148
2024-10-11T13:48:33.374Z,0.0327,-0.9772,0.2040,-0.0734,-0.0195,-0.0041,-0.0113,0.0088,0.0057,2.9013,1.3637,3.0149
2024-10-11T13:48:33.384Z,0.0342,-0.9756,0.2029,-0.0734,-0.0195,-0.0041,-0.0148,0.0066,0.0077,2.9013,1.3637,3.0149
2024-10-11T13:48:33.394Z,0.0317,-0.9761,0.2015,-0.0734,-0.0195,-0.0041,-0.0126,0.0083,0.0084,2.9013,1.3637,3.0149
2024-10-11T13:48:33.404Z,0.0311,-0.9775,0.2015,-0.0470,-0.0189,0.0285,-0.0129,0.0097,0.0074,2.9005,1.3641,3.0156
2024-10-11T13:48:33.414Z,0.0292,-0.9760,0.1997,-0.0470,-0.0189,0.0285,-0.0105,0.0117,0.0086,2.9005,1.3641,3.0156
2024-10-11T13:48:33.424Z,0.0268,-0.9772,0.1988,-0.0470,-0.0189,0.0285,-0.0133,0.0124,0.0085,2.9005,1.3641,3.0156
2024-10-11T13:48:33.434Z,0.0255,-0.9781,0.1960,-0.0012,-0.0012,0.0680,-0.0126,0.0137,0.0088,2.8993,1.3645,3.0169
2024-10-11T13:48:33.446Z,0.0230,-0.9782,0.1968,-0.0012,-0.0012,0.0680,-0.0097,0.0150,0.0069,2.8993,1.3645,3.0169
2024-10-11T13:48:33.454Z,0.0191,-0.9786,0.1972,-0.0012,-0.0012,0.0680,-0.0073,0.0143,0.0076,2.8993,1.3645,3.0169
2024-10-11T13:48:33.464Z,0.0199,-0.9789,0.1961,0.0544,0.0018,0.0676,-0.0088,0.0120,0.0066,2.8986,1.3648,3.0177
2024-10-11T13:48:33.474Z,0.0191,-0.9792,0.1964,0.0544,0.0018,0.0676,-0.0080,0.0108,0.0062,2.8986,1.3648,3.0177
2024-10-11T13:48:33.484Z,0.0211,-0.9801,0.1964,0.0544,0.0018,0.0676,-0.0062,0.0079,0.0037,2.8986,1.3648,3.0177
2024-10-11T13:48:33.495Z,0.0212,-0.9799,0.1964,0.0305,0.0145,0.0705,-0.0071,0.0085,0.0058,2.8979,1.3650,3.0184
2024-10-11T13:48:33.504Z,0.0206,-0.9812,0.1971,0.0305,0.0145,0.0705,-0.0075,0.0083,0.0027,2.8979,1.3650,3.0184
2024-10-11T13:48:33.514Z,0.0213,-0.9800,0.1981,0.0305,0.0145,0.0705,-0.0040,0.0056,0.0037,2.8979,1.3650,3.0184
2024-10-11T13:48:33.524Z,0.0197,-0.9819,0.1989,0.0549,0.0309,0.0387,-0.0052,0.0068,0.0015,2.8973,1.3652,3.0190
2024-10-11T13:48:33.534Z,0.0194,-0.9816,0.1993,0.0549,0.0309,0.0387,-0.0063,0.0041,0.0010,2.8973,1.3652,3.0190
2024-10-11T13:48:33.544Z,0.0191,-0.9802,0.1984,0.0549,0.0309,0.0387,-0.0078,0.0087,-0.0004,2.8973,1.3652,3.0190
2024-10-11T13:48:33.554Z,0.0197,-0.9766,0.1994,0.0492,-0.0213,0.0273,-0.0056,0.0091,-0.0018,2.8970,1.3654,3.0193
2024-10-11T13:48:33.564Z,0.0234,-0.9774,0.2014,0.0492,-0.0213,0.0273,-0.0091,0.0114,0.0002,2.8970,1.3654,3.0193
2024-10-11T13:48:33.573Z,0.0245,-0.9751,0.2018,0.0492,-0.0213,0.0273,-0.0090,0.0101,-0.0030,2.8970,1.3654,3.0193
2024-10-11T13:48:33.584Z,0.0265,-0.9749,0.2033,-0.0187,-0.0382,-0.0086,-0.0085,0.0074,-0.0023,2.8966,1.3658,3.0197
2024-10-11T13:48:33.594Z,0.0269,-0.9756,0.2040,-0.0187,-0.0382,-0.0086,-0.0076,0.0049,0.0003,2.8966,1.3658,3.0197
2024-10-11T13:48:33.604Z,0.0268,-0.9761,0.2057,-0.0187,-0.0382,-0.0086,-0.0107,0.0054,-0.0004,2.8966,1.3658,3.0197
2024-10-11T13:48:33.614Z,0.0282,-0.9756,0.2024,-0.0364,-0.0394,0.0044,-0.0075,0.0062,-0.0001,2.8963,1.3661,3.0199
2024-10-11T13:48:33.624Z,0.0241,-0.9766,0.1992,-0.0364,-0.0394,0.0044,-0.0109,0.0040,-0.0015,2.8963,1.3661,3.0199
2024-10-11T13:48:33.634Z,0.0214,-0.9777,0.1982,-0.0364,-0.0394,0.0044,-0.0083,0.0059,-0.0008,2.8963,1.3661,3.0199
2024-10-11T13:48:33.645Z,0.0218,-0.9778,0.1959,0.0210,-0.0066,0.0533,-0.0083,0.0064,-0.0028,2.8963,1.3663,3.0200
2024-10-11T13:48:33.654Z,0.0225,-0.9783,0.1954,0.0210,-0.0066,0.0533,-0.0090,0.0072,-0.0028,2.8963,1.3663,3.0200
2024-10-11T13:48:33.665Z,0.0222,-0.9801,0.1945,0.0210,-0.0066,0.0533,-0.0074,0.0073,-0.0018,2.8963,1.3663,3.0200
2024-10-11T13:48:33.675Z,0.0245,-0.9808,0.1949,0.0043,0.0140,0.0645,-0.0101,0.0084,-0.0042,2.8968,1.3665,3.0194
2024-10-11T13:48:33.684Z,0.0227,-0.9802,0.1942,0.0043,0.0140,0.0645,-0.0087,0.0085,-0.0044,2.8968,1.3665,3.0194
2024-10-11T13:48:33.694Z,0.0244,-0.9798,0.1957,0.0043,0.0140,0.0645,-0.0062,0.0096,-0.0009,2.8968,1.3665,3.0194
2024-10-11T13:48:33.704Z,0.0262,-0.9825,0.1967,-0.0163,0.0359,0.0417,-0.0068,0.0100,-0.0047,2.8972,1.3667,3.0190
2024-10-11T13:48:33.713Z,0.0274,-0.9845,0.1990,-0.0163,0.0359,0.0417,-0.0075,0.0063,-0.0018,2.8972,1.3667,3.0190
2024-10-11T13:48:33.724Z,0.0299,-0.9839,0.1990,-0.0163,0.0359,0.0417,-0.0040,0.0058,-0.0018,2.8972,1.3667,3.0190
2024-10-11T13:48:33.734Z,0.0322,-0.9845,0.1990,-0.0691,0.0475,0.0233,-0.0066,0.0041,-0.0019,2.8974,1.3669,3.0188
2024-10-11T13:48:33.744Z,0.0325,-0.9821,0.1974,-0.0691,0.0475,0.0233,-0.0064,-0.0016,-0.0009,2.8974,1.3669,3.0188
2024-10-11T13:48:33.754Z,0.0347,-0.9800,0.1988,-0.0691,0.0475,0.0233,-0.0047,0.0004,-0.0007,2.8974,1.3669,3.0188
2024-10-11T13:48:33.763Z,0.0303,-0.9774,0.1963,-0.0411,-0.0230,0.0447,-0.0056,-0.0034,-0.0005,2.8974,1.3672,3.0185
2024-10-11T13:48:33.774Z,0.0274,-0.9758,0.1977,-0.0411,-0.0230,0.0447,-0.0072,-0.0010,-0.0016,2.8974,1.3672,3.0185
2024-10-11T13:48:33.784Z,0.0255,-0.9766,0.1991,-0.0411,-0.0230,0.0447,-0.0083,-0.0002,-0.0041,2.8974,1.3672,3.0185
2024-10-11T13:48:33.794Z,0.0235,-0.9776,0.1983,0.0144,-0.0206,0.0219,-0.0086,0.0017,-0.0023,2.8975,1.3674,3.0182
2024-10-11T13:48:33.804Z,0.0239,-0.9797,0.1949,0.0144,-0.0206,0.0219,-0.0079,0.0030,-0.0016,2.8975,1.3674,3.0182
2024-10-11T13:48:33.814Z,0.0243,-0.9805,0.1969,0.0144,-0.0206,0.0219,-0.0054,0.0056,-0.0013,2.8975,1.3674,3.0182
2024-10-11T13:48:33.824Z,0.0258,-0.9807,0.1973,-0.0145,0.0115,0.0321,-0.0065,0.0037,-0.0015,2.8978,1.3676,3.0177
2024-10-11T13:48:33.834Z,0.0279,-0.9840,0.1990,-0.0145,0.0115,0.0321,-0.0092,0.0054,-0.0000,2.8978,1.3676,3.0177
2024-10-11T13:48:33.844Z,0.0269,-0.9848,0.2001,-0.0145,0.0115,0.0321,-0.0077,0.0048,0.0011,2.8978,1.3676,3.0177
2024-10-11T13:48:33.854Z,0.0282,-0.9844,0.1977,-0.0331,0.0443,0.0230,-0.0088,0.0033,0.0007,2.8981,1.3678,3.0173
2024-10-11T13:48:33.864Z,0.0298,-0.9838,0.1971,-0.0331,0.0443,0.0230,-0.0101,0.0028,-0.0005,2.8981,1.3678,3.0173
2024-10-11T13:48:33.874Z,0.0313,-0.9820,0.1959,-0.0331,0.0443,0.0230,-0.0090,0.0036,0.0001,2.8981,1.3678,3.0173
2024-10-11T13:48:33.885Z,0.0312,-0.9793,0.1963,-0.0531,-0.0038,0.0306,-0.0085,0.0039,-0.0001,2.8978,1.3680,3.0174
2024-10-11T13:48:33.896Z,0.0276,-0.9780,0.1946,-0.0531,-0.0038,0.0306,-0.0067,0.0054,-0.0000,2.8978,1.3680,3.0174
2024-10-11T13:48:33.904Z,0.0296,-0.9777,0.1954,-0.0531,-0.0038,0.0306,-0.0095,0.0057,0.0005,2.8978,1.3680,3.0174
2024-10-11T13:48:33.914Z,0.0279,-0.9790,0.1968,-0.0185,-0.0039,0.0214,-0.0060,0.0068,0.0009,2.8976,1.3683,3.0175
2024-10-11T13:48:33.924Z,0.0265,-0.9807,0.1973,-0.0185,-0.0039,0.0214,-0.0068,0.0063,-0.0001,2.8976,1.3683,3.0175
2024-10-11T13:48:33.934Z,0.0282,-0.9814,0.1987,-0.0185,-0.0039,0.0214,-0.0084,0.0037,0.0017,2.8976,1.3683,3.0175
2024-10-11T13:48:33.944Z,0.0278,-0.9823,0.1989,-0.0274,0.0293,0.0116,-0.0074,0.0037,0.0014,2.8977,1.3685,3.0173
2024-10-11T13:48:33.954Z,0.0278,-0.9843,0.1971,-0.0274,0.0293,0.0116,-0.0084,0.0043,-0.0000,2.8977,1.3685,3.0173
2024-10-11T13:48:33.964Z,0.0294,-0.9832,0.1962,-0.0274,0.0293,0.0116,-0.0073,0.0037,0.0025,2.8977,1.3685,3.0173
2024-10-11T13:48:33.974Z,0.0277,-0.9803,0.1935,-0.0282,-0.0015,0.0600,-0.0093,0.0024,0.0027,2.8981,1.3688,3.0167
2024-10-11T13:48:33.984Z,0.0315,-0.9804,0.1939,-0.0282,-0.0015,0.0600,-0.0088,0.0024,0.0041,2.8981,1.3688,3.0167
2024-10-11T13:48:33.994Z,0.0284,-0.9775,0.1920,-0.0282,-0.0015,0.0600,-0.0087,0.0077,0.0033,2.8981,1.3688,3.0167
2024-10-11T13:48:34.004Z,0.0281,-0.9765,0.1909,-0.0267,-0.0332,0.0688,-0.0091,0.0051,0.0031,2.8980,1.3691,3.0167
2024-10-11T13:48:34.014Z,0.0289,-0.9749,0.1899,-0.0267,-0.0332,0.0688,-0.0102,0.0048,0.0043,2.8980,1.3691,3.0167
2024-10-11T13:48:34.024Z,0.0279,-0.9735,0.1890,-0.0267,-0.0332,0.0688,-0.0064,0.0049,0.0056,2.8980,1.3691,3.0167
2024-10-11T13:48:34.034Z,0.0295,-0.9742,0.1877,-0.0460,-0.0512,0.1150,-0.0067,0.0065,0.0030,2.8976,1.3694,3.0170
2024-10-11T13:48:34.044Z,0.0279,-0.9737,0.1852,-0.0460,-0.0512,0.1150,-0.0029,0.0061,0.0051,2.8976,1.3694,3.0170
2024-10-11T13:48:34.054Z,0.0246,-0.9739,0.1827,-0.0460,-0.0512,0.1150,-0.0021,0.0064,0.0068,2.8976,1.3694,3.0170
2024-10-11T13:48:34.064Z,0.0250,-0.9730,0.1829,-0.0058,-0.0652,0.1537,-0.0005,0.0099,0.0049,2.8968,1.3695,3.0177
2024-10-11T13:48:34.074Z,0.0256,-0.9750,0.1836,-0.0058,-0.0652,0.1537,0.0019,0.0127,0.0039,2.8968,1.3695,3.0177
2024-10-11T13:48:34.084Z,0.0263,-0.9737,0.1839,-0.0058,-0.0652,0.1537,0.0035,0.0107,0.0047,2.8968,1.3695,3.0177
2024-10-11T13:48:34.096Z,0.0272,-0.9731,0.1841,-0.0260,-0.0696,0.1394,0.0043,0.0077,0.0055,2.8958,1.3695,3.0187
2024-10-11T13:48:34.105Z,0.0260,-0.9715,0.1855,-0.0260,-0.0696,0.1394,0.0052,0.0085,0.0059,2.8958,1.3695,3.0187
2024-10-11T13:48:34.114Z,0.0265,-0.9720,0.1858,-0.0260,-0.0696,0.1394,0.0064,0.0075,0.0035,2.8958,1.3695,3.0187
2024-10-11T13:48:34.124Z,0.0288,-0.9741,0.1853,-0.0407,-0.0512,0.1322,0.0092,0.0086,0.0067,2.8948,1.3694,3.0196
2024-10-11T13:48:34.134Z,0.0292,-0.9760,0.1882,-0.0407,-0.0512,0.1322,0.0117,0.0077,0.0058,2.8948,1.3694,3.0196
2024-10-11T13:48:34.144Z,0.0272,-0.9734,0.1871,-0.0407,-0.0512,0.1322,0.0123,0.0051,0.0067,2.8948,1.3694,3.0196
2024-10-11T13:48:34.154Z,0.0289,-0.9740,0.1873,-0.0503,-0.0541,0.1205,0.0142,0.0068,0.0056,2.8940,1.3693,3.0204
2024-10-11T13:48:34.164Z,0.0277,-0.9740,0.1871,-0.0503,-0.0541,0.1205,0.0137,0.0041,0.0048,2.8940,1.3693,3.0204
2024-10-11T13:48:34.174Z,0.0287,-0.9736,0.1896,-0.0503,-0.0541,0.1205,0.0112,0.0041,0.0050,2.8940,1.3693,3.0204
2024-10-11T13:48:34.184Z,0.0280,-0.9743,0.1909,-0.0342,-0.0573,0.0763,0.0118,0.0046,0.0053,2.8939,1.3695,3.0204
2024-10-11T13:48:34.194Z,0.0274,-0.9743,0.1923,-0.0342,-0.0573,0.0763,0.0127,0.0046,0.0051,2.8939,1.3695,3.0204
2024-10-11T13:48:34.204Z,0.0268,-0.9759,0.1959,-0.0342,-0.0573,0.0763,0.0141,0.0047,0.0054,2.8939,1.3695,3.0204
2024-10-11T13:48:34.214Z,0.0263,-0.9769,0.1987,-0.0217,-0.0248,-0.0003,0.0116,-0.0002,0.0045,2.8928,1.3692,3.0212
2024-10-11T13:48:34.224Z,0.0252,-0.9785,0.1987,-0.0217,-0.0248,-0.0003,0.0146,0.0012,0.0026,2.8928,1.3692,3.0212
2024-10-11T13:48:34.234Z,0.0258,-0.9807,0.1980,-0.0217,-0.0248,-0.0003,0.0142,0.0000,0.0034,2.8928,1.3692,3.0212
2024-10-11T13:48:34.244Z,0.0269,-0.9824,0.1998,-0.0273,0.0209,-0.0124,0.0141,-0.0056,0.0023,2.8918,1.3688,3.0220
2024-10-11T13:48:34.254Z,0.0276,-0.9822,0.2015,-0.0273,0.0209,-0.0124,0.0150,-0.0076,0.0027,2.8918,1.3688,3.0220
2024-10-11T13:48:34.264Z,0.0295,-0.9826,0.1980,-0.0273,0.0209,-0.0124,0.0130,-0.0070,0.0043,2.8918,1.3688,3.0220
2024-10-11T13:48:34.274Z,0.0301,-0.9832,0.1971,-0.0672,0.0337,0.0335,0.0155,-0.0096,0.0058,2.8909,1.3684,3.0224
2024-10-11T13:48:34.284Z,0.0321,-0.9820,0.1954,-0.0672,0.0337,0.0335,0.0157,-0.0108,0.0053,2.8909,1.3684,3.0224
2024-10-11T13:48:34.294Z,0.0316,-0.9834,0.1975,-0.0672,0.0337,0.0335,0.0155,-0.0113,0.0017,2.8909,1.3684,3.0224
2024-10-11T13:48:34.304Z,0.0307,-0.9849,0.1977,-0.0650,0.0595,0.0225,0.0111,-0.0121,0.0040,2.8900,1.3680,3.0227
2024-10-11T13:48:34.315Z,0.0303,-0.9851,0.1973,-0.0650,0.0595,0.0225,0.0137,-0.0093,0.0056,2.8900,1.3680,3.0227
2024-10-11T13:48:34.325Z,0.0290,-0.9867,0.1983,-0.0650,0.0595,0.0225,0.0151,-0.0116,0.0056,2.8900,1.3680,3.0227
2024-10-11T13:48:34.335Z,0.0307,-0.9875,0.2008,-0.0626,0.0816,-0.0051,0.0114,-0.0120,0.0042,2.8889,1.3676,3.0232
2024-10-11T13:48:34.345Z,0.0292,-0.9878,0.2021,-0.0626,0.0816,-0.0051,0.0115,-0.0121,0.0076,2.8889,1.3676,3.0232
2024-10-11T13:48:34.354Z,0.0292,-0.9888,0.2032,-0.0626,0.0816,-0.0051,0.0107,-0.0119,0.0058,2.8889,1.3676,3.0232
2024-10-11T13:48:34.364Z,0.0271,-0.9873,0.2046,-0.0319,0.0795,-0.0320,0.0113,-0.0140,0.0042,2.8879,1.3672,3.0236
2024-10-11T13:48:34.374Z,0.0249,-0.9878,0.2041,-0.0319,0.0795,-0.0320,0.0090,-0.0129,0.0044,2.8879,1.3672,3.0236
2024-10-11T13:48:34.384Z,0.0246,-0.9844,0.2010,-0.0319,0.0795,-0.0320,0.0039,-0.0139,0.0009,2.8879,1.3672,3.0236
2024-10-11T13:48:34.395Z,0.0229,-0.9835,0.2022,0.0197,0.0386,-0.0168,0.0074,-0.0143,0.0034,2.8875,1.3670,3.0232
2024-10-11T13:48:34.404Z,0.0199,-0.9816,0.2035,0.0197,0.0386,-0.0168,0.0066,-0.0123,0.0018,2.8875,1.3670,3.0232
2024-10-11T13:48:34.414Z,0.0181,-0.9812,0.2052,0.0197,0.0386,-0.0168,0.0030,-0.0169,0.0001,2.8875,1.3670,3.0232
2024-10-11T13:48:34.424Z,0.0168,-0.9791,0.2048,0.0654,-0.0023,-0.0416,0.0031,-0.0192,-0.0005,2.8871,1.3669,3.0229
2024-10-11T13:48:34.434Z,0.0168,-0.9819,0.2040,0.0654,-0.0023,-0.0416,0.0032,-0.0191,-0.0011,2.8871,1.3669,3.0229
2024-10-11T13:48:34.445Z,0.0164,-0.9815,0.2059,0.0654,-0.0023,-0.0416,0.0019,-0.0180,-0.0021,2.8871,1.3669,3.0229
2024-10-11T13:48:34.454Z,0.0161,-0.9821,0.2058,0.0745,0.0329,-0.0483,0.0007,-0.0208,-0.0048,2.8872,1.3668,3.0220
2024-10-11T13:48:34.464Z,0.0184,-0.9840,0.2033,0.0745,0.0329,-0.0483,0.0011,-0.0182,-0.0054,2.8872,1.3668,3.0220
2024-10-11T13:48:34.474Z,0.0208,-0.9830,0.2026,0.0745,0.0329,-0.0483,-0.0003,-0.0210,-0.0047,2.8872,1.3668,3.0220
2024-10-11T13:48:34.484Z,0.0202,-0.9821,0.2005,0.0424,0.0255,0.0078,0.0015,-0.0199,-0.0053,2.8877,1.3667,3.0207
2024-10-11T13:48:34.495Z,0.0230,-0.9817,0.1990,0.0424,0.0255,0.0078,0.0017,-0.0188,-0.0049,2.8877,1.3667,3.0207
2024-10-11T13:48:34.504Z,0.0227,-0.9797,0.1992,0.0424,0.0255,0.0078,0.0012,-0.0195,-0.0029,2.8877,1.3667,3.0207
2024-10-11T13:48:34.514Z,0.0208,-0.9780,0.2006,0.0415,-0.0157,-0.0010,0.0020,-0.0115,-0.0046,2.8877,1.3667,3.0199
2024-10-11T13:48:34.524Z,0.0177,-0.9781,0.1999,0.0415,-0.0157,-0.0010,-0.0023,-0.0098,-0.0042,2.8877,1.3667,3.0199
2024-10-11T13:48:34.534Z,0.0163,-0.9775,0.2015,0.0415,-0.0157,-0.0010,0.0004,-0.0022,-0.0041,2.8877,1.3667,3.0199
2024-10-11T13:48:34.546Z,0.0137,-0.9776,0.2051,0.1098,-0.0238,-0.0365,-0.0000,-0.0025,-0.0044,2.8873,1.3666,3.0198
2024-10-11T13:48:34.554Z,0.0142,-0.9775,0.2072,0.1098,-0.0238,-0.0365,-0.0018,0.0011,-0.0040,2.8873,1.3666,3.0198
2024-10-11T13:48:34.564Z,0.0147,-0.9800,0.2081,0.1098,-0.0238,-0.0365,-0.0017,0.0031,-0.0054,2.8873,1.3666,3.0198
2024-10-11T13:48:34.574Z,0.0153,-0.9812,0.2079,0.0992,0.0243,-0.0652,-0.0013,0.0052,-0.0020,2.8873,1.3665,3.0196
2024-10-11T13:48:34.584Z,0.0127,-0.9816,0.2052,0.0992,0.0243,-0.0652,-0.0007,0.0076,-0.0011,2.8873,1.3665,3.0196
2024-10-11T13:48:34.595Z,0.0112,-0.9805,0.2028,0.0992,0.0243,-0.0652,-0.0016,0.0137,-0.0044,2.8873,1.3665,3.0196
2024-10-11T13:48:34.604Z,0.0105,-0.9801,0.2038,0.1394,0.0120,-0.0188,-0.0021,0.0164,-0.0057,2.8874,1.3665,3.0195
2024-10-11T13:48:34.614Z,0.0101,-0.9800,0.2025,0.1394,0.0120,-0.0188,0.0005,0.0197,-0.0050,2.8874,1.3665,3.0195
2024-10-11T13:48:34.624Z,0.0106,-0.9800,0.2024,0.1394,0.0120,-0.0188,0.0037,0.0226,-0.0065,2.8874,1.3665,3.0195
2024-10-11T13:48:34.634Z,0.0112,-0.9790,0.2029,0.1222,-0.0087,-0.0094,0.0008,0.0253,-0.0051,2.8877,1.3665,3.0196
2024-10-11T13:48:34.645Z,0.0117,-0.9762,0.2024,0.1222,-0.0087,-0.0094,0.0012,0.0303,-0.0047,2.8877,1.3665,3.0196
2024-10-11T13:48:34.654Z,0.0132,-0.9755,0.2043,0.1222,-0.0087,-0.0094,-0.0008,0.0312,-0.0066,2.8877,1.3665,3.0196
2024-10-11T13:48:34.664Z,0.0161,-0.9748,0.2058,0.0928,-0.0408,-0.0429,-0.0007,0.0348,-0.0060,2.8876,1.3664,3.0204
2024-10-11T13:48:34.675Z,0.0167,-0.9738,0.2052,0.0928,-0.0408,-0.0429,0.0001,0.0346,-0.0039,2.8876,1.3664,3.0204
2024-10-11T13:48:34.684Z,0.0167,-0.9738,0.2052,0.0928,-0.0408,-0.0429,0.0007,0.0362,-0.0028,2.8876,1.3664,3.0204
2024-10-11T13:48:34.695Z,0.0177,-0.9732,0.2045,0.0638,-0.0578,-0.0256,-0.0003,0.0392,-0.0027,2.8860,1.3663,3.0228
2024-10-11T13:48:34.705Z,0.0137,-0.9737,0.2026,0.0638,-0.0578,-0.0256,0.0020,0.0412,-0.0042,2.8860,1.3663,3.0228
2024-10-11T13:48:34.715Z,0.0118,-0.9747,0.1989,0.0638,-0.0578,-0.0256,-0.0010,0.0463,-0.0017,2.8860,1.3663,3.0228
2024-10-11T13:48:34.725Z,0.0102,-0.9743,0.1952,0.1146,-0.0499,0.0356,0.0008,0.0495,-0.0044,2.8853,1.3663,3.0246
2024-10-11T13:48:34.735Z,0.0022,-0.9731,0.1927,0.1146,-0.0499,0.0356,0.0037,0.0567,-0.0050,2.8853,1.3663,3.0246
2024-10-11T13:48:34.747Z,0.0022,-0.9731,0.1927,0.2067,-0.0562,0.0044,0.0047,0.0647,-0.0083,2.8852,1.3662,3.0262
2024-10-11T13:48:34.754Z,0.0016,-0.9731,0.2005,0.2067,-0.0562,0.0044,0.0044,0.0611,-0.0055,2.8852,1.3662,3.0262
2024-10-11T13:48:34.765Z,0.0077,-0.9765,0.2055,0.2067,-0.0562,0.0044,0.0025,0.0636,-0.0052,2.8852,1.3662,3.0262
2024-10-11T13:48:34.775Z,0.0120,-0.9778,0.2065,0.2067,-0.0562,0.0044,0.0053,0.0691,-0.0054,2.8852,1.3662,3.0262
2024-10-11T13:48:34.785Z,0.0144,-0.9777,0.2049,0.1077,-0.0149,-0.0414,0.0020,0.0682,-0.0081,2.8857,1.3660,3.0274
2024-10-11T13:48:34.797Z,0.0163,-0.9779,0.2065,0.1077,-0.0149,-0.0414,0.0048,0.0703,-0.0025,2.8857,1.3660,3.0274
2024-10-11T13:48:34.805Z,0.0180,-0.9787,0.2057,0.1077,-0.0149,-0.0414,0.0026,0.0705,-0.0036,2.8857,1.3660,3.0274
2024-10-11T13:48:34.814Z,0.0180,-0.9787,0.2057,0.0434,-0.0050,-0.0312,0.0026,0.0731,-0.0058,2.8859,1.3659,3.0290
2024-10-11T13:48:34.825Z,0.0136,-0.9799,0.2006,0.0434,-0.0050,-0.0312,0.0025,0.0801,-0.0078,2.8859,1.3659,3.0290
2024-10-11T13:48:34.835Z,0.0140,-0.9813,0.2004,0.0434,-0.0050,-0.0312,0.0033,0.0821,-0.0067,2.8859,1.3659,3.0290
2024-10-11T13:48:34.847Z,0.0201,-0.9811,0.2032,0.0792,0.0213,0.0131,0.0025,0.0820,-0.0044,2.8860,1.3658,3.0311
2024-10-11T13:48:34.855Z,0.0223,-0.9827,0.2025,0.0792,0.0213,0.0131,0.0006,0.0818,-0.0053,2.8860,1.3658,3.0311
2024-10-11T13:48:34.865Z,0.0246,-0.9825,0.2029,0.0792,0.0213,0.0131,0.0025,0.0759,-0.0075,2.8860,1.3658,3.0311
2024-10-11T13:48:34.875Z,0.0264,-0.9817,0.2059,-0.0222,0.0304,-0.0067,0.0034,0.0775,-0.0060,2.8858,1.3656,3.0334
2024-10-11T13:48:34.885Z,0.0264,-0.9805,0.2016,-0.0222,0.0304,-0.0067,0.0026,0.0723,-0.0050,2.8858,1.3656,3.0334
2024-10-11T13:48:34.898Z,0.0336,-0.9810,0.2012,-0.1232,0.0211,0.0183,0.0038,0.0690,-0.0055,2.8858,1.3654,3.0353
2024-10-11T13:48:34.904Z,0.0350,-0.9810,0.2022,-0.1232,0.0211,0.0183,0.0019,0.0644,-0.0071,2.8858,1.3654,3.0353
2024-10-11T13:48:34.916Z,0.0406,-0.9803,0.1994,-0.1232,0.0211,0.0183,0.0022,0.0607,-0.0085,2.8858,1.3654,3.0353
2024-10-11T13:48:34.925Z,0.0454,-0.9797,0.1966,-0.1232,0.0211,0.0183,0.0016,0.0487,-0.0079,2.8858,1.3654,3.0353
2024-10-11T13:48:34.934Z,0.0504,-0.9803,0.1964,-0.2372,0.0084,0.0656,0.0018,0.0383,-0.0073,2.8860,1.3652,3.0365
2024-10-11T13:48:34.946Z,0.0519,-0.9825,0.1972,-0.2372,0.0084,0.0656,-0.0019,0.0298,-0.0086,2.8860,1.3652,3.0365
2024-10-11T13:48:34.955Z,0.0520,-0.9845,0.1968,-0.2372,0.0084,0.0656,0.0009,0.0198,-0.0044,2.8860,1.3652,3.0365
2024-10-11T13:48:34.965Z,0.0502,-0.9863,0.1981,-0.2987,0.0525,0.0672,0.0030,0.0135,-0.0060,2.8861,1.3650,3.0371
2024-10-11T13:48:34.976Z,0.0491,-0.9847,0.1978,-0.2987,0.0525,0.0672,0.0033,0.0100,-0.0047,2.8861,1.3650,3.0371
2024-10-11T13:48:34.985Z,0.0449,-0.9856,0.1998,-0.2987,0.0525,0.0672,0.0018,0.0060,-0.0073,2.8861,1.3650,3.0371
2024-10-11T13:48:34.995Z,0.0418,-0.9857,0.1981,-0.2262,0.0648,0.0420,0.0023,0.0025,-0.0069,2.8866,1.3648,3.0366
2024-10-11T13:48:35.005Z,0.0395,-0.9833,0.1977,-0.2262,0.0648,0.0420,0.0004,0.0007,-0.0060,2.8866,1.3648,3.0366
2024-10-11T13:48:35.015Z,0.0361,-0.9808,0.1938,-0.2262,0.0648,0.0420,0.0017,-0.0021,-0.0050,2.8866,1.3648,3.0366
2024-10-11T13:48:35.025Z,0.0348,-0.9778,0.1943,-0.1429,0.0170,0.0966,0.0005,-0.0032,-0.0075,2.8875,1.3647,3.0355
2024-10-11T13:48:35.035Z,0.0346,-0.9761,0.1941,-0.1429,0.0170,0.0966,-0.0004,-0.0018,-0.0045,2.8875,1.3647,3.0355
2024-10-11T13:48:35.045Z,0.0292,-0.9756,0.1960,-0.1429,0.0170,0.0966,0.0017,-0.0060,-0.0039,2.8875,1.3647,3.0355
2024-10-11T13:48:35.054Z,0.0273,-0.9765,0.1966,-0.0603,-0.0298,0.0782,0.0025,-0.0032,-0.0041,2.8881,1.3646,3.0345
2024-10-11T13:48:35.065Z,0.0252,-0.9779,0.1955,-0.0603,-0.0298,0.0782,0.0045,-0.0018,-0.0032,2.8881,1.3646,3.0345
2024-10-11T13:48:35.074Z,0.0266,-0.9819,0.1979,-0.0603,-0.0298,0.0782,0.0017,0.0008,-0.0057,2.8881,1.3646,3.0345
2024-10-11T13:48:35.084Z,0.0304,-0.9832,0.1977,-0.0538,0.0360,0.0550,0.0045,0.0030,-0.0065,2.8887,1.3645,3.0336
2024-10-11T13:48:35.095Z,0.0317,-0.9857,0.1969,-0.0538,0.0360,0.0550,0.0033,0.0027,-0.0050,2.8887,1.3645,3.0336
2024-10-11T13:48:35.104Z,0.0370,-0.9839,0.1984,-0.0538,0.0360,0.0550,0.0047,-0.0010,-0.0045,2.8887,1.3645,3.0336
2024-10-11T13:48:35.114Z,0.0384,-0.9824,0.1988,-0.1570,0.0561,0.0516,0.0037,-0.0037,-0.0052,2.8894,1.3644,3.0328
2024-10-11T13:48:35.125Z,0.0361,-0.9843,0.2018,-0.1570,0.0561,0.0516,0.0008,-0.0048,-0.0029,2.8894,1.3644,3.0328
2024-10-11T13:48:35.134Z,0.0343,-0.9824,0.2021,-0.1570,0.0561,0.0516,-0.0005,-0.0072,-0.0066,2.8894,1.3644,3.0328
2024-10-11T13:48:35.144Z,0.0314,-0.9830,0.2049,-0.1113,0.0323,0.0129,-0.0013,-0.0099,-0.0072,2.8902,1.3643,3.0316
2024-10-11T13:48:35.155Z,0.0314,-0.9824,0.2098,-0.1113,0.0323,0.0129,-0.0018,-0.0085,-0.0083,2.8902,1.3643,3.0316
2024-10-11T13:48:35.165Z,0.0314,-0.9824,0.2098,-0.0795,0.0551,-0.0473,-0.0024,-0.0091,-0.0082,2.8912,1.3643,3.0300
2024-10-11T13:48:35.174Z,0.0329,-0.9838,0.2081,-0.0795,0.0551,-0.0473,-0.0008,-0.0103,-0.0094,2.8912,1.3643,3.0300
2024-10-11T13:48:35.184Z,0.0329,-0.9838,0.2081,-0.0795,0.0551,-0.0473,-0.0035,-0.0127,-0.0096,2.8912,1.3643,3.0300
2024-10-11T13:48:35.196Z,0.0336,-0.9843,0.2081,-0.1037,0.0601,-0.0471,-0.0028,-0.0152,-0.0080,2.8926,1.3644,3.0280
2024-10-11T13:48:35.205Z,0.0340,-0.9850,0.2083,-0.1037,0.0601,-0.0471,-0.0024,-0.0161,-0.0094,2.8926,1.3644,3.0280
2024-10-11T13:48:35.215Z,0.0362,-0.9856,0.2080,-0.1037,0.0601,-0.0471,-0.0064,-0.0179,-0.0106,2.8926,1.3644,3.0280
2024-10-11T13:48:35.225Z,0.0359,-0.9857,0.2078,-0.1146,0.0679,-0.0431,-0.0063,-0.0172,-0.0097,2.8939,1.3645,3.0259
2024-10-11T13:48:35.234Z,0.0360,-0.9850,0.2100,-0.1146,0.0679,-0.0431,-0.0085,-0.0191,-0.0110,2.8939,1.3645,3.0259
2024-10-11T13:48:35.244Z,0.0365,-0.9858,0.2105,-0.1146,0.0679,-0.0431,-0.0119,-0.0178,-0.0074,2.8939,1.3645,3.0259
2024-10-11T13:48:35.254Z,0.0359,-0.9845,0.2088,-0.1146,0.0679,-0.0431,-0.0115,-0.0151,-0.0052,2.8939,1.3645,3.0259
2024-10-11T13:48:35.264Z,0.0343,-0.9835,0.2092,-0.1087,0.0535,-0.0574,-0.0103,-0.0145,-0.0028,2.8951,1.3647,3.0241
2024-10-11T13:48:35.274Z,0.0296,-0.9789,0.2088,-0.1087,0.0535,-0.0574,-0.0132,-0.0120,-0.0070,2.8951,1.3647,3.0241
2024-10-11T13:48:35.285Z,0.0266,-0.9766,0.2097,-0.0251,-0.0242,-0.0698,-0.0149,-0.0085,-0.0041,2.8967,1.3650,3.0218
2024-10-11T13:48:35.294Z,0.0261,-0.9731,0.2083,-0.0251,-0.0242,-0.0698,-0.0160,-0.0042,-0.0078,2.8967,1.3650,3.0218
2024-10-11T13:48:35.304Z,0.0265,-0.9704,0.2077,-0.0251,-0.0242,-0.0698,-0.0172,-0.0024,-0.0068,2.8967,1.3650,3.0218
2024-10-11T13:48:35.314Z,0.0256,-0.9687,0.2088,-0.0251,-0.0242,-0.0698,-0.0153,0.0026,-0.0027,2.8967,1.3650,3.0218
2024-10-11T13:48:35.324Z,0.0222,-0.9702,0.2083,-0.0079,-0.1006,-0.0610,-0.0151,0.0039,-0.0057,2.8978,1.3654,3.0205
2024-10-11T13:48:35.334Z,0.0242,-0.9714,0.2094,-0.0079,-0.1006,-0.0610,-0.0172,0.0065,-0.0040,2.8978,1.3654,3.0205
2024-10-11T13:48:35.345Z,0.0210,-0.9761,0.2098,0.0374,-0.0225,-0.0791,-0.0131,0.0068,-0.0044,2.8986,1.3658,3.0196
2024-10-11T13:48:35.354Z,0.0201,-0.9783,0.2125,0.0374,-0.0225,-0.0791,-0.0139,0.0098,-0.0050,2.8986,1.3658,3.0196
2024-10-11T13:48:35.364Z,0.0210,-0.9806,0.2110,0.0374,-0.0225,-0.0791,-0.0127,0.0133,-0.0061,2.8986,1.3658,3.0196
2024-10-11T13:48:35.375Z,0.0208,-0.9818,0.2076,0.0335,0.0300,-0.0538,-0.0126,0.0134,-0.0055,2.8994,1.3661,3.0189
2024-10-11T13:48:35.384Z,0.0236,-0.9837,0.2060,0.0335,0.0300,-0.0538,-0.0121,0.0129,-0.0045,2.8994,1.3661,3.0189
2024-10-11T13:48:35.395Z,0.0223,-0.9793,0.2043,0.0335,0.0300,-0.0538,-0.0116,0.0172,-0.0026,2.8994,1.3661,3.0189
2024-10-11T13:48:35.406Z,0.0256,-0.9800,0.2012,-0.0151,0.0145,0.0097,-0.0128,0.0180,-0.0046,2.8999,1.3664,3.0187
2024-10-11T13:48:35.414Z,0.0253,-0.9801,0.2011,-0.0151,0.0145,0.0097,-0.0111,0.0194,-0.0046,2.8999,1.3664,3.0187
2024-10-11T13:48:35.425Z,0.0250,-0.9808,0.2006,-0.0151,0.0145,0.0097,-0.0104,0.0180,-0.0007,2.8999,1.3664,3.0187
2024-10-11T13:48:35.434Z,0.0295,-0.9801,0.2010,-0.0151,0.0145,0.0097,-0.0111,0.0189,-0.0031,2.8999,1.3664,3.0187
2024-10-11T13:48:35.444Z,0.0294,-0.9791,0.2024,-0.0467,0.0080,0.0025,-0.0112,0.0187,-0.0015,2.9004,1.3666,3.0185
2024-10-11T13:48:35.454Z,0.0285,-0.9788,0.2018,-0.0467,0.0080,0.0025,-0.0097,0.0162,-0.0019,2.9004,1.3666,3.0185
2024-10-11T13:48:35.464Z,0.0258,-0.9795,0.2032,-0.0467,0.0080,0.0025,-0.0108,0.0179,-0.0015,2.9004,1.3666,3.0185
2024-10-11T13:48:35.474Z,0.0247,-0.9775,0.2041,-0.0046,-0.0037,-0.0209,-0.0074,0.0174,-0.0002,2.9006,1.3669,3.0186
2024-10-11T13:48:35.484Z,0.0250,-0.9759,0.2054,-0.0046,-0.0037,-0.0209,-0.0085,0.0186,-0.0023,2.9006,1.3669,3.0186
2024-10-11T13:48:35.495Z,0.0252,-0.9736,0.2074,-0.0023,-0.0476,-0.0666,-0.0083,0.0205,-0.0008,2.9007,1.3671,3.0187
2024-10-11T13:48:35.504Z,0.0260,-0.9747,0.2076,-0.0023,-0.0476,-0.0666,-0.0085,0.0196,-0.0022,2.9007,1.3671,3.0187
2024-10-11T13:48:35.514Z,0.0270,-0.9742,0.2057,-0.0023,-0.0476,-0.0666,-0.0091,0.0200,0.0001,2.9007,1.3671,3.0187
2024-10-11T13:48:35.525Z,0.0292,-0.9754,0.2069,-0.0438,-0.0475,-0.0650,-0.0082,0.0171,-0.0007,2.9010,1.3673,3.0187
2024-10-11T13:48:35.534Z,0.0303,-0.9751,0.2062,-0.0438,-0.0475,-0.0650,-0.0075,0.0132,-0.0025,2.9010,1.3673,3.0187
2024-10-11T13:48:35.544Z,0.0298,-0.9777,0.2029,-0.0438,-0.0475,-0.0650,-0.0097,0.0081,0.0019,2.9010,1.3673,3.0187
2024-10-11T13:48:35.555Z,0.0270,-0.9776,0.2011,-0.0232,-0.0148,-0.0087,-0.0060,0.0074,0.0033,2.9009,1.3674,3.0188
2024-10-11T13:48:35.565Z,0.0239,-0.9782,0.2002,-0.0232,-0.0148,-0.0087,-0.0065,0.0071,0.0035,2.9009,1.3674,3.0188
2024-10-11T13:48:35.574Z,0.0258,-0.9802,0.2004,-0.0232,-0.0148,-0.0087,-0.0078,0.0093,-0.0003,2.9009,1.3674,3.0188
2024-10-11T13:48:35.584Z,0.0264,-0.9795,0.2015,-0.0244,-0.0051,-0.0103,-0.0096,0.0096,0.0001,2.9007,1.3675,3.0191
2024-10-11T13:48:35.594Z,0.0294,-0.9815,0.2030,-0.0244,-0.0051,-0.0103,-0.0090,0.0124,-0.0005,2.9007,1.3675,3.0191
2024-10-11T13:48:35.604Z,0.0323,-0.9805,0.2029,-0.0244,-0.0051,-0.0103,-0.0075,0.0102,-0.0001,2.9007,1.3675,3.0191
2024-10-11T13:48:35.615Z,0.0323,-0.9805,0.2029,-0.0685,-0.0016,-0.0384,-0.0051,0.0101,0.0003,2.9010,1.3675,3.0188
2024-10-11T13:48:35.624Z,0.0321,-0.9771,0.2039,-0.0685,-0.0016,-0.0384,-0.0100,0.0098,0.0017,2.9010,1.3675,3.0188
2024-10-11T13:48:35.634Z,0.0276,-0.9759,0.2019,-0.0685,-0.0016,-0.0384,-0.0075,0.0098,0.0047,2.9010,1.3675,3.0188
2024-10-11T13:48:35.645Z,0.0249,-0.9742,0.1997,-0.0062,-0.0555,0.0088,-0.0055,0.0103,0.0031,2.9008,1.3677,3.0191
2024-10-11T13:48:35.655Z,0.0223,-0.9737,0.1986,-0.0062,-0.0555,0.0088,-0.0054,0.0114,0.0038,2.9008,1.3677,3.0191
2024-10-11T13:48:35.664Z,0.0178,-0.9718,0.1990,-0.0062,-0.0555,0.0088,-0.0079,0.0114,0.0020,2.9008,1.3677,3.0191
2024-10-11T13:48:35.674Z,0.0179,-0.9692,0.1990,0.0659,-0.1012,0.0072,-0.0085,0.0139,-0.0032,2.9004,1.3678,3.0195
2024-10-11T13:48:35.684Z,0.0163,-0.9695,0.2001,0.0659,-0.1012,0.0072,-0.0042,0.0123,0.0003,2.9004,1.3678,3.0195
2024-10-11T13:48:35.694Z,0.0169,-0.9695,0.2008,0.0659,-0.1012,0.0072,-0.0023,0.0080,-0.0011,2.9004,1.3678,3.0195
2024-10-11T13:48:35.705Z,0.0178,-0.9694,0.2005,0.0688,-0.0944,-0.0082,-0.0030,0.0061,-0.0010,2.9006,1.3679,3.0193
2024-10-11T13:48:35.715Z,0.0184,-0.9717,0.2011,0.0688,-0.0944,-0.0082,-0.0030,0.0046,-0.0028,2.9006,1.3679,3.0193
2024-10-11T13:48:35.724Z,0.0189,-0.9731,0.1997,0.0688,-0.0944,-0.0082,-0.0038,0.0074,-0.0037,2.9006,1.3679,3.0193
2024-10-11T13:48:35.735Z,0.0196,-0.9757,0.1971,0.0563,-0.0386,0.0268,-0.0033,0.0091,-0.0046,2.9008,1.3680,3.0191
2024-10-11T13:48:35.744Z,0.0177,-0.9759,0.1984,0.0563,-0.0386,0.0268,-0.0012,0.0090,-0.0059,2.9008,1.3680,3.0191
2024-10-11T13:48:35.754Z,0.0203,-0.9768,0.1989,0.0563,-0.0386,0.0268,-0.0018,0.0110,-0.0046,2.9008,1.3680,3.0191
2024-10-11T13:48:35.766Z,0.0214,-0.9771,0.1967,0.0262,-0.0153,0.0297,0.0016,0.0143,-0.0041,2.9012,1.3679,3.0188
2024-10-11T13:48:35.773Z,0.0220,-0.9785,0.1962,0.0262,-0.0153,0.0297,0.0018,0.0125,-0.0059,2.9012,1.3679,3.0188
2024-10-11T13:48:35.784Z,0.0206,-0.9784,0.1977,0.0262,-0.0153,0.0297,0.0044,0.0114,-0.0077,2.9012,1.3679,3.0188
2024-10-11T13:48:35.794Z,0.0211,-0.9786,0.1969,0.0349,-0.0046,0.0331,0.0032,0.0135,-0.0054,2.9014,1.3678,3.0187
2024-10-11T13:48:35.804Z,0.0230,-0.9799,0.1965,0.0349,-0.0046,0.0331,0.0040,0.0161,-0.0047,2.9014,1.3678,3.0187
2024-10-11T13:48:35.815Z,0.0217,-0.9780,0.1980,0.0349,-0.0046,0.0331,0.0033,0.0129,-0.0054,2.9014,1.3678,3.0187
2024-10-11T13:48:35.825Z,0.0221,-0.9772,0.1975,0.0245,-0.0200,0.0270,0.0028,0.0185,-0.0042,2.9018,1.3677,3.0185
2024-10-11T13:48:35.834Z,0.0230,-0.9795,0.1993,0.0245,-0.0200,0.0270,0.0011,0.0177,-0.0061,2.9018,1.3677,3.0185
2024-10-11T13:48:35.844Z,0.0228,-0.9712,0.1934,0.0245,-0.0200,0.0270,0.0044,0.0208,-0.0045,2.9018,1.3677,3.0185
2024-10-11T13:48:35.854Z,0.0327,-0.9640,0.1922,-0.0747,-0.1323,0.0685,0.0028,0.0198,-0.0074,2.9022,1.3676,3.0183
2024-10-11T13:48:35.865Z,0.0173,-0.9771,0.1963,-0.0747,-0.1323,0.0685,0.0053,0.0229,-0.0084,2.9022,1.3676,3.0183
2024-10-11T13:48:35.873Z,0.0278,-0.9602,0.1925,-0.0747,-0.1323,0.0685,0.0097,0.0213,-0.0077,2.9022,1.3676,3.0183
2024-10-11T13:48:35.885Z,0.0307,-0.9845,0.2003,-0.0359,0.0901,0.0036,0.0096,0.0191,-0.0069,2.9027,1.3672,3.0181
2024-10-11T13:48:35.894Z,0.0176,-0.9758,0.1911,-0.0359,0.0901,0.0036,0.0091,0.0196,-0.0064,2.9027,1.3672,3.0181
2024-10-11T13:48:35.904Z,0.0420,-0.9759,0.1977,-0.0359,0.0901,0.0036,0.0120,0.0139,-0.0044,2.9027,1.3672,3.0181
2024-10-11T13:48:35.915Z,0.0257,-0.9811,0.1949,0.0056,-0.0004,0.0507,0.0100,0.0220,-0.0051,2.9030,1.3669,3.0183
2024-10-11T13:48:35.924Z,0.0371,-0.9779,0.1978,0.0056,-0.0004,0.0507,0.0122,0.0195,-0.0033,2.9030,1.3669,3.0183
2024-10-11T13:48:35.934Z,0.0318,-0.9806,0.1972,0.0056,-0.0004,0.0507,0.0085,0.0244,-0.0025,2.9030,1.3669,3.0183
2024-10-11T13:48:35.944Z,0.0298,-0.9816,0.2002,-0.0639,0.0276,0.0018,0.0088,0.0296,-0.0020,2.9026,1.3666,3.0191
2024-10-11T13:48:35.954Z,0.0313,-0.9837,0.2038,-0.0639,0.0276,0.0018,0.0090,0.0308,0.0016,2.9026,1.3666,3.0191
2024-10-11T13:48:35.964Z,0.0287,-0.9854,0.2044,-0.0639,0.0276,0.0018,0.0063,0.0339,0.0016,2.9026,1.3666,3.0191
2024-10-11T13:48:35.974Z,0.0289,-0.9853,0.2049,-0.0427,0.0693,-0.0330,0.0088,0.0376,0.0042,2.9021,1.3664,3.0204
2024-10-11T13:48:35.984Z,0.0291,-0.9883,0.2068,-0.0427,0.0693,-0.0330,0.0080,0.0357,0.0019,2.9021,1.3664,3.0204
2024-10-11T13:48:35.994Z,0.0268,-0.9851,0.2054,-0.0427,0.0693,-0.0330,0.0063,0.0357,0.0024,2.9021,1.3664,3.0204
2024-10-11T13:48:36.004Z,0.0267,-0.9783,0.2003,-0.0244,-0.0240,0.0199,0.0075,0.0355,0.0052,2.9013,1.3662,3.0220
2024-10-11T13:48:36.014Z,0.0244,-0.9758,0.2002,-0.0244,-0.0240,0.0199,0.0074,0.0390,0.0045,2.9013,1.3662,3.0220
2024-10-11T13:48:36.024Z,0.0262,-0.9740,0.1980,-0.0244,-0.0240,0.0199,0.0077,0.0408,0.0057,2.9013,1.3662,3.0220
2024-10-11T13:48:36.034Z,0.0311,-0.9681,0.1982,-0.0776,-0.1062,0.0374,0.0109,0.0369,0.0049,2.9001,1.3659,3.0240
2024-10-11T13:48:36.044Z,0.0365,-0.9740,0.1971,-0.0776,-0.1062,0.0374,0.0074,0.0354,0.0065,2.9001,1.3659,3.0240
2024-10-11T13:48:36.054Z,0.0364,-0.9762,0.1980,-0.0776,-0.1062,0.0374,0.0074,0.0303,0.0054,2.9001,1.3659,3.0240
2024-10-11T13:48:36.067Z,0.0427,-0.9780,0.1978,-0.1974,-0.0067,0.0425,0.0083,0.0260,0.0089,2.8991,1.3657,3.0256
2024-10-11T13:48:36.074Z,0.0392,-0.9853,0.2013,-0.1974,-0.0067,0.0425,0.0067,0.0233,0.0049,2.8991,1.3657,3.0256
2024-10-11T13:48:36.083Z,0.0441,-0.9897,0.2097,-0.1974,-0.0067,0.0425,0.0037,0.0159,0.0071,2.8991,1.3657,3.0256
2024-10-11T13:48:36.095Z,0.0471,-0.9863,0.2011,-0.2173,0.0542,0.0217,0.0022,0.0120,0.0077,2.8978,1.3656,3.0271
2024-10-11T13:48:36.104Z,0.0492,-0.9859,0.1998,-0.2173,0.0542,0.0217,0.0020,0.0041,0.0075,2.8978,1.3656,3.0271
2024-10-11T13:48:36.114Z,0.0583,-0.9837,0.1943,-0.2173,0.0542,0.0217,0.0032,-0.0064,0.0076,2.8978,1.3656,3.0271
2024-10-11T13:48:36.124Z,0.0645,-0.9849,0.1940,-0.4086,0.0726,0.0886,0.0039,-0.0179,0.0086,2.8965,1.3655,3.0278
2024-10-11T13:48:36.133Z,0.0653,-0.9856,0.1927,-0.4086,0.0726,0.0886,0.0056,-0.0301,0.0097,2.8965,1.3655,3.0278
2024-10-11T13:48:36.144Z,0.0833,-0.9792,0.1875,-0.4086,0.0726,0.0886,0.0039,-0.0512,0.0081,2.8965,1.3655,3.0278
2024-10-11T13:48:36.154Z,0.0743,-0.9828,0.1872,-0.4701,0.0384,0.1464,0.0042,-0.0594,0.0084,2.8950,1.3654,3.0274
2024-10-11T13:48:36.164Z,0.0607,-0.9842,0.1868,-0.4701,0.0384,0.1464,0.0058,-0.0688,0.0103,2.8950,1.3654,3.0274
2024-10-11T13:48:36.174Z,0.0636,-0.9817,0.1858,-0.4701,0.0384,0.1464,0.0028,-0.0702,0.0092,2.8950,1.3654,3.0274
2024-10-11T13:48:36.184Z,0.0461,-0.9869,0.1858,-0.2070,0.0861,0.1717,0.0058,-0.0721,0.0098,2.8935,1.3652,3.0266
2024-10-11T13:48:36.194Z,0.0427,-0.9866,0.1847,-0.2070,0.0861,0.1717,0.0079,-0.0704,0.0122,2.8935,1.3652,3.0266
2024-10-11T13:48:36.204Z,0.0357,-0.9873,0.1834,-0.2070,0.0861,0.1717,0.0051,-0.0671,0.0151,2.8935,1.3652,3.0266
2024-10-11T13:48:36.215Z,0.0247,-0.9867,0.1826,-0.0110,0.0734,0.2001,0.0047,-0.0606,0.0155,2.8916,1.3651,3.0263
2024-10-11T13:48:36.224Z,0.0214,-0.9859,0.1820,-0.0110,0.0734,0.2001,0.0033,-0.0562,0.0159,2.8916,1.3651,3.0263
2024-10-11T13:48:36.234Z,0.0195,-0.9860,0.1814,-0.0110,0.0734,0.2001,0.0026,-0.0493,0.0156,2.8916,1.3651,3.0263
2024-10-11T13:48:36.244Z,0.0199,-0.9867,0.1826,0.0261,0.0761,0.1970,0.0047,-0.0434,0.0168,2.8886,1.3649,3.0275
2024-10-11T13:48:36.254Z,0.0212,-0.9856,0.1880,0.0261,0.0761,0.1970,0.0026,-0.0376,0.0175,2.8886,1.3649,3.0275
2024-10-11T13:48:36.264Z,0.0227,-0.9836,0.1942,0.0261,0.0761,0.1970,0.0031,-0.0339,0.0162,2.8886,1.3649,3.0275
2024-10-11T13:48:36.274Z,0.0260,-0.9805,0.1984,-0.0277,0.0186,0.0432,0.0043,-0.0354,0.0183,2.8852,1.3648,3.0295
2024-10-11T13:48:36.284Z,0.0251,-0.9813,0.2030,-0.0277,0.0186,0.0432,0.0015,-0.0346,0.0162,2.8852,1.3648,3.0295
2024-10-11T13:48:36.294Z,0.0251,-0.9777,0.2036,-0.0277,0.0186,0.0432,0.0006,-0.0328,0.0150,2.8852,1.3648,3.0295
2024-10-11T13:48:36.305Z,0.0259,-0.9776,0.2040,-0.0323,-0.0107,-0.0060,0.0015,-0.0303,0.0136,2.8823,1.3648,3.0312
2024-10-11T13:48:36.316Z,0.0272,-0.9780,0.2022,-0.0323,-0.0107,-0.0060,-0.0016,-0.0321,0.0114,2.8823,1.3648,3.0312
2024-10-11T13:48:36.324Z,0.0298,-0.9774,0.1994,-0.0323,-0.0107,-0.0060,-0.0048,-0.0300,0.0133,2.8823,1.3648,3.0312
2024-10-11T13:48:36.334Z,0.0288,-0.9766,0.1985,-0.0602,-0.0242,0.0527,-0.0031,-0.0320,0.0123,2.8800,1.3648,3.0323
2024-10-11T13:48:36.344Z,0.0299,-0.9763,0.1960,-0.0602,-0.0242,0.0527,-0.0013,-0.0367,0.0131,2.8800,1.3648,3.0323
2024-10-11T13:48:36.354Z,0.0279,-0.9765,0.1968,-0.0602,-0.0242,0.0527,-0.0014,-0.0397,0.0093,2.8800,1.3648,3.0323
2024-10-11T13:48:36.364Z,0.0275,-0.9769,0.1995,-0.0534,-0.0115,0.0414,-0.0027,-0.0428,0.0102,2.8777,1.3648,3.0331
2024-10-11T13:48:36.374Z,0.0273,-0.9786,0.1983,-0.0534,-0.0115,0.0414,-0.0024,-0.0440,0.0098,2.8777,1.3648,3.0331
2024-10-11T13:48:36.384Z,0.0276,-0.9798,0.1969,-0.0534,-0.0115,0.0414,0.0034,-0.0480,0.0064,2.8777,1.3648,3.0331
2024-10-11T13:48:36.394Z,0.0262,-0.9803,0.1965,-0.0286,0.0086,0.0666,0.0006,-0.0481,0.0082,2.8763,1.3648,3.0328
2024-10-11T13:48:36.404Z,0.0220,-0.9810,0.2004,-0.0286,0.0086,0.0666,0.0018,-0.0474,0.0077,2.8763,1.3648,3.0328
2024-10-11T13:48:36.414Z,0.0191,-0.9809,0.2025,-0.0286,0.0086,0.0666,0.0006,-0.0469,0.0048,2.8763,1.3648,3.0328
2024-10-11T13:48:36.424Z,0.0157,-0.9801,0.2044,0.0731,0.0123,-0.0156,0.0035,-0.0464,0.0045,2.8755,1.3647,3.0319
2024-10-11T13:48:36.434Z,0.0137,-0.9818,0.2064,0.0731,0.0123,-0.0156,0.0057,-0.0475,0.0006,2.8755,1.3647,3.0319
2024-10-11T13:48:36.444Z,0.0182,-0.9810,0.2061,0.0731,0.0123,-0.0156,0.0027,-0.0474,-0.0003,2.8755,1.3647,3.0319
2024-10-11T13:48:36.454Z,0.0194,-0.9805,0.2075,0.0310,0.0154,-0.0340,0.0026,-0.0470,0.0014,2.8749,1.3646,3.0309
2024-10-11T13:48:36.465Z,0.0229,-0.9793,0.2074,0.0310,0.0154,-0.0340,0.0025,-0.0460,-0.0008,2.8749,1.3646,3.0309
2024-10-11T13:48:36.474Z,0.0226,-0.9797,0.2075,0.0310,0.0154,-0.0340,0.0057,-0.0465,-0.0001,2.8749,1.3646,3.0309
2024-10-11T13:48:36.485Z,0.0219,-0.9802,0.2092,0.0087,0.0057,-0.0620,0.0009,-0.0459,0.0011,2.8740,1.3645,3.0300
2024-10-11T13:48:36.494Z,0.0226,-0.9790,0.2081,0.0087,0.0057,-0.0620,0.0016,-0.0468,0.0028,2.8740,1.3645,3.0300
2024-10-11T13:48:36.504Z,0.0231,-0.9787,0.2081,0.0087,0.0057,-0.0620,0.0010,-0.0438,0.0034,2.8740,1.3645,3.0300
2024-10-11T13:48:36.516Z,0.0227,-0.9782,0.2066,0.0002,-0.0194,-0.0236,0.0003,-0.0400,0.0035,2.8730,1.3644,3.0296
2024-10-11T13:48:36.524Z,0.0225,-0.9756,0.2074,0.0002,-0.0194,-0.0236,-0.0005,-0.0359,0.0023,2.8730,1.3644,3.0296
2024-10-11T13:48:36.534Z,0.0235,-0.9763,0.2057,0.0002,-0.0194,-0.0236,-0.0022,-0.0308,0.0030,2.8730,1.3644,3.0296
2024-10-11T13:48:36.544Z,0.0252,-0.9754,0.2066,-0.0145,-0.0308,-0.0358,0.0006,-0.0307,0.0040,2.8719,1.3644,3.0294
2024-10-11T13:48:36.554Z,0.0244,-0.9739,0.2064,-0.0145,-0.0308,-0.0358,0.0000,-0.0274,0.0062,2.8719,1.3644,3.0294
2024-10-11T13:48:36.564Z,0.0246,-0.9748,0.2061,-0.0145,-0.0308,-0.0358,0.0032,-0.0267,0.0052,2.8719,1.3644,3.0294
2024-10-11T13:48:36.574Z,0.0193,-0.9749,0.2050,0.0448,-0.0291,-0.0117,-0.0004,-0.0235,0.0061,2.8705,1.3643,3.0298
2024-10-11T13:48:36.584Z,0.0164,-0.9762,0.2022,0.0448,-0.0291,-0.0117,-0.0011,-0.0191,0.0058,2.8705,1.3643,3.0298
2024-10-11T13:48:36.594Z,0.0133,-0.9771,0.2035,0.0448,-0.0291,-0.0117,0.0006,-0.0174,0.0065,2.8705,1.3643,3.0298
2024-10-11T13:48:36.604Z,0.0099,-0.9805,0.2044,0.1304,0.0198,-0.0072,0.0037,-0.0132,0.0049,2.8694,1.3643,3.0301
2024-10-11T13:48:36.615Z,0.0082,-0.9806,0.2068,0.1304,0.0198,-0.0072,0.0033,-0.0105,0.0042,2.8694,1.3643,3.0301
2024-10-11T13:48:36.624Z,0.0072,-0.9812,0.2049,0.1304,0.0198,-0.0072,0.0018,-0.0065,0.0067,2.8694,1.3643,3.0301
2024-10-11T13:48:36.635Z,0.0050,-0.9844,0.2053,0.1727,0.0532,-0.0139,0.0036,-0.0027,0.0052,2.8685,1.3642,3.0305
2024-10-11T13:48:36.644Z,0.0033,-0.9842,0.2049,0.1727,0.0532,-0.0139,0.0016,0.0010,0.0076,2.8685,1.3642,3.0305
2024-10-11T13:48:36.654Z,-0.0000,-0.9838,0.2049,0.1727,0.0532,-0.0139,0.0026,0.0038,0.0054,2.8685,1.3642,3.0305
2024-10-11T13:48:36.665Z,-0.0035,-0.9822,0.2017,0.2562,0.0274,0.0227,-0.0006,0.0103,0.0030,2.8677,1.3642,3.0313
2024-10-11T13:48:36.674Z,-0.0027,-0.9803,0.2019,0.2562,0.0274,0.0227,0.0015,0.0172,0.0036,2.8677,1.3642,3.0313
2024-10-11T13:48:36.684Z,-0.0030,-0.9780,0.1984,0.2562,0.0274,0.0227,-0.0011,0.0225,0.0026,2.8677,1.3642,3.0313
2024-10-11T13:48:36.694Z,0.0002,-0.9775,0.1982,0.2152,-0.0082,0.0644,-0.0001,0.0289,0.0020,2.8670,1.3641,3.0325
2024-10-11T13:48:36.704Z,0.0010,-0.9769,0.1972,0.2152,-0.0082,0.0644,0.0041,0.0315,0.0027,2.8670,1.3641,3.0325
2024-10-11T13:48:36.715Z,0.0013,-0.9770,0.1969,0.2152,-0.0082,0.0644,0.0043,0.0358,0.0001,2.8670,1.3641,3.0325
2024-10-11T13:48:36.724Z,0.0037,-0.9740,0.1973,0.1850,-0.0460,0.0694,0.0056,0.0395,-0.0008,2.8664,1.3640,3.0339
2024-10-11T13:48:36.735Z,0.0041,-0.9740,0.1960,0.1850,-0.0460,0.0694,0.0038,0.0398,-0.0012,2.8664,1.3640,3.0339
2024-10-11T13:48:36.745Z,0.0058,-0.9753,0.1965,0.1850,-0.0460,0.0694,0.0045,0.0436,-0.0043,2.8664,1.3640,3.0339
2024-10-11T13:48:36.755Z,0.0120,-0.9757,0.1971,0.0978,-0.0254,0.0741,0.0053,0.0451,-0.0032,2.8661,1.3638,3.0353
2024-10-11T13:48:36.765Z,0.0155,-0.9785,0.1976,0.0978,-0.0254,0.0741,0.0045,0.0450,-0.0045,2.8661,1.3638,3.0353
2024-10-11T13:48:36.774Z,0.0193,-0.9781,0.1973,0.0978,-0.0254,0.0741,0.0018,0.0435,-0.0057,2.8661,1.3638,3.0353
2024-10-11T13:48:36.784Z,0.0224,-0.9800,0.1992,-0.0098,0.0082,0.0483,0.0045,0.0405,-0.0046,2.8662,1.3637,3.0361
2024-10-11T13:48:36.794Z,0.0211,-0.9805,0.2005,-0.0098,0.0082,0.0483,0.0034,0.0382,-0.0047,2.8662,1.3637,3.0361
2024-10-11T13:48:36.804Z,0.0217,-0.9806,0.2011,-0.0098,0.0082,0.0483,0.0017,0.0368,-0.0069,2.8662,1.3637,3.0361
2024-10-11T13:48:36.815Z,0.0218,-0.9802,0.2021,-0.0004,0.0170,0.0248,0.0024,0.0331,-0.0061,2.8664,1.3636,3.0367
2024-10-11T13:48:36.824Z,0.0201,-0.9807,0.2016,-0.0004,0.0170,0.0248,0.0021,0.0324,-0.0050,2.8664,1.3636,3.0367
2024-10-11T13:48:36.834Z,0.0207,-0.9802,0.2024,-0.0004,0.0170,0.0248,0.0043,0.0366,-0.0063,2.8664,1.3636,3.0367
2024-10-11T13:48:36.844Z,0.0220,-0.9806,0.2011,-0.0021,0.0163,0.0305,0.0027,0.0382,-0.0054,2.8667,1.3634,3.0373
2024-10-11T13:48:36.854Z,0.0238,-0.9813,0.2020,-0.0021,0.0163,0.0305,0.0030,0.0430,-0.0051,2.8667,1.3634,3.0373
2024-10-11T13:48:36.865Z,0.0267,-0.9795,0.2054,-0.0021,0.0163,0.0305,0.0043,0.0425,-0.0028,2.8667,1.3634,3.0373
2024-10-11T13:48:36.874Z,0.0271,-0.9786,0.2060,-0.0628,-0.0037,-0.0116,0.0016,0.0417,-0.0015,2.8669,1.3633,3.0382
2024-10-11T13:48:36.884Z,0.0283,-0.9782,0.2058,-0.0628,-0.0037,-0.0116,0.0027,0.0398,0.0002,2.8669,1.3633,3.0382
2024-10-11T13:48:36.896Z,0.0270,-0.9784,0.2077,-0.0628,-0.0037,-0.0116,-0.0005,0.0407,-0.0005,2.8669,1.3633,3.0382
2024-10-11T13:48:36.904Z,0.0237,-0.9785,0.2067,-0.0304,0.0067,-0.0241,-0.0005,0.0407,-0.0005,2.8664,1.3633,3.0396
2024-10-11T13:48:36.915Z,0.0228,-0.9785,0.2073,-0.0304,0.0067,-0.0241,-0.0006,0.0458,-0.0001,2.8664,1.3633,3.0396
2024-10-11T13:48:36.924Z,0.0193,-0.9795,0.2069,-0.0304,0.0067,-0.0241,-0.0009,0.0454,0.0001,2.8664,1.3633,3.0396
2024-10-11T13:48:36.935Z,0.0205,-0.9789,0.2032,-0.0041,0.0007,0.0185,-0.0018,0.0440,0.0004,2.8663,1.3633,3.0406
2024-10-11T13:48:36.945Z,0.0194,-0.9778,0.2039,-0.0041,0.0007,0.0185,0.0002,0.0384,-0.0014,2.8663,1.3633,3.0406
2024-10-11T13:48:36.954Z,0.0212,-0.9776,0.2018,-0.0041,0.0007,0.0185,0.0002,0.0384,-0.0014,2.8663,1.3633,3.0406
2024-10-11T13:48:36.966Z,0.0234,-0.9785,0.2002,-0.0213,0.0022,0.0419,-0.0012,0.0345,-0.0032,2.8669,1.3633,3.0409
2024-10-11T13:48:36.974Z,0.0229,-0.9774,0.2011,-0.0213,0.0022,0.0419,0.0021,0.0302,-0.0036,2.8669,1.3633,3.0409
2024-10-11T13:48:36.986Z,0.0211,-0.9789,0.2004,-0.0213,0.0022,0.0419,0.0026,0.0268,-0.0065,2.8669,1.3633,3.0409
2024-10-11T13:48:36.994Z,0.0217,-0.9781,0.2023,-0.0134,-0.0033,0.0238,0.0026,0.0268,-0.0065,2.8678,1.3632,3.0406
2024-10-11T13:48:37.005Z,0.0224,-0.9798,0.2032,-0.0134,-0.0033,0.0238,0.0021,0.0267,-0.0060,2.8678,1.3632,3.0406
2024-10-11T13:48:37.015Z,0.0226,-0.9812,0.2040,-0.0134,-0.0033,0.0238,0.0021,0.0267,-0.0060,2.8678,1.3632,3.0406
2024-10-11T13:48:37.025Z,0.0251,-0.9817,0.2005,-0.0468,0.0366,0.0542,0.0019,0.0198,-0.0092,2.8687,1.3632,3.0402
2024-10-11T13:48:37.035Z,0.0274,-0.9821,0.1983,-0.0468,0.0366,0.0542,0.0041,0.0206,-0.0112,2.8687,1.3632,3.0402
2024-10-11T13:48:37.045Z,0.0261,-0.9797,0.1956,-0.0468,0.0366,0.0542,0.0046,0.0178,-0.0083,2.8687,1.3632,3.0402
2024-10-11T13:48:37.055Z,0.0253,-0.9802,0.1914,-0.0435,0.0129,0.1334,0.0055,0.0236,-0.0073,2.8698,1.3631,3.0394
2024-10-11T13:48:37.065Z,0.0246,-0.9780,0.1908,-0.0435,0.0129,0.1334,0.0055,0.0236,-0.0073,2.8698,1.3631,3.0394
2024-10-11T13:48:37.075Z,0.0236,-0.9777,0.1907,-0.0435,0.0129,0.1334,0.0051,0.0305,-0.0061,2.8698,1.3631,3.0394
2024-10-11T13:48:37.085Z,0.0265,-0.9774,0.1891,-0.0576,-0.0133,0.1592,0.0043,0.0342,-0.0051,2.8704,1.3629,3.0394
2024-10-11T13:48:37.095Z,0.0279,-0.9781,0.1898,-0.0576,-0.0133,0.1592,0.0076,0.0393,-0.0016,2.8704,1.3629,3.0394
2024-10-11T13:48:37.105Z,0.0289,-0.9772,0.1911,-0.0576,-0.0133,0.1592,0.0099,0.0430,-0.0011,2.8704,1.3629,3.0394
2024-10-11T13:48:37.117Z,0.0294,-0.9780,0.1932,-0.0796,-0.0003,0.1144,0.0097,0.0467,0.0006,2.8706,1.3626,3.0402
2024-10-11T13:48:37.125Z,0.0310,-0.9777,0.1949,-0.0796,-0.0003,0.1144,0.0084,0.0514,-0.0001,2.8706,1.3626,3.0402
2024-10-11T13:48:37.135Z,0.0274,-0.9734,0.1961,-0.0796,-0.0003,0.1144,0.0068,0.0532,-0.0016,2.8706,1.3626,3.0402
2024-10-11T13:48:37.145Z,0.0284,-0.9745,0.1978,-0.0768,-0.0375,0.0751,0.0065,0.0535,0.0002,2.8703,1.3624,3.0417
2024-10-11T13:48:37.155Z,0.0264,-0.9741,0.1996,-0.0768,-0.0375,0.0751,0.0073,0.0521,0.0022,2.8703,1.3624,3.0417
2024-10-11T13:48:37.165Z,0.0277,-0.9738,0.2016,-0.0768,-0.0375,0.0751,0.0053,0.0520,0.0023,2.8703,1.3624,3.0417
2024-10-11T13:48:37.174Z,0.0230,-0.9749,0.2036,-0.0232,-0.0380,0.0192,0.0053,0.0520,0.0023,2.8700,1.3622,3.0433
2024-10-11T13:48:37.185Z,0.0242,-0.9763,0.2052,-0.0232,-0.0380,0.0192,0.0055,0.0512,0.0002,2.8700,1.3622,3.0433
2024-10-11T13:48:37.195Z,0.0237,-0.9780,0.2036,-0.0232,-0.0380,0.0192,0.0044,0.0500,0.0001,2.8700,1.3622,3.0433
2024-10-11T13:48:37.205Z,0.0221,-0.9801,0.2047,-0.0224,0.0180,0.0065,0.0046,0.0451,-0.0034,2.8699,1.3621,3.0445
2024-10-11T13:48:37.217Z,0.0220,-0.9796,0.2064,-0.0224,0.0180,0.0065,0.0024,0.0468,-0.0030,2.8699,1.3621,3.0445
2024-10-11T13:48:37.225Z,0.0197,-0.9827,0.2083,-0.0224,0.0180,0.0065,0.0055,0.0436,-0.0037,2.8699,1.3621,3.0445
2024-10-11T13:48:37.234Z,0.0225,-0.9840,0.2087,-0.0284,0.0631,-0.0234,0.0064,0.0419,-0.0035,2.8702,1.3619,3.0454
2024-10-11T13:48:37.245Z,0.0249,-0.9837,0.2087,-0.0284,0.0631,-0.0234,0.0051,0.0408,-0.0056,2.8702,1.3619,3.0454
2024-10-11T13:48:37.254Z,0.0279,-0.9832,0.2084,-0.0284,0.0631,-0.0234,0.0033,0.0362,-0.0046,2.8702,1.3619,3.0454
2024-10-11T13:48:37.266Z,0.0322,-0.9850,0.2070,-0.1214,0.0654,-0.0027,0.0050,0.0335,-0.0073,2.8707,1.3617,3.0458
2024-10-11T13:48:37.274Z,0.0337,-0.9845,0.2075,-0.1214,0.0654,-0.0027,0.0043,0.0286,-0.0063,2.8707,1.3617,3.0458
2024-10-11T13:48:37.285Z,0.0345,-0.9832,0.2092,-0.1214,0.0654,-0.0027,0.0047,0.0254,-0.0048,2.8707,1.3617,3.0458
2024-10-11T13:48:37.295Z,0.0337,-0.9845,0.2092,-0.1396,0.0658,-0.0238,0.0055,0.0197,-0.0077,2.8714,1.3615,3.0456
2024-10-11T13:48:37.304Z,0.0318,-0.9839,0.2104,-0.1396,0.0658,-0.0238,0.0050,0.0209,-0.0071,2.8714,1.3615,3.0456
2024-10-11T13:48:37.316Z,0.0288,-0.9805,0.2099,-0.1396,0.0658,-0.0238,0.0018,0.0225,-0.0082,2.8714,1.3615,3.0456
2024-10-11T13:48:37.324Z,0.0283,-0.9807,0.2112,-0.0770,0.0280,-0.0440,0.0016,0.0187,-0.0072,2.8723,1.3613,3.0452
2024-10-11T13:48:37.335Z,0.0235,-0.9777,0.2137,-0.0770,0.0280,-0.0440,0.0038,0.0201,-0.0100,2.8723,1.3613,3.0452
2024-10-11T13:48:37.345Z,0.0233,-0.9769,0.2160,-0.0770,0.0280,-0.0440,-0.0008,0.0158,-0.0116,2.8723,1.3613,3.0452
2024-10-11T13:48:37.354Z,0.0214,-0.9770,0.2170,-0.0135,-0.0126,-0.0990,-0.0008,0.0158,-0.0116,2.8737,1.3612,3.0441
2024-10-11T13:48:37.364Z,0.0191,-0.9729,0.2158,-0.0135,-0.0126,-0.0990,-0.0036,0.0117,-0.0103,2.8737,1.3612,3.0441
2024-10-11T13:48:37.374Z,0.0195,-0.9748,0.2133,-0.0135,-0.0126,-0.0990,-0.0023,0.0086,-0.0117,2.8737,1.3612,3.0441
2024-10-11T13:48:37.385Z,0.0207,-0.9731,0.2116,-0.0033,-0.0485,-0.0438,0.0004,0.0097,-0.0123,2.8752,1.3612,3.0427
2024-10-11T13:48:37.395Z,0.0239,-0.9734,0.2101,-0.0033,-0.0485,-0.0438,-0.0028,0.0091,-0.0134,2.8752,1.3612,3.0427
2024-10-11T13:48:37.405Z,0.0246,-0.9738,0.2117,-0.0033,-0.0485,-0.0438,-0.0022,0.0116,-0.0132,2.8752,1.3612,3.0427
2024-10-11T13:48:37.414Z,0.0263,-0.9749,0.2111,-0.0608,-0.0275,-0.0384,-0.0008,0.0105,-0.0147,2.8771,1.3612,3.0409
2024-10-11T13:48:37.424Z,0.0298,-0.9756,0.2082,-0.0608,-0.0275,-0.0384,-0.0047,0.0122,-0.0114,2.8771,1.3612,3.0409
2024-10-11T13:48:37.435Z,0.0285,-0.9774,0.2104,-0.0608,-0.0275,-0.0384,-0.0005,0.0158,-0.0119,2.8771,1.3612,3.0409
2024-10-11T13:48:37.444Z,0.0272,-0.9793,0.2090,-0.0537,0.0153,-0.0297,-0.0029,0.0167,-0.0123,2.8789,1.3611,3.0393
2024-10-11T13:48:37.454Z,0.0289,-0.9814,0.2140,-0.0537,0.0153,-0.0297,-0.0009,0.0179,-0.0094,2.8789,1.3611,3.0393
2024-10-11T13:48:37.464Z,0.0312,-0.9818,0.2129,-0.0537,0.0153,-0.0297,-0.0034,0.0198,-0.0093,2.8789,1.3611,3.0393
2024-10-11T13:48:37.474Z,0.0310,-0.9803,0.2119,-0.0915,0.0150,-0.0393,-0.0039,0.0216,-0.0074,2.8803,1.3611,3.0382
2024-10-11T13:48:37.484Z,0.0319,-0.9781,0.2128,-0.0915,0.0150,-0.0393,-0.0034,0.0222,-0.0084,2.8803,1.3611,3.0382
2024-10-11T13:48:37.494Z,0.0329,-0.9789,0.2126,-0.0915,0.0150,-0.0393,-0.0025,0.0232,-0.0077,2.8803,1.3611,3.0382
2024-10-11T13:48:37.505Z,0.0334,-0.9783,0.2134,-0.1165,-0.0019,-0.0584,-0.0056,0.0244,-0.0080,2.8813,1.3611,3.0376
2024-10-11T13:48:37.514Z,0.0329,-0.9793,0.2149,-0.1165,-0.0019,-0.0584,-0.0044,0.0234,-0.0050,2.8813,1.3611,3.0376
2024-10-11T13:48:37.524Z,0.0312,-0.9790,0.2156,-0.1165,-0.0019,-0.0584,-0.0030,0.0214,-0.0046,2.8813,1.3611,3.0376
2024-10-11T13:48:37.534Z,0.0298,-0.9799,0.2139,-0.0850,0.0286,-0.0709,-0.0035,0.0206,-0.0051,2.8820,1.3611,3.0373
2024-10-11T13:48:37.544Z,0.0305,-0.9823,0.2152,-0.0850,0.0286,-0.0709,-0.0064,0.0185,-0.0065,2.8820,1.3611,3.0373
2024-10-11T13:48:37.554Z,0.0292,-0.9811,0.2154,-0.0850,0.0286,-0.0709,-0.0037,0.0172,-0.0049,2.8820,1.3611,3.0373
2024-10-11T13:48:37.564Z,0.0301,-0.9809,0.2169,-0.0863,0.0295,-0.1000,-0.0070,0.0148,-0.0060,2.8836,1.3611,3.0360
2024-10-11T13:48:37.574Z,0.0275,-0.9796,0.2168,-0.0863,0.0295,-0.1000,-0.0039,0.0127,-0.0042,2.8836,1.3611,3.0360
2024-10-11T13:48:37.584Z,0.0253,-0.9796,0.2178,-0.0863,0.0295,-0.1000,-0.0039,0.0127,-0.0042,2.8836,1.3611,3.0360
2024-10-11T13:48:37.594Z,0.0274,-0.9804,0.2162,-0.0511,0.0212,-0.0865,-0.0106,0.0107,-0.0059,2.8858,1.3609,3.0339
2024-10-11T13:48:37.604Z,0.0233,-0.9800,0.2159,-0.0511,0.0212,-0.0865,-0.0098,0.0149,-0.0069,2.8858,1.3609,3.0339
2024-10-11T13:48:37.615Z,0.0212,-0.9796,0.2141,-0.0511,0.0212,-0.0865,-0.0107,0.0143,-0.0090,2.8858,1.3609,3.0339
2024-10-11T13:48:37.624Z,0.0199,-0.9787,0.2081,0.0308,0.0042,-0.0135,-0.0084,0.0155,-0.0077,2.8873,1.3611,3.0326
2024-10-11T13:48:37.635Z,0.0147,-0.9795,0.2074,0.0308,0.0042,-0.0135,-0.0080,0.0157,-0.0061,2.8873,1.3611,3.0326
2024-10-11T13:48:37.644Z,0.0165,-0.9811,0.2067,0.0308,0.0042,-0.0135,-0.0106,0.0137,-0.0096,2.8873,1.3611,3.0326
2024-10-11T13:48:37.654Z,0.0127,-0.9808,0.2081,0.1059,0.0256,-0.0157,-0.0096,0.0141,-0.0102,2.8886,1.3612,3.0315
2024-10-11T13:48:37.664Z,0.0136,-0.9799,0.2086,0.1059,0.0256,-0.0157,-0.0103,0.0129,-0.0134,2.8886,1.3612,3.0315
2024-10-11T13:48:37.674Z,0.0142,-0.9800,0.2066,0.1059,0.0256,-0.0157,-0.0104,0.0116,-0.0145,2.8886,1.3612,3.0315
2024-10-11T13:48:37.685Z,0.0132,-0.9780,0.2053,0.0949,-0.0079,0.0156,-0.0104,0.0154,-0.0145,2.8902,1.3614,3.0301
2024-10-11T13:48:37.694Z,0.0147,-0.9754,0.2044,0.0949,-0.0079,0.0156,-0.0090,0.0118,-0.0168,2.8902,1.3614,3.0301
2024-10-11T13:48:37.704Z,0.0149,-0.9747,0.2030,0.0949,-0.0079,0.0156,-0.0079,0.0125,-0.0185,2.8902,1.3614,3.0301
2024-10-11T13:48:37.714Z,0.0196,-0.9735,0.2011,0.0275,-0.0449,0.0539,-0.0084,0.0130,-0.0186,2.8924,1.3616,3.0281
2024-10-11T13:48:37.724Z,0.0238,-0.9731,0.1981,0.0275,-0.0449,0.0539,-0.0066,0.0105,-0.0163,2.8924,1.3616,3.0281
2024-10-11T13:48:37.735Z,0.0283,-0.9724,0.2003,0.0275,-0.0449,0.0539,-0.0038,0.0037,-0.0165,2.8924,1.3616,3.0281
2024-10-11T13:48:37.744Z,0.0326,-0.9698,0.2026,-0.0833,-0.0831,0.0321,-0.0056,0.0051,-0.0187,2.8947,1.3618,3.0258
2024-10-11T13:48:37.754Z,0.0346,-0.9721,0.2028,-0.0833,-0.0831,0.0321,-0.0021,0.0030,-0.0164,2.8947,1.3618,3.0258
2024-10-11T13:48:37.764Z,0.0366,-0.9713,0.1988,-0.0833,-0.0831,0.0321,-0.0037,0.0011,-0.0147,2.8947,1.3618,3.0258
2024-10-11T13:48:37.774Z,0.0397,-0.9711,0.1997,-0.1469,-0.0648,0.0540,-0.0023,0.0026,-0.0162,2.8967,1.3618,3.0237
2024-10-11T13:48:37.785Z,0.0414,-0.9723,0.2000,-0.1469,-0.0648,0.0540,-0.0023,0.0027,-0.0146,2.8967,1.3618,3.0237
2024-10-11T13:48:37.794Z,0.0450,-0.9726,0.2013,-0.1469,-0.0648,0.0540,-0.0036,0.0021,-0.0160,2.8967,1.3618,3.0237
2024-10-11T13:48:37.804Z,0.0457,-0.9736,0.2026,-0.2015,-0.0506,0.0310,-0.0004,0.0004,-0.0151,2.8985,1.3618,3.0217
2024-10-11T13:48:37.814Z,0.0466,-0.9741,0.2037,-0.2015,-0.0506,0.0310,0.0012,-0.0050,-0.0113,2.8985,1.3618,3.0217
2024-10-11T13:48:37.824Z,0.0464,-0.9749,0.2057,-0.2015,-0.0506,0.0310,-0.0006,-0.0072,-0.0083,2.8985,1.3618,3.0217
2024-10-11T13:48:37.835Z,0.0471,-0.9749,0.2069,-0.2131,-0.0264,-0.0031,-0.0013,-0.0073,-0.0038,2.8998,1.3618,3.0200
2024-10-11T13:48:37.844Z,0.0439,-0.9771,0.2055,-0.2131,-0.0264,-0.0031,-0.0036,-0.0089,-0.0049,2.8998,1.3618,3.0200
2024-10-11T13:48:37.855Z,0.0414,-0.9801,0.2073,-0.2131,-0.0264,-0.0031,0.0037,-0.0098,-0.0072,2.8998,1.3618,3.0200
2024-10-11T13:48:37.864Z,0.0379,-0.9784,0.2050,-0.1199,0.0077,0.0121,0.0011,-0.0121,-0.0075,2.9008,1.3617,3.0186
2024-10-11T13:48:37.874Z,0.0366,-0.9790,0.2038,-0.1199,0.0077,0.0121,-0.0010,-0.0085,-0.0083,2.9008,1.3617,3.0186
2024-10-11T13:48:37.885Z,0.0343,-0.9790,0.2056,-0.1199,0.0077,0.0121,0.0013,-0.0089,-0.0063,2.9008,1.3617,3.0186
2024-10-11T13:48:37.894Z,0.0339,-0.9779,0.2034,-0.0804,-0.0028,0.0354,-0.0005,-0.0097,-0.0059,2.9019,1.3616,3.0169
2024-10-11T13:48:37.904Z,0.0323,-0.9769,0.2010,-0.0804,-0.0028,0.0354,0.0001,-0.0088,-0.0090,2.9019,1.3616,3.0169
2024-10-11T13:48:37.914Z,0.0347,-0.9766,0.2017,-0.0804,-0.0028,0.0354,0.0004,-0.0104,-0.0076,2.9019,1.3616,3.0169
2024-10-11T13:48:37.924Z,0.0363,-0.9760,0.2008,-0.1024,-0.0285,0.0513,0.0022,-0.0123,-0.0067,2.9031,1.3616,3.0152
2024-10-11T13:48:37.935Z,0.0374,-0.9765,0.1988,-0.1024,-0.0285,0.0513,0.0018,-0.0153,-0.0059,2.9031,1.3616,3.0152
2024-10-11T13:48:37.944Z,0.0361,-0.9763,0.1977,-0.1024,-0.0285,0.0513,0.0051,-0.0131,-0.0057,2.9031,1.3616,3.0152
2024-10-11T13:48:37.954Z,0.0370,-0.9763,0.1974,-0.1020,-0.0177,0.0821,0.0038,-0.0130,-0.0041,2.9038,1.3614,3.0139
2024-10-11T13:48:37.964Z,0.0364,-0.9768,0.1973,-0.1020,-0.0177,0.0821,0.0043,-0.0115,-0.0047,2.9038,1.3614,3.0139
2024-10-11T13:48:37.974Z,0.0353,-0.9778,0.1955,-0.1020,-0.0177,0.0821,0.0031,-0.0054,-0.0047,2.9038,1.3614,3.0139
2024-10-11T13:48:37.985Z,0.0332,-0.9779,0.1928,-0.0662,0.0016,0.1227,0.0066,-0.0037,0.0005,2.9042,1.3613,3.0129
2024-10-11T13:48:37.994Z,0.0326,-0.9786,0.1945,-0.0662,0.0016,0.1227,0.0045,-0.0004,0.0005,2.9042,1.3613,3.0129
2024-10-11T13:48:38.004Z,0.0352,-0.9784,0.1950,-0.0662,0.0016,0.1227,0.0061,0.0011,-0.0012,2.9042,1.3613,3.0129
2024-10-11T13:48:38.013Z,0.0364,-0.9794,0.1977,-0.0956,0.0121,0.0790,0.0066,0.0018,0.0004,2.9042,1.3612,3.0126
2024-10-11T13:48:38.024Z,0.0376,-0.9810,0.1987,-0.0956,0.0121,0.0790,0.0080,0.0008,0.0043,2.9042,1.3612,3.0126
2024-10-11T13:48:38.034Z,0.0373,-0.9815,0.2005,-0.0956,0.0121,0.0790,0.0067,0.0023,0.0027,2.9042,1.3612,3.0126
2024-10-11T13:48:38.044Z,0.0359,-0.9827,0.2021,-0.0912,0.0501,0.0411,0.0065,0.0038,0.0040,2.9040,1.3610,3.0126
2024-10-11T13:48:38.054Z,0.0371,-0.9828,0.2051,-0.0912,0.0501,0.0411,0.0053,0.0035,0.0088,2.9040,1.3610,3.0126
2024-10-11T13:48:38.064Z,0.0367,-0.9839,0.2059,-0.0912,0.0501,0.0411,0.0056,0.0069,0.0087,2.9040,1.3610,3.0126
2024-10-11T13:48:38.075Z,0.0351,-0.9822,0.2051,-0.0862,0.0433,0.0203,0.0034,0.0062,0.0085,2.9031,1.3610,3.0134
2024-10-11T13:48:38.084Z,0.0332,-0.9838,0.2065,-0.0862,0.0433,0.0203,0.0029,0.0089,0.0089,2.9031,1.3610,3.0134
2024-10-11T13:48:38.094Z,0.0312,-0.9828,0.2076,-0.0862,0.0433,0.0203,0.0015,0.0073,0.0070,2.9031,1.3610,3.0134
2024-10-11T13:48:38.104Z,0.0270,-0.9826,0.2063,-0.0022,0.0450,0.0045,0.0007,0.0071,0.0099,2.9017,1.3610,3.0146
2024-10-11T13:48:38.114Z,0.0268,-0.9827,0.2052,-0.0022,0.0450,0.0045,0.0036,0.0068,0.0106,2.9017,1.3610,3.0146
2024-10-11T13:48:38.124Z,0.0262,-0.9827,0.2039,-0.0022,0.0450,0.0045,0.0011,0.0045,0.0116,2.9017,1.3610,3.0146
2024-10-11T13:48:38.135Z,0.0260,-0.9832,0.2030,0.0067,0.0474,0.0378,-0.0009,0.0046,0.0122,2.9004,1.3610,3.0159
2024-10-11T13:48:38.144Z,0.0262,-0.9841,0.2001,0.0067,0.0474,0.0378,-0.0002,0.0035,0.0113,2.9004,1.3610,3.0159
2024-10-11T13:48:38.154Z,0.0259,-0.9839,0.2021,0.0067,0.0474,0.0378,-0.0041,0.0059,0.0069,2.9004,1.3610,3.0159
2024-10-11T13:48:38.164Z,0.0259,-0.9832,0.2023,-0.0039,0.0407,0.0392,-0.0038,0.0023,0.0082,2.8992,1.3611,3.0169
2024-10-11T13:48:38.174Z,0.0267,-0.9831,0.2012,-0.0039,0.0407,0.0392,-0.0028,0.0025,0.0083,2.8992,1.3611,3.0169
2024-10-11T13:48:38.184Z,0.0266,-0.9852,0.2019,-0.0039,0.0407,0.0392,-0.0042,0.0045,0.0077,2.8992,1.3611,3.0169
2024-10-11T13:48:38.194Z,0.0305,-0.9843,0.2008,-0.0506,0.0573,0.0569,-0.0046,0.0028,0.0061,2.8981,1.3612,3.0178
2024-10-11T13:48:38.204Z,0.0291,-0.9827,0.1999,-0.0506,0.0573,0.0569,-0.0055,0.0024,0.0039,2.8981,1.3612,3.0178
2024-10-11T13:48:38.214Z,0.0329,-0.9820,0.2002,-0.0506,0.0573,0.0569,-0.0047,-0.0024,0.0069,2.8981,1.3612,3.0178
2024-10-11T13:48:38.224Z,0.0318,-0.9817,0.2021,-0.0592,0.0345,0.0435,-0.0053,-0.0017,0.0067,2.8971,1.3614,3.0186
2024-10-11T13:48:38.234Z,0.0323,-0.9812,0.2016,-0.0592,0.0345,0.0435,-0.0070,-0.0035,0.0082,2.8971,1.3614,3.0186
2024-10-11T13:48:38.244Z,0.0322,-0.9798,0.2038,-0.0592,0.0345,0.0435,-0.0079,-0.0015,0.0048,2.8971,1.3614,3.0186
2024-10-11T13:48:38.254Z,0.0304,-0.9793,0.2061,-0.0461,0.0114,-0.0051,-0.0086,-0.0041,0.0064,2.8961,1.3617,3.0192
2024-10-11T13:48:38.264Z,0.0310,-0.9796,0.2071,-0.0461,0.0114,-0.0051,-0.0087,-0.0057,0.0063,2.8961,1.3617,3.0192
2024-10-11T13:48:38.274Z,0.0323,-0.9798,0.2082,-0.0461,0.0114,-0.0051,-0.0106,-0.0066,0.0038,2.8961,1.3617,3.0192
2024-10-11T13:48:38.285Z,0.0336,-0.9827,0.2045,-0.0839,0.0336,0.0124,-0.0110,-0.0095,0.0054,2.8957,1.3621,3.0191
2024-10-11T13:48:38.295Z,0.0346,-0.9807,0.2042,-0.0839,0.0336,0.0124,-0.0101,-0.0099,0.0027,2.8957,1.3621,3.0191
2024-10-11T13:48:38.304Z,0.0331,-0.9823,0.2023,-0.0839,0.0336,0.0124,-0.0094,-0.0112,0.0052,2.8957,1.3621,3.0191
2024-10-11T13:48:38.314Z,0.0326,-0.9813,0.1998,-0.0793,0.0269,0.0614,-0.0102,-0.0131,0.0064,2.8955,1.3625,3.0187
2024-10-11T13:48:38.324Z,0.0320,-0.9790,0.1964,-0.0793,0.0269,0.0614,-0.0087,-0.0117,0.0018,2.8955,1.3625,3.0187
2024-10-11T13:48:38.334Z,0.0317,-0.9776,0.1954,-0.0793,0.0269,0.0614,-0.0078,-0.0131,0.0069,2.8955,1.3625,3.0187
2024-10-11T13:48:38.344Z,0.0302,-0.9756,0.1965,-0.0379,-0.0317,0.0897,-0.0051,-0.0131,0.0061,2.8949,1.3627,3.0186
2024-10-11T13:48:38.354Z,0.0283,-0.9750,0.1956,-0.0379,-0.0317,0.0897,-0.0081,-0.0101,0.0058,2.8949,1.3627,3.0186
2024-10-11T13:48:38.364Z,0.0281,-0.9756,0.1960,-0.0379,-0.0317,0.0897,-0.0072,-0.0088,0.0067,2.8949,1.3627,3.0186
2024-10-11T13:48:38.374Z,0.0280,-0.9740,0.1962,-0.0297,-0.0422,0.0895,-0.0040,-0.0077,0.0076,2.8943,1.3629,3.0187
2024-10-11T13:48:38.384Z,0.0300,-0.9739,0.1982,-0.0297,-0.0422,0.0895,-0.0065,-0.0054,0.0089,2.8943,1.3629,3.0187
2024-10-11T13:48:38.394Z,0.0320,-0.9720,0.2016,-0.0297,-0.0422,0.0895,-0.0043,-0.0029,0.0086,2.8943,1.3629,3.0187
2024-10-11T13:48:38.403Z,0.0312,-0.9737,0.2015,-0.0516,-0.0504,0.0332,-0.0040,-0.0015,0.0094,2.8932,1.3631,3.0194
2024-10-11T13:48:38.414Z,0.0310,-0.9724,0.2022,-0.0516,-0.0504,0.0332,-0.0031,-0.0008,0.0102,2.8932,1.3631,3.0194
2024-10-11T13:48:38.424Z,0.0324,-0.9753,0.2016,-0.0516,-0.0504,0.0332,-0.0031,-0.0009,0.0112,2.8932,1.3631,3.0194
2024-10-11T13:48:38.434Z,0.0302,-0.9750,0.2016,-0.0518,-0.0320,0.0248,-0.0013,0.0018,0.0140,2.8916,1.3633,3.0207
2024-10-11T13:48:38.444Z,0.0308,-0.9781,0.2035,-0.0518,-0.0320,0.0248,-0.0058,0.0050,0.0162,2.8916,1.3633,3.0207
2024-10-11T13:48:38.454Z,0.0281,-0.9814,0.2060,-0.0518,-0.0320,0.0248,-0.0013,0.0062,0.0123,2.8916,1.3633,3.0207
2024-10-11T13:48:38.464Z,0.0252,-0.9829,0.2053,-0.0054,0.0404,-0.0077,-0.0027,0.0077,0.0110,2.8897,1.3634,3.0224
2024-10-11T13:48:38.474Z,0.0232,-0.9817,0.2076,-0.0054,0.0404,-0.0077,-0.0034,0.0073,0.0132,2.8897,1.3634,3.0224
2024-10-11T13:48:38.484Z,0.0220,-0.9833,0.2097,-0.0054,0.0404,-0.0077,-0.0059,0.0105,0.0095,2.8897,1.3634,3.0224
2024-10-11T13:48:38.494Z,0.0219,-0.9802,0.2090,0.0211,0.0129,-0.0466,-0.0048,0.0075,0.0137,2.8880,1.3636,3.0241
2024-10-11T13:48:38.504Z,0.0232,-0.9800,0.2072,0.0211,0.0129,-0.0466,-0.0041,0.0085,0.0128,2.8880,1.3636,3.0241
2024-10-11T13:48:38.515Z,0.0223,-0.9795,0.2078,0.0211,0.0129,-0.0466,-0.0058,0.0068,0.0138,2.8880,1.3636,3.0241
2024-10-11T13:48:38.524Z,0.0227,-0.9780,0.2076,0.0135,-0.0070,-0.0318,-0.0021,0.0060,0.0141,2.8861,1.3637,3.0258
2024-10-11T13:48:38.534Z,0.0222,-0.9784,0.2080,0.0135,-0.0070,-0.0318,-0.0066,0.0077,0.0113,2.8861,1.3637,3.0258
2024-10-11T13:48:38.544Z,0.0195,-0.9762,0.2084,0.0135,-0.0070,-0.0318,-0.0060,0.0074,0.0110,2.8861,1.3637,3.0258
2024-10-11T13:48:38.554Z,0.0180,-0.9769,0.2063,0.0513,-0.0148,-0.0202,-0.0066,0.0103,0.0103,2.8843,1.3639,3.0276
2024-10-11T13:48:38.564Z,0.0175,-0.9778,0.2069,0.0513,-0.0148,-0.0202,-0.0066,0.0132,0.0102,2.8843,1.3639,3.0276
2024-10-11T13:48:38.574Z,0.0173,-0.9792,0.2075,0.0513,-0.0148,-0.0202,-0.0062,0.0082,0.0108,2.8843,1.3639,3.0276
2024-10-11T13:48:38.584Z,0.0178,-0.9784,0.2082,0.0547,-0.0117,-0.0351,-0.0078,0.0099,0.0090,2.8828,1.3640,3.0291
2024-10-11T13:48:38.594Z,0.0180,-0.9768,0.2086,0.0547,-0.0117,-0.0351,-0.0084,0.0078,0.0068,2.8828,1.3640,3.0291
2024-10-11T13:48:38.604Z,0.0184,-0.9769,0.2094,0.0547,-0.0117,-0.0351,-0.0080,0.0068,0.0051,2.8828,1.3640,3.0291
2024-10-11T13:48:38.614Z,0.0174,-0.9761,0.2065,0.0465,-0.0326,-0.0213,-0.0050,0.0010,0.0068,2.8816,1.3642,3.0302
2024-10-11T13:48:38.624Z,0.0185,-0.9770,0.2065,0.0465,-0.0326,-0.0213,-0.0063,0.0011,0.0045,2.8816,1.3642,3.0302
2024-10-11T13:48:38.634Z,0.0173,-0.9767,0.2044,0.0465,-0.0326,-0.0213,-0.0050,-0.0006,0.0051,2.8816,1.3642,3.0302
2024-10-11T13:48:38.644Z,0.0190,-0.9790,0.2023,0.0343,0.0045,0.0132,-0.0043,0.0010,0.0028,2.8796,1.3642,3.0320
2024-10-11T13:48:38.654Z,0.0230,-0.9795,0.2014,0.0343,0.0045,0.0132,-0.0069,0.0001,0.0013,2.8796,1.3642,3.0320
2024-10-11T13:48:38.664Z,0.0231,-0.9802,0.1994,0.0343,0.0045,0.0132,-0.0030,-0.0013,0.0021,2.8796,1.3642,3.0320
2024-10-11T13:48:38.674Z,0.0248,-0.9798,0.1974,-0.0262,0.0104,0.0663,-0.0050,-0.0045,0.0021,2.8786,1.3643,3.0327
2024-10-11T13:48:38.685Z,0.0259,-0.9804,0.1981,-0.0262,0.0104,0.0663,-0.0068,-0.0036,0.0024,2.8786,1.3643,3.0327
2024-10-11T13:48:38.694Z,0.0278,-0.9799,0.1982,-0.0262,0.0104,0.0663,-0.0037,-0.0043,0.0039,2.8786,1.3643,3.0327
2024-10-11T13:48:38.704Z,0.0291,-0.9778,0.1967,-0.0646,-0.0062,0.0688,-0.0021,-0.0025,0.0036,2.8778,1.3644,3.0332
2024-10-11T13:48:38.714Z,0.0297,-0.9787,0.1962,-0.0646,-0.0062,0.0688,-0.0024,-0.0016,0.0044,2.8778,1.3644,3.0332
2024-10-11T13:48:38.724Z,0.0290,-0.9763,0.1958,-0.0646,-0.0062,0.0688,-0.0008,-0.0002,0.0049,2.8778,1.3644,3.0332
2024-10-11T13:48:38.735Z,0.0281,-0.9731,0.1979,-0.0557,-0.0593,0.0543,-0.0007,0.0017,0.0072,2.8766,1.3644,3.0341
2024-10-11T13:48:38.744Z,0.0272,-0.9731,0.1969,-0.0557,-0.0593,0.0543,-0.0013,0.0056,0.0081,2.8766,1.3644,3.0341
2024-10-11T13:48:38.754Z,0.0269,-0.9741,0.1945,-0.0557,-0.0593,0.0543,-0.0006,0.0070,0.0074,2.8766,1.3644,3.0341
2024-10-11T13:48:38.764Z,0.0270,-0.9724,0.1944,-0.0515,-0.0580,0.1006,-0.0001,0.0072,0.0077,2.8753,1.3645,3.0352
2024-10-11T13:48:38.774Z,0.0262,-0.9733,0.1942,-0.0515,-0.0580,0.1006,0.0003,0.0111,0.0107,2.8753,1.3645,3.0352
2024-10-11T13:48:38.784Z,0.0267,-0.9736,0.1942,-0.0515,-0.0580,0.1006,-0.0003,0.0084,0.0079,2.8753,1.3645,3.0352
2024-10-11T13:48:38.794Z,0.0249,-0.9745,0.1935,-0.0252,-0.0337,0.0953,0.0016,0.0099,0.0114,2.8744,1.3646,3.0361
2024-10-11T13:48:38.804Z,0.0210,-0.9766,0.1938,-0.0252,-0.0337,0.0953,-0.0005,0.0118,0.0077,2.8744,1.3646,3.0361
2024-10-11T13:48:38.814Z,0.0197,-0.9780,0.1965,-0.0252,-0.0337,0.0953,-0.0002,0.0097,0.0064,2.8744,1.3646,3.0361
2024-10-11T13:48:38.824Z,0.0188,-0.9798,0.1955,0.0237,0.0067,0.0742,0.0010,0.0065,0.0090,2.8735,1.3646,3.0369
2024-10-11T13:48:38.834Z,0.0213,-0.9818,0.1954,0.0237,0.0067,0.0742,-0.0015,0.0082,0.0051,2.8735,1.3646,3.0369
2024-10-11T13:48:38.844Z,0.0227,-0.9814,0.1961,0.0237,0.0067,0.0742,0.0017,0.0062,0.0050,2.8735,1.3646,3.0369
2024-10-11T13:48:38.854Z,0.0245,-0.9827,0.1944,-0.0347,0.0423,0.0848,0.0003,0.0066,0.0099,2.8726,1.3647,3.0377
2024-10-11T13:48:38.864Z,0.0275,-0.9834,0.1971,-0.0347,0.0423,0.0848,0.0016,0.0039,0.0069,2.8726,1.3647,3.0377
2024-10-11T13:48:38.874Z,0.0295,-0.9844,0.1995,-0.0347,0.0423,0.0848,0.0040,0.0025,0.0064,2.8726,1.3647,3.0377
2024-10-11T13:48:38.884Z,0.0269,-0.9856,0.1964,-0.0621,0.0640,0.0643,0.0023,0.0023,0.0088,2.8714,1.3646,3.0388
2024-10-11T13:48:38.894Z,0.0276,-0.9874,0.1992,-0.0621,0.0640,0.0643,0.0051,0.0017,0.0049,2.8714,1.3646,3.0388
2024-10-11T13:48:38.904Z,0.0273,-0.9846,0.1999,-0.0621,0.0640,0.0643,0.0031,0.0035,0.0067,2.8714,1.3646,3.0388
2024-10-11T13:48:38.914Z,0.0258,-0.9842,0.1999,-0.0513,0.0523,0.0301,-0.0012,0.0037,0.0062,2.8700,1.3646,3.0400
2024-10-11T13:48:38.924Z,0.0268,-0.9829,0.2019,-0.0513,0.0523,0.0301,-0.0005,0.0005,0.0087,2.8700,1.3646,3.0400
2024-10-11T13:48:38.935Z,0.0266,-0.9819,0.2036,-0.0513,0.0523,0.0301,-0.0021,0.0012,0.0082,2.8700,1.3646,3.0400
2024-10-11T13:48:38.944Z,0.0260,-0.9805,0.2042,-0.0465,0.0140,-0.0069,-0.0031,-0.0036,0.0068,2.8688,1.3646,3.0409
2024-10-11T13:48:38.955Z,0.0247,-0.9798,0.2071,-0.0465,0.0140,-0.0069,-0.0042,-0.0032,0.0078,2.8688,1.3646,3.0409
2024-10-11T13:48:38.965Z,0.0247,-0.9776,0.2091,-0.0465,0.0140,-0.0069,-0.0030,-0.0046,0.0071,2.8688,1.3646,3.0409
2024-10-11T13:48:38.974Z,0.0204,-0.9784,0.2091,-0.0004,-0.0036,-0.0598,-0.0048,-0.0030,0.0088,2.8677,1.3648,3.0415
2024-10-11T13:48:38.984Z,0.0193,-0.9776,0.2097,-0.0004,-0.0036,-0.0598,-0.0076,-0.0027,0.0063,2.8677,1.3648,3.0415
2024-10-11T13:48:38.994Z,0.0189,-0.9794,0.2076,-0.0004,-0.0036,-0.0598,-0.0060,-0.0022,0.0078,2.8677,1.3648,3.0415
2024-10-11T13:48:39.004Z,0.0195,-0.9813,0.2070,-0.0004,0.0187,-0.0390,-0.0070,-0.0041,0.0037,2.8668,1.3650,3.0420
2024-10-11T13:48:39.014Z,0.0196,-0.9786,0.2049,-0.0004,0.0187,-0.0390,-0.0071,-0.0042,0.0039,2.8668,1.3650,3.0420
2024-10-11T13:48:39.024Z,0.0166,-0.9804,0.2014,-0.0004,0.0187,-0.0390,-0.0096,-0.0019,0.0050,2.8668,1.3650,3.0420
2024-10-11T13:48:39.035Z,0.0130,-0.9811,0.2014,0.0649,0.0245,0.0145,-0.0075,0.0005,0.0028,2.8663,1.3652,3.0422
2024-10-11T13:48:39.044Z,0.0123,-0.9823,0.2000,0.0649,0.0245,0.0145,-0.0060,-0.0006,0.0005,2.8663,1.3652,3.0422
2024-10-11T13:48:39.054Z,0.0108,-0.9829,0.2005,0.0649,0.0245,0.0145,-0.0088,-0.0014,0.0008,2.8663,1.3652,3.0422
2024-10-11T13:48:39.064Z,0.0121,-0.9836,0.1981,0.0816,0.0464,0.0455,-0.0062,0.0018,0.0015,2.8659,1.3654,3.0423
2024-10-11T13:48:39.074Z,0.0152,-0.9846,0.1968,0.0816,0.0464,0.0455,-0.0039,0.0010,0.0032,2.8659,1.3654,3.0423
2024-10-11T13:48:39.085Z,0.0137,-0.9848,0.1961,0.0816,0.0464,0.0455,-0.0063,0.0022,-0.0010,2.8659,1.3654,3.0423
2024-10-11T13:48:39.094Z,0.0146,-0.9826,0.1942,0.0499,0.0310,0.0865,-0.0039,0.0031,-0.0013,2.8657,1.3655,3.0422
2024-10-11T13:48:39.105Z,0.0144,-0.9794,0.1957,0.0499,0.0310,0.0865,-0.0051,0.0024,-0.0014,2.8657,1.3655,3.0422
2024-10-11T13:48:39.114Z,0.0144,-0.9794,0.1957,0.0499,0.0310,0.0865,-0.0070,0.0029,-0.0028,2.8657,1.3655,3.0422
2024-10-11T13:48:39.124Z,0.0128,-0.9777,0.1969,0.0719,-0.0088,0.0566,-0.0068,0.0052,-0.0046,2.8659,1.3656,3.0419
2024-10-11T13:48:39.134Z,0.0135,-0.9768,0.1998,0.0719,-0.0088,0.0566,-0.0067,0.0052,-0.0068,2.8659,1.3656,3.0419
2024-10-11T13:48:39.146Z,0.0170,-0.9864,0.2066,0.0719,-0.0088,0.0566,-0.0057,0.0046,-0.0062,2.8659,1.3656,3.0419
2024-10-11T13:48:39.154Z,0.0170,-0.9864,0.2066,0.0331,0.0938,-0.0513,-0.0044,0.0032,-0.0069,2.8662,1.3658,3.0414
2024-10-11T13:48:39.164Z,0.0184,-1.0088,0.2038,0.0331,0.0938,-0.0513,-0.0047,0.0002,-0.0074,2.8662,1.3658,3.0414
2024-10-11T13:48:39.175Z,0.0214,-1.0236,0.2036,0.0331,0.0938,-0.0513,-0.0016,-0.0001,-0.0074,2.8662,1.3658,3.0414
2024-10-11T13:48:39.185Z,0.0194,-1.0182,0.2021,0.0151,0.3710,-0.0043,-0.0053,-0.0055,-0.0058,2.8670,1.3659,3.0404
2024-10-11T13:48:39.196Z,0.0215,-1.0076,0.2150,0.0151,0.3710,-0.0043,-0.0058,-0.0055,-0.0092,2.8670,1.3659,3.0404
2024-10-11T13:48:39.204Z,0.0215,-1.0076,0.2150,0.0151,0.3710,-0.0043,-0.0105,-0.0060,-0.0101,2.8670,1.3659,3.0404
2024-10-11T13:48:39.216Z,0.0183,-0.9920,0.2113,0.0064,0.2050,-0.0600,-0.0132,-0.0040,-0.0106,2.8681,1.3660,3.0389
2024-10-11T13:48:39.225Z,0.0235,-0.9861,0.2163,0.0064,0.2050,-0.0600,-0.0149,-0.0103,-0.0094,2.8681,1.3660,3.0389
2024-10-11T13:48:39.237Z,0.0235,-0.9861,0.2163,-0.0191,0.0179,-0.2282,-0.0178,-0.0099,-0.0083,2.8696,1.3664,3.0370
2024-10-11T13:48:39.244Z,0.0236,-0.9809,0.2248,-0.0191,0.0179,-0.2282,-0.0207,-0.0101,-0.0075,2.8696,1.3664,3.0370
2024-10-11T13:48:39.254Z,0.0225,-0.9765,0.2270,-0.0191,0.0179,-0.2282,-0.0241,-0.0124,-0.0108,2.8696,1.3664,3.0370
2024-10-11T13:48:39.266Z,0.0177,-0.9735,0.2085,-0.0191,0.0179,-0.2282,-0.0247,-0.0088,-0.0124,2.8696,1.3664,3.0370
2024-10-11T13:48:39.275Z,0.0212,-0.9851,0.2043,0.0400,-0.0481,-0.0559,-0.0223,-0.0087,-0.0121,2.8713,1.3670,3.0349
2024-10-11T13:48:39.285Z,0.0212,-0.9851,0.2043,0.0400,-0.0481,-0.0559,-0.0236,-0.0070,-0.0085,2.8713,1.3670,3.0349
2024-10-11T13:48:39.295Z,0.0242,-0.9784,0.1974,0.0400,-0.0481,-0.0559,-0.0206,-0.0048,-0.0107,2.8713,1.3670,3.0349
2024-10-11T13:48:39.305Z,0.0219,-0.9539,0.2043,-0.0127,-0.0410,0.0391,-0.0255,-0.0055,-0.0092,2.8730,1.3676,3.0327
2024-10-11T13:48:39.315Z,0.0235,-0.9558,0.2034,-0.0127,-0.0410,0.0391,-0.0284,-0.0034,-0.0077,2.8730,1.3676,3.0327
2024-10-11T13:48:39.325Z,0.0245,-0.9569,0.1957,-0.0127,-0.0410,0.0391,-0.0265,-0.0049,-0.0088,2.8730,1.3676,3.0327
2024-10-11T13:48:39.335Z,0.0245,-0.9569,0.1957,-0.0236,-0.2242,0.0429,-0.0292,-0.0031,-0.0081,2.8744,1.3684,3.0309
2024-10-11T13:48:39.345Z,0.0248,-0.9550,0.1929,-0.0236,-0.2242,0.0429,-0.0284,-0.0036,-0.0064,2.8744,1.3684,3.0309
2024-10-11T13:48:39.355Z,0.0223,-0.9599,0.1859,-0.0236,-0.2242,0.0429,-0.0266,0.0008,-0.0051,2.8744,1.3684,3.0309
2024-10-11T13:48:39.363Z,0.0223,-0.9599,0.1859,0.0008,-0.1942,0.1142,-0.0257,0.0050,-0.0086,2.8756,1.3691,3.0295
2024-10-11T13:48:39.375Z,0.0221,-0.9616,0.1860,0.0008,-0.1942,0.1142,-0.0238,0.0059,-0.0045,2.8756,1.3691,3.0295
2024-10-11T13:48:39.388Z,0.0221,-0.9616,0.1860,0.0025,-0.1014,0.0730,-0.0213,0.0089,-0.0054,2.8767,1.3698,3.0284
2024-10-11T13:48:39.395Z,0.0231,-0.9771,0.2001,0.0025,-0.1014,0.0730,-0.0226,0.0141,-0.0052,2.8767,1.3698,3.0284
2024-10-11T13:48:39.406Z,0.0206,-0.9917,0.2041,0.0025,-0.1014,0.0730,-0.0233,0.0187,-0.0039,2.8767,1.3698,3.0284
2024-10-11T13:48:39.415Z,0.0200,-0.9923,0.1992,0.0025,-0.1014,0.0730,-0.0235,0.0191,-0.0068,2.8767,1.3698,3.0284
2024-10-11T13:48:39.425Z,0.0171,-0.9818,0.2081,0.0262,0.1124,-0.0260,-0.0222,0.0214,-0.0068,2.8776,1.3704,3.0277
2024-10-11T13:48:39.437Z,0.0172,-0.9758,0.2016,0.0262,0.1124,-0.0260,-0.0240,0.0252,-0.0060,2.8776,1.3704,3.0277
2024-10-11T13:48:39.445Z,0.0166,-0.9861,0.1874,0.0262,0.1124,-0.0260,-0.0260,0.0229,-0.0069,2.8776,1.3704,3.0277
2024-10-11T13:48:39.455Z,0.0203,-0.9782,0.1977,0.0592,0.0549,0.1128,-0.0197,0.0200,-0.0056,2.8787,1.3710,3.0270
2024-10-11T13:48:39.465Z,0.0185,-0.9743,0.1999,0.0592,0.0549,0.1128,-0.0207,0.0224,-0.0030,2.8787,1.3710,3.0270
2024-10-11T13:48:39.475Z,0.0153,-0.9753,0.1967,0.0592,0.0549,0.1128,-0.0207,0.0256,-0.0047,2.8787,1.3710,3.0270
2024-10-11T13:48:39.486Z,0.0146,-0.9730,0.1946,0.0777,-0.0423,0.0133,-0.0198,0.0231,-0.0072,2.8795,1.3716,3.0267
2024-10-11T13:48:39.494Z,0.0121,-0.9721,0.1941,0.0777,-0.0423,0.0133,-0.0182,0.0243,-0.0083,2.8795,1.3716,3.0267
2024-10-11T13:48:39.504Z,0.0121,-0.9721,0.1941,0.0777,-0.0423,0.0133,-0.0137,0.0228,-0.0090,2.8795,1.3716,3.0267
2024-10-11T13:48:39.513Z,0.0115,-0.9731,0.1886,0.1071,-0.0634,0.0754,-0.0141,0.0280,-0.0095,2.8807,1.3720,3.0260
2024-10-11T13:48:39.524Z,0.0149,-0.9759,0.1854,0.1071,-0.0634,0.0754,-0.0111,0.0271,-0.0103,2.8807,1.3720,3.0260
2024-10-11T13:48:39.538Z,0.0174,-0.9870,0.1813,0.0615,0.0725,0.1362,-0.0098,0.0280,-0.0101,2.8823,1.3723,3.0250
2024-10-11T13:48:39.545Z,0.0155,-0.9887,0.1926,0.0615,0.0725,0.1362,-0.0049,0.0262,-0.0130,2.8823,1.3723,3.0250
2024-10-11T13:48:39.553Z,0.0155,-0.9887,0.1926,0.0615,0.0725,0.1362,-0.0052,0.0245,-0.0144,2.8823,1.3723,3.0250
2024-10-11T13:48:39.565Z,0.0171,-0.9823,0.1936,0.0615,0.0725,0.1362,-0.0016,0.0260,-0.0124,2.8823,1.3723,3.0250
2024-10-11T13:48:39.574Z,0.0224,-0.9913,0.1913,0.0515,0.0413,0.0329,-0.0056,0.0253,-0.0138,2.8840,1.3724,3.0239
2024-10-11T13:48:39.586Z,0.0231,-0.9906,0.2029,0.0515,0.0413,0.0329,-0.0009,0.0232,-0.0146,2.8840,1.3724,3.0239
2024-10-11T13:48:39.595Z,0.0231,-0.9906,0.2029,0.0018,0.1320,-0.0329,-0.0019,0.0236,-0.0157,2.8858,1.3724,3.0226
2024-10-11T13:48:39.604Z,0.0287,-0.9934,0.2001,0.0018,0.1320,-0.0329,-0.0050,0.0237,-0.0142,2.8858,1.3724,3.0226
2024-10-11T13:48:39.615Z,0.0338,-0.9897,0.2075,0.0018,0.1320,-0.0329,-0.0052,0.0249,-0.0140,2.8858,1.3724,3.0226
2024-10-11T13:48:39.624Z,0.0370,-0.9879,0.2088,0.0018,0.1320,-0.0329,-0.0044,0.0258,-0.0117,2.8858,1.3724,3.0226
2024-10-11T13:48:39.636Z,0.0363,-0.9866,0.2112,-0.1373,0.0724,-0.1181,-0.0050,0.0264,-0.0092,2.8875,1.3725,3.0214
2024-10-11T13:48:39.644Z,0.0352,-0.9863,0.2092,-0.1373,0.0724,-0.1181,-0.0076,0.0303,-0.0084,2.8875,1.3725,3.0214
2024-10-11T13:48:39.655Z,0.0399,-0.9856,0.2078,-0.1373,0.0724,-0.1181,-0.0085,0.0297,-0.0086,2.8875,1.3725,3.0214
2024-10-11T13:48:39.664Z,0.0369,-0.9896,0.2056,-0.1565,0.0541,-0.1258,-0.0104,0.0321,-0.0071,2.8888,1.3727,3.0209
2024-10-11T13:48:39.674Z,0.0377,-0.9904,0.2062,-0.1565,0.0541,-0.1258,-0.0156,0.0300,-0.0076,2.8888,1.3727,3.0209
2024-10-11T13:48:39.688Z,0.0355,-0.9868,0.2010,-0.1029,0.0634,-0.0639,-0.0156,0.0327,-0.0080,2.8900,1.3730,3.0203
2024-10-11T13:48:39.694Z,0.0314,-0.9880,0.1928,-0.1029,0.0634,-0.0639,-0.0147,0.0287,-0.0076,2.8900,1.3730,3.0203
2024-10-11T13:48:39.704Z,0.0303,-0.9886,0.1944,-0.1029,0.0634,-0.0639,-0.0145,0.0272,-0.0080,2.8900,1.3730,3.0203
2024-10-11T13:48:39.715Z,0.0242,-0.9724,0.1909,-0.1029,0.0634,-0.0639,-0.0159,0.0223,-0.0096,2.8900,1.3730,3.0203
2024-10-11T13:48:39.724Z,0.0270,-0.9635,0.1875,-0.0022,-0.1000,0.0407,-0.0136,0.0210,-0.0123,2.8915,1.3734,3.0193
2024-10-11T13:48:39.736Z,0.0283,-0.9601,0.1845,-0.0022,-0.1000,0.0407,-0.0149,0.0187,-0.0124,2.8915,1.3734,3.0193
2024-10-11T13:48:39.745Z,0.0299,-0.9623,0.1798,-0.0733,-0.1778,0.1560,-0.0177,0.0184,-0.0121,2.8932,1.3737,3.0179
2024-10-11T13:48:39.754Z,0.0347,-0.9649,0.1781,-0.0733,-0.1778,0.1560,-0.0152,0.0156,-0.0110,2.8932,1.3737,3.0179
2024-10-11T13:48:39.764Z,0.0315,-0.9677,0.1766,-0.0733,-0.1778,0.1560,-0.0135,0.0198,-0.0102,2.8932,1.3737,3.0179
2024-10-11T13:48:39.776Z,0.0387,-0.9686,0.1735,-0.1420,-0.1295,0.2013,-0.0103,0.0180,-0.0085,2.8948,1.3740,3.0166
2024-10-11T13:48:39.784Z,0.0393,-0.9708,0.1759,-0.1420,-0.1295,0.2013,-0.0077,0.0198,-0.0077,2.8948,1.3740,3.0166
2024-10-11T13:48:39.794Z,0.0372,-0.9822,0.1762,-0.1420,-0.1295,0.2013,-0.0088,0.0198,-0.0067,2.8948,1.3740,3.0166
2024-10-11T13:48:39.805Z,0.0372,-0.9822,0.1762,-0.0618,0.0790,0.2418,-0.0077,0.0233,-0.0065,2.8957,1.3742,3.0162
2024-10-11T13:48:39.815Z,0.0313,-0.9888,0.1728,-0.0618,0.0790,0.2418,-0.0048,0.0202,-0.0064,2.8957,1.3742,3.0162
2024-10-11T13:48:39.824Z,0.0324,-0.9859,0.1687,-0.0618,0.0790,0.2418,-0.0028,0.0211,-0.0076,2.8957,1.3742,3.0162
