time,gFx,gFy,gFz,ax,ay,az,wx,wy,wz,yaw,pitch,roll
2024-10-11T14:23:27.926Z,0.0261,-0.9787,0.1743,0.1259,-0.0424,0.0161,-0.0001,-0.0013,0.0088,2.9766,1.3952,2.9215
2024-10-11T14:23:27.934Z,0.0189,-0.9761,0.1843,0.1667,-0.0763,-0.1288,-0.0045,0.0078,0.0074,2.9749,1.3953,2.9230
2024-10-11T14:23:27.945Z,0.0180,-0.9751,0.1863,0.1667,-0.0763,-0.1288,-0.0091,0.0109,0.0089,2.9749,1.3953,2.9230
2024-10-11T14:23:27.955Z,0.0156,-0.9760,0.1853,0.1667,-0.0763,-0.1288,-0.0091,0.0123,0.0052,2.9749,1.3953,2.9230
2024-10-11T14:23:27.965Z,0.0163,-0.9774,0.1852,0.2027,-0.0802,-0.1510,-0.0106,0.0157,0.0031,2.9740,1.3957,2.9240
2024-10-11T14:23:27.975Z,0.0161,-0.9794,0.1840,0.2027,-0.0802,-0.1510,-0.0133,0.0162,-0.0011,2.9740,1.3957,2.9240
2024-10-11T14:23:27.985Z,0.0171,-0.9826,0.1786,0.2027,-0.0802,-0.1510,-0.0131,0.0188,0.0001,2.9740,1.3957,2.9240
2024-10-11T14:23:27.995Z,0.0151,-0.9877,0.1767,0.2049,0.0011,-0.0758,-0.0161,0.0235,-0.0037,2.9742,1.3961,2.9241
2024-10-11T14:23:28.005Z,0.0139,-0.9893,0.1745,0.2049,0.0011,-0.0758,-0.0144,0.0251,-0.0085,2.9742,1.3961,2.9241
2024-10-11T14:23:28.015Z,0.0148,-0.9909,0.1719,0.2049,0.0011,-0.0758,-0.0139,0.0273,-0.0090,2.9742,1.3961,2.9241
2024-10-11T14:23:28.025Z,0.0142,-0.9910,0.1694,0.2314,0.0550,-0.0161,-0.0154,0.0302,-0.0125,2.9755,1.3964,2.9235
2024-10-11T14:23:28.035Z,0.0186,-0.9902,0.1685,0.2314,0.0550,-0.0161,-0.0149,0.0332,-0.0143,2.9755,1.3964,2.9235
2024-10-11T14:23:28.045Z,0.0219,-0.9906,0.1663,0.2314,0.0550,-0.0161,-0.0140,0.0394,-0.0163,2.9755,1.3964,2.9235
2024-10-11T14:23:28.055Z,0.0230,-0.9926,0.1647,0.1643,0.0739,0.0289,-0.0126,0.0418,-0.0177,2.9776,1.3966,2.9223
2024-10-11T14:23:28.065Z,0.0273,-0.9911,0.1636,0.1643,0.0739,0.0289,-0.0139,0.0455,-0.0172,2.9776,1.3966,2.9223
2024-10-11T14:23:28.075Z,0.0285,-0.9870,0.1643,0.1643,0.0739,0.0289,-0.0137,0.0498,-0.0161,2.9776,1.3966,2.9223
2024-10-11T14:23:28.084Z,0.0335,-0.9821,0.1645,0.0539,0.0025,0.0425,-0.0131,0.0517,-0.0167,2.9800,1.3969,2.9211
2024-10-11T14:23:28.095Z,0.0326,-0.9805,0.1645,0.0539,0.0025,0.0425,-0.0123,0.0581,-0.0186,2.9800,1.3969,2.9211
2024-10-11T14:23:28.105Z,0.0329,-0.9788,0.1614,0.0539,0.0025,0.0425,-0.0110,0.0607,-0.0169,2.9800,1.3969,2.9211
2024-10-11T14:23:28.115Z,0.0323,-0.9773,0.1587,0.0537,-0.0744,0.0857,-0.0070,0.0649,-0.0135,2.9823,1.3971,2.9204
2024-10-11T14:23:28.124Z,0.0306,-0.9780,0.1582,0.0537,-0.0744,0.0857,-0.0088,0.0689,-0.0150,2.9823,1.3971,2.9204
2024-10-11T14:23:28.134Z,0.0305,-0.9771,0.1591,0.0537,-0.0744,0.0857,-0.0073,0.0710,-0.0161,2.9823,1.3971,2.9204
2024-10-11T14:23:28.145Z,0.0297,-0.9743,0.1583,0.0791,-0.0902,0.0891,-0.0059,0.0720,-0.0158,2.9845,1.3973,2.9200
2024-10-11T14:23:28.155Z,0.0287,-0.9723,0.1589,0.0791,-0.0902,0.0891,-0.0046,0.0723,-0.0145,2.9845,1.3973,2.9200
2024-10-11T14:23:28.165Z,0.0279,-0.9725,0.1592,0.0791,-0.0902,0.0891,-0.0036,0.0741,-0.0153,2.9845,1.3973,2.9200
2024-10-11T14:23:28.175Z,0.0269,-0.9737,0.1579,0.1091,-0.1182,0.0980,-0.0006,0.0747,-0.0142,2.9870,1.3973,2.9196
2024-10-11T14:23:28.185Z,0.0299,-0.9760,0.1569,0.1091,-0.1182,0.0980,0.0020,0.0771,-0.0170,2.9870,1.3973,2.9196
2024-10-11T14:23:28.195Z,0.0303,-0.9790,0.1522,0.1091,-0.1182,0.0980,0.0043,0.0815,-0.0169,2.9870,1.3973,2.9196
2024-10-11T14:23:28.205Z,0.0329,-0.9804,0.1505,0.0602,-0.0493,0.1663,0.0057,0.0820,-0.0154,2.9896,1.3970,2.9192
2024-10-11T14:23:28.215Z,0.0336,-0.9808,0.1482,0.0602,-0.0493,0.1663,0.0087,0.0819,-0.0128,2.9896,1.3970,2.9192
2024-10-11T14:23:28.225Z,0.0321,-0.9843,0.1465,0.0602,-0.0493,0.1663,0.0087,0.0856,-0.0162,2.9896,1.3970,2.9192
2024-10-11T14:23:28.235Z,0.0346,-0.9831,0.1478,0.0527,-0.0099,0.2195,0.0122,0.0881,-0.0159,2.9917,1.3965,2.9195
2024-10-11T14:23:28.245Z,0.0383,-0.9873,0.1505,0.0527,-0.0099,0.2195,0.0149,0.0868,-0.0157,2.9917,1.3965,2.9195
2024-10-11T14:23:28.255Z,0.0366,-0.9886,0.1522,0.0527,-0.0099,0.2195,0.0153,0.0865,-0.0125,2.9917,1.3965,2.9195
2024-10-11T14:23:28.265Z,0.0396,-0.9898,0.1545,0.0009,0.0532,0.1658,0.0157,0.0873,-0.0126,2.9935,1.3959,2.9201
2024-10-11T14:23:28.275Z,0.0426,-0.9892,0.1569,0.0009,0.0532,0.1658,0.0127,0.0867,-0.0126,2.9935,1.3959,2.9201
2024-10-11T14:23:28.285Z,0.0434,-0.9854,0.1608,0.0009,0.0532,0.1658,0.0146,0.0891,-0.0114,2.9935,1.3959,2.9201
2024-10-11T14:23:28.294Z,0.0444,-0.9868,0.1612,-0.0618,0.0193,0.0869,0.0133,0.0889,-0.0122,2.9949,1.3953,2.9210
2024-10-11T14:23:28.305Z,0.0442,-0.9859,0.1652,-0.0618,0.0193,0.0869,0.0128,0.0901,-0.0115,2.9949,1.3953,2.9210
2024-10-11T14:23:28.315Z,0.0444,-0.9871,0.1687,-0.0618,0.0193,0.0869,0.0123,0.0914,-0.0096,2.9949,1.3953,2.9210
2024-10-11T14:23:28.325Z,0.0466,-0.9860,0.1689,-0.0776,0.0108,0.0273,0.0073,0.0897,-0.0099,2.9961,1.3949,2.9223
2024-10-11T14:23:28.335Z,0.0456,-0.9851,0.1722,-0.0776,0.0108,0.0273,0.0075,0.0929,-0.0094,2.9961,1.3949,2.9223
2024-10-11T14:23:28.345Z,0.0482,-0.9823,0.1750,-0.0776,0.0108,0.0273,0.0025,0.0917,-0.0083,2.9961,1.3949,2.9223
2024-10-11T14:23:28.355Z,0.0456,-0.9814,0.1741,-0.0926,-0.0212,-0.0321,-0.0009,0.0906,-0.0064,2.9974,1.3947,2.9235
2024-10-11T14:23:28.365Z,0.0474,-0.9816,0.1753,-0.0926,-0.0212,-0.0321,-0.0033,0.0909,-0.0086,2.9974,1.3947,2.9235
2024-10-11T14:23:28.375Z,0.0463,-0.9835,0.1739,-0.0926,-0.0212,-0.0321,-0.0077,0.0873,-0.0097,2.9974,1.3947,2.9235
2024-10-11T14:23:28.385Z,0.0439,-0.9863,0.1735,-0.0613,0.0051,-0.0285,-0.0104,0.0832,-0.0068,2.9989,1.3948,2.9245
2024-10-11T14:23:28.395Z,0.0444,-0.9890,0.1727,-0.0613,0.0051,-0.0285,-0.0127,0.0804,-0.0099,2.9989,1.3948,2.9245
2024-10-11T14:23:28.405Z,0.0438,-0.9891,0.1690,-0.0613,0.0051,-0.0285,-0.0128,0.0763,-0.0096,2.9989,1.3948,2.9245
2024-10-11T14:23:28.417Z,0.0458,-0.9919,0.1646,-0.0656,0.0622,0.0432,-0.0126,0.0720,-0.0081,3.0009,1.3951,2.9246
2024-10-11T14:23:28.425Z,0.0495,-0.9914,0.1619,-0.0656,0.0622,0.0432,-0.0163,0.0656,-0.0080,3.0009,1.3951,2.9246
2024-10-11T14:23:28.436Z,0.0499,-0.9909,0.1584,-0.0656,0.0622,0.0432,-0.0148,0.0587,-0.0089,3.0009,1.3951,2.9246
2024-10-11T14:23:28.445Z,0.0526,-0.9907,0.1564,-0.1293,0.0567,0.1245,-0.0127,0.0517,-0.0064,3.0029,1.3955,2.9241
2024-10-11T14:23:28.455Z,0.0548,-0.9912,0.1523,-0.1293,0.0567,0.1245,-0.0131,0.0434,-0.0108,3.0029,1.3955,2.9241
2024-10-11T14:23:28.465Z,0.0544,-0.9893,0.1527,-0.1293,0.0567,0.1245,-0.0128,0.0396,-0.0099,3.0029,1.3955,2.9241
2024-10-11T14:23:28.475Z,0.0592,-0.9890,0.1537,-0.1787,0.0362,0.1631,-0.0075,0.0361,-0.0072,3.0045,1.3957,2.9236
2024-10-11T14:23:28.485Z,0.0626,-0.9888,0.1569,-0.1787,0.0362,0.1631,-0.0068,0.0334,-0.0064,3.0045,1.3957,2.9236
2024-10-11T14:23:28.495Z,0.0638,-0.9901,0.1612,-0.1787,0.0362,0.1631,-0.0055,0.0313,-0.0008,3.0045,1.3957,2.9236
2024-10-11T14:23:28.505Z,0.0587,-0.9919,0.1666,-0.2351,0.0478,0.0591,-0.0018,0.0251,0.0010,3.0051,1.3958,2.9237
2024-10-11T14:23:28.515Z,0.0529,-0.9985,0.1690,-0.2351,0.0478,0.0591,-0.0035,0.0239,0.0015,3.0051,1.3958,2.9237
2024-10-11T14:23:28.525Z,0.0488,-1.0042,0.1737,-0.2351,0.0478,0.0591,-0.0006,0.0290,0.0011,3.0051,1.3958,2.9237
2024-10-11T14:23:28.535Z,0.0514,-1.0047,0.1795,-0.1338,0.2003,-0.0605,-0.0037,0.0234,0.0032,3.0051,1.3959,2.9241
2024-10-11T14:23:28.545Z,0.0560,-1.0010,0.1892,-0.1338,0.2003,-0.0605,-0.0054,0.0194,0.0074,3.0051,1.3959,2.9241
2024-10-11T14:23:28.555Z,0.0545,-0.9988,0.1955,-0.1338,0.2003,-0.0605,-0.0076,0.0196,0.0058,3.0051,1.3959,2.9241
2024-10-11T14:23:28.565Z,0.0489,-0.9966,0.1992,-0.1243,0.1256,-0.2767,-0.0079,0.0172,0.0069,3.0044,1.3961,2.9252
2024-10-11T14:23:28.575Z,0.0466,-0.9947,0.2000,-0.1243,0.1256,-0.2767,-0.0122,0.0134,0.0073,3.0044,1.3961,2.9252
2024-10-11T14:23:28.585Z,0.0481,-0.9926,0.2005,-0.1243,0.1256,-0.2767,-0.0156,0.0088,0.0066,3.0044,1.3961,2.9252
2024-10-11T14:23:28.595Z,0.0482,-0.9864,0.2020,-0.1037,0.0442,-0.3101,-0.0172,0.0029,0.0101,3.0036,1.3966,2.9259
2024-10-11T14:23:28.605Z,0.0482,-0.9833,0.2026,-0.1037,0.0442,-0.3101,-0.0237,0.0055,0.0081,3.0036,1.3966,2.9259
2024-10-11T14:23:28.615Z,0.0410,-0.9811,0.1945,-0.1037,0.0442,-0.3101,-0.0279,0.0088,0.0100,3.0036,1.3966,2.9259
2024-10-11T14:23:28.625Z,0.0475,-0.9846,0.1870,-0.0497,-0.0167,-0.2056,-0.0313,0.0137,0.0117,3.0029,1.3974,2.9266
2024-10-11T14:23:28.635Z,0.0445,-0.9903,0.1774,-0.0497,-0.0167,-0.2056,-0.0354,0.0181,0.0134,3.0029,1.3974,2.9266
2024-10-11T14:23:28.645Z,0.0524,-0.9950,0.1721,-0.0497,-0.0167,-0.2056,-0.0346,0.0189,0.0175,3.0029,1.3974,2.9266
2024-10-11T14:23:28.656Z,0.0543,-0.9938,0.1712,-0.1927,0.0721,-0.0200,-0.0340,0.0157,0.0193,3.0015,1.3985,2.9283
2024-10-11T14:23:28.667Z,0.0479,-0.9945,0.1711,-0.1927,0.0721,-0.0200,-0.0347,0.0146,0.0209,3.0015,1.3985,2.9283
2024-10-11T14:23:28.675Z,0.0423,-0.9897,0.1705,-0.1927,0.0721,-0.0200,-0.0338,0.0211,0.0211,3.0015,1.3985,2.9283
2024-10-11T14:23:28.685Z,0.0351,-0.9908,0.1690,-0.0349,0.0548,-0.0318,-0.0291,0.0240,0.0169,2.9990,1.3995,2.9310
2024-10-11T14:23:28.695Z,0.0346,-0.9918,0.1693,-0.0349,0.0548,-0.0318,-0.0252,0.0220,0.0153,2.9990,1.3995,2.9310
2024-10-11T14:23:28.705Z,0.0307,-0.9897,0.1683,-0.0349,0.0548,-0.0318,-0.0234,0.0187,0.0151,2.9990,1.3995,2.9310
2024-10-11T14:23:28.716Z,0.0254,-0.9877,0.1663,0.0823,0.0265,-0.0209,-0.0215,0.0148,0.0124,2.9972,1.4002,2.9332
2024-10-11T14:23:28.725Z,0.0239,-0.9872,0.1634,0.0823,0.0265,-0.0209,-0.0199,0.0149,0.0091,2.9972,1.4002,2.9332
2024-10-11T14:23:28.735Z,0.0190,-0.9846,0.1631,0.0823,0.0265,-0.0209,-0.0186,0.0145,0.0042,2.9972,1.4002,2.9332
2024-10-11T14:23:28.745Z,0.0215,-0.9840,0.1631,0.1563,-0.0074,0.0287,-0.0168,0.0132,0.0015,2.9970,1.4008,2.9335
2024-10-11T14:23:28.755Z,0.0269,-0.9809,0.1661,0.1563,-0.0074,0.0287,-0.0186,0.0114,-0.0036,2.9970,1.4008,2.9335
2024-10-11T14:23:28.766Z,0.0207,-0.9790,0.1656,0.1563,-0.0074,0.0287,-0.0167,0.0147,-0.0028,2.9970,1.4008,2.9335
2024-10-11T14:23:28.774Z,0.0263,-0.9766,0.1659,0.1321,-0.0784,-0.0018,-0.0188,0.0131,-0.0078,2.9982,1.4013,2.9325
2024-10-11T14:23:28.785Z,0.0302,-0.9755,0.1663,0.1321,-0.0784,-0.0018,-0.0173,0.0105,-0.0090,2.9982,1.4013,2.9325
2024-10-11T14:23:28.795Z,0.0350,-0.9731,0.1663,0.1321,-0.0784,-0.0018,-0.0169,0.0132,-0.0114,2.9982,1.4013,2.9325
2024-10-11T14:23:28.805Z,0.0386,-0.9700,0.1643,-0.0146,-0.1405,-0.0070,-0.0172,0.0100,-0.0102,3.0002,1.4017,2.9307
2024-10-11T14:23:28.815Z,0.0400,-0.9710,0.1608,-0.0146,-0.1405,-0.0070,-0.0172,0.0095,-0.0091,3.0002,1.4017,2.9307
2024-10-11T14:23:28.825Z,0.0387,-0.9732,0.1583,-0.0146,-0.1405,-0.0070,-0.0187,0.0093,-0.0091,3.0002,1.4017,2.9307
2024-10-11T14:23:28.834Z,0.0378,-0.9727,0.1576,-0.0220,-0.1323,0.0647,-0.0155,0.0087,-0.0133,3.0021,1.4022,2.9289
2024-10-11T14:23:28.845Z,0.0370,-0.9727,0.1543,-0.0220,-0.1323,0.0647,-0.0134,0.0050,-0.0139,3.0021,1.4022,2.9289
2024-10-11T14:23:28.855Z,0.0360,-0.9710,0.1534,-0.0220,-0.1323,0.0647,-0.0168,0.0012,-0.0138,3.0021,1.4022,2.9289
2024-10-11T14:23:28.867Z,0.0343,-0.9709,0.1517,0.0106,-0.1491,0.0998,-0.0156,-0.0026,-0.0183,3.0047,1.4025,2.9261
2024-10-11T14:23:28.875Z,0.0370,-0.9727,0.1481,0.0106,-0.1491,0.0998,-0.0132,-0.0070,-0.0176,3.0047,1.4025,2.9261
2024-10-11T14:23:28.885Z,0.0361,-0.9715,0.1460,0.0106,-0.1491,0.0998,-0.0104,-0.0106,-0.0207,3.0047,1.4025,2.9261
2024-10-11T14:23:28.895Z,0.0382,-0.9751,0.1433,0.0123,-0.1305,0.1879,-0.0080,-0.0184,-0.0192,3.0083,1.4027,2.9220
2024-10-11T14:23:28.905Z,0.0392,-0.9770,0.1413,0.0123,-0.1305,0.1879,-0.0046,-0.0197,-0.0206,3.0083,1.4027,2.9220
2024-10-11T14:23:28.916Z,0.0398,-0.9756,0.1407,0.0123,-0.1305,0.1879,-0.0008,-0.0236,-0.0252,3.0083,1.4027,2.9220
2024-10-11T14:23:28.925Z,0.0432,-0.9733,0.1411,-0.0369,-0.1048,0.2153,-0.0020,-0.0263,-0.0249,3.0123,1.4026,2.9171
2024-10-11T14:23:28.935Z,0.0436,-0.9692,0.1438,-0.0369,-0.1048,0.2153,-0.0015,-0.0273,-0.0258,3.0123,1.4026,2.9171
2024-10-11T14:23:28.945Z,0.0460,-0.9715,0.1457,-0.0369,-0.1048,0.2153,0.0037,-0.0342,-0.0256,3.0123,1.4026,2.9171
2024-10-11T14:23:28.955Z,0.0514,-0.9699,0.1480,-0.1000,-0.1472,0.1636,0.0019,-0.0328,-0.0225,3.0163,1.4024,2.9120
2024-10-11T14:23:28.966Z,0.0547,-0.9694,0.1520,-0.1000,-0.1472,0.1636,0.0076,-0.0320,-0.0192,3.0163,1.4024,2.9120
2024-10-11T14:23:28.975Z,0.0602,-0.9716,0.1544,-0.1000,-0.1472,0.1636,0.0067,-0.0307,-0.0172,3.0163,1.4024,2.9120
2024-10-11T14:23:28.985Z,0.0574,-0.9729,0.1564,-0.2033,-0.1351,0.0802,0.0084,-0.0272,-0.0150,3.0190,1.4022,2.9082
2024-10-11T14:23:28.995Z,0.0577,-0.9775,0.1592,-0.2033,-0.1351,0.0802,0.0103,-0.0265,-0.0127,3.0190,1.4022,2.9082
2024-10-11T14:23:29.005Z,0.0567,-0.9797,0.1550,-0.2033,-0.1351,0.0802,0.0132,-0.0292,-0.0108,3.0190,1.4022,2.9082
2024-10-11T14:23:29.016Z,0.0578,-0.9842,0.1556,-0.1668,-0.0449,0.0822,0.0129,-0.0269,-0.0104,3.0204,1.4018,2.9057
2024-10-11T14:23:29.025Z,0.0544,-0.9876,0.1574,-0.1668,-0.0449,0.0822,0.0145,-0.0269,-0.0053,3.0204,1.4018,2.9057
2024-10-11T14:23:29.034Z,0.0523,-0.9910,0.1559,-0.1668,-0.0449,0.0822,0.0200,-0.0254,-0.0037,3.0204,1.4018,2.9057
2024-10-11T14:23:29.045Z,0.0552,-0.9949,0.1553,-0.1464,0.0807,0.0734,0.0236,-0.0289,-0.0034,3.0206,1.4012,2.9045
2024-10-11T14:23:29.055Z,0.0516,-0.9972,0.1547,-0.1464,0.0807,0.0734,0.0248,-0.0299,-0.0016,3.0206,1.4012,2.9045
2024-10-11T14:23:29.065Z,0.0482,-0.9969,0.1567,-0.1464,0.0807,0.0734,0.0251,-0.0299,-0.0029,3.0206,1.4012,2.9045
2024-10-11T14:23:29.075Z,0.0477,-0.9958,0.1572,-0.0903,0.1027,0.0731,0.0262,-0.0309,0.0025,3.0201,1.4005,2.9038
2024-10-11T14:23:29.085Z,0.0477,-0.9950,0.1617,-0.0903,0.1027,0.0731,0.0245,-0.0314,0.0004,3.0201,1.4005,2.9038
2024-10-11T14:23:29.096Z,0.0476,-0.9928,0.1649,-0.0903,0.1027,0.0731,0.0284,-0.0351,0.0034,3.0201,1.4005,2.9038
2024-10-11T14:23:29.105Z,0.0474,-0.9896,0.1666,-0.0707,0.0598,-0.0039,0.0255,-0.0360,0.0047,3.0190,1.3997,2.9037
2024-10-11T14:23:29.115Z,0.0467,-0.9846,0.1696,-0.0707,0.0598,-0.0039,0.0264,-0.0364,0.0028,3.0190,1.3997,2.9037
2024-10-11T14:23:29.125Z,0.0457,-0.9809,0.1703,-0.0707,0.0598,-0.0039,0.0265,-0.0374,0.0019,3.0190,1.3997,2.9037
2024-10-11T14:23:29.135Z,0.0473,-0.9781,0.1716,-0.0609,-0.0594,-0.0394,0.0260,-0.0378,0.0069,3.0173,1.3990,2.9039
2024-10-11T14:23:29.145Z,0.0489,-0.9780,0.1761,-0.0609,-0.0594,-0.0394,0.0243,-0.0374,0.0062,3.0173,1.3990,2.9039
2024-10-11T14:23:29.155Z,0.0466,-0.9798,0.1754,-0.0609,-0.0594,-0.0394,0.0260,-0.0396,0.0078,3.0173,1.3990,2.9039
2024-10-11T14:23:29.165Z,0.0450,-0.9816,0.1761,-0.0497,-0.0471,-0.0913,0.0243,-0.0403,0.0082,3.0151,1.3983,2.9047
2024-10-11T14:23:29.175Z,0.0474,-0.9821,0.1793,-0.0497,-0.0471,-0.0913,0.0226,-0.0414,0.0083,3.0151,1.3983,2.9047
2024-10-11T14:23:29.185Z,0.0447,-0.9821,0.1796,-0.0497,-0.0471,-0.0913,0.0202,-0.0428,0.0082,3.0151,1.3983,2.9047
2024-10-11T14:23:29.195Z,0.0417,-0.9805,0.1805,-0.0234,-0.0366,-0.1222,0.0172,-0.0398,0.0093,3.0127,1.3978,2.9056
2024-10-11T14:23:29.205Z,0.0420,-0.9824,0.1806,-0.0234,-0.0366,-0.1222,0.0143,-0.0411,0.0113,3.0127,1.3978,2.9056
2024-10-11T14:23:29.215Z,0.0406,-0.9867,0.1823,-0.0234,-0.0366,-0.1222,0.0148,-0.0395,0.0111,3.0127,1.3978,2.9056
2024-10-11T14:23:29.225Z,0.0417,-0.9902,0.1788,-0.0141,0.0397,-0.1275,0.0120,-0.0407,0.0133,3.0101,1.3974,2.9066
2024-10-11T14:23:29.234Z,0.0389,-0.9954,0.1765,-0.0141,0.0397,-0.1275,0.0095,-0.0373,0.0117,3.0101,1.3974,2.9066
2024-10-11T14:23:29.245Z,0.0428,-0.9965,0.1761,-0.0141,0.0397,-0.1275,0.0099,-0.0378,0.0117,3.0101,1.3974,2.9066
2024-10-11T14:23:29.255Z,0.0371,-0.9978,0.1738,-0.0055,0.1127,-0.0667,0.0068,-0.0409,0.0143,3.0074,1.3972,2.9077
2024-10-11T14:23:29.265Z,0.0374,-0.9978,0.1744,-0.0055,0.1127,-0.0667,0.0079,-0.0412,0.0119,3.0074,1.3972,2.9077
2024-10-11T14:23:29.275Z,0.0378,-0.9972,0.1760,-0.0055,0.1127,-0.0667,0.0044,-0.0381,0.0123,3.0074,1.3972,2.9077
2024-10-11T14:23:29.284Z,0.0360,-0.9979,0.1766,0.0360,0.1313,-0.0894,0.0044,-0.0370,0.0124,3.0050,1.3971,2.9087
2024-10-11T14:23:29.295Z,0.0339,-0.9970,0.1762,0.0360,0.1313,-0.0894,0.0018,-0.0353,0.0130,3.0050,1.3971,2.9087
2024-10-11T14:23:29.305Z,0.0342,-0.9964,0.1763,0.0360,0.1313,-0.0894,0.0016,-0.0359,0.0150,3.0050,1.3971,2.9087
2024-10-11T14:23:29.316Z,0.0350,-0.9917,0.1740,0.0358,0.0896,-0.0714,0.0026,-0.0364,0.0131,3.0025,1.3971,2.9099
2024-10-11T14:23:29.325Z,0.0324,-0.9891,0.1711,0.0358,0.0896,-0.0714,0.0013,-0.0331,0.0136,3.0025,1.3971,2.9099
2024-10-11T14:23:29.334Z,0.0297,-0.9856,0.1673,0.0358,0.0896,-0.0714,0.0017,-0.0299,0.0150,3.0025,1.3971,2.9099
2024-10-11T14:23:29.345Z,0.0287,-0.9851,0.1656,0.1032,0.0070,0.0202,0.0016,-0.0290,0.0126,2.9998,1.3971,2.9113
2024-10-11T14:23:29.355Z,0.0284,-0.9848,0.1636,0.1032,0.0070,0.0202,0.0045,-0.0257,0.0121,2.9998,1.3971,2.9113
2024-10-11T14:23:29.364Z,0.0290,-0.9832,0.1614,0.1032,0.0070,0.0202,0.0028,-0.0265,0.0124,2.9998,1.3971,2.9113
2024-10-11T14:23:29.375Z,0.0298,-0.9811,0.1614,0.0971,-0.0202,0.0686,0.0032,-0.0220,0.0109,2.9974,1.3970,2.9126
2024-10-11T14:23:29.384Z,0.0311,-0.9801,0.1622,0.0971,-0.0202,0.0686,0.0027,-0.0216,0.0101,2.9974,1.3970,2.9126
2024-10-11T14:23:29.395Z,0.0320,-0.9819,0.1624,0.0971,-0.0202,0.0686,0.0048,-0.0202,0.0097,2.9974,1.3970,2.9126
2024-10-11T14:23:29.405Z,0.0343,-0.9838,0.1659,0.0513,-0.0215,0.0414,0.0018,-0.0133,0.0095,2.9953,1.3970,2.9139
2024-10-11T14:23:29.415Z,0.0327,-0.9847,0.1677,0.0513,-0.0215,0.0414,0.0030,-0.0128,0.0117,2.9953,1.3970,2.9139
2024-10-11T14:23:29.425Z,0.0343,-0.9870,0.1723,0.0513,-0.0215,0.0414,0.0021,-0.0059,0.0109,2.9953,1.3970,2.9139
2024-10-11T14:23:29.434Z,0.0332,-0.9875,0.1747,0.0498,0.0283,-0.0540,0.0005,-0.0013,0.0132,2.9933,1.3970,2.9155
2024-10-11T14:23:29.445Z,0.0318,-0.9870,0.1768,0.0498,0.0283,-0.0540,0.0004,0.0010,0.0092,2.9933,1.3970,2.9155
2024-10-11T14:23:29.455Z,0.0291,-0.9864,0.1802,0.0498,0.0283,-0.0540,-0.0010,0.0052,0.0109,2.9933,1.3970,2.9155
2024-10-11T14:23:29.465Z,0.0305,-0.9878,0.1821,0.0884,0.0199,-0.1270,-0.0001,0.0083,0.0103,2.9912,1.3971,2.9174
2024-10-11T14:23:29.475Z,0.0313,-0.9881,0.1842,0.0884,0.0199,-0.1270,-0.0019,0.0138,0.0093,2.9912,1.3971,2.9174
2024-10-11T14:23:29.485Z,0.0298,-0.9894,0.1856,0.0884,0.0199,-0.1270,-0.0040,0.0154,0.0107,2.9912,1.3971,2.9174
2024-10-11T14:23:29.495Z,0.0273,-0.9886,0.1856,0.0894,0.0360,-0.1597,-0.0055,0.0165,0.0089,2.9895,1.3973,2.9193
2024-10-11T14:23:29.505Z,0.0272,-0.9878,0.1859,0.0894,0.0360,-0.1597,-0.0043,0.0217,0.0104,2.9895,1.3973,2.9193
2024-10-11T14:23:29.515Z,0.0291,-0.9884,0.1841,0.0894,0.0360,-0.1597,-0.0063,0.0232,0.0074,2.9895,1.3973,2.9193
2024-10-11T14:23:29.525Z,0.0326,-0.9884,0.1815,0.0740,0.0372,-0.1456,-0.0059,0.0287,0.0096,2.9882,1.3975,2.9210
2024-10-11T14:23:29.535Z,0.0349,-0.9913,0.1841,0.0740,0.0372,-0.1456,-0.0070,0.0298,0.0106,2.9882,1.3975,2.9210
2024-10-11T14:23:29.545Z,0.0325,-1.0109,0.1855,0.0740,0.0372,-0.1456,-0.0088,0.0342,0.0126,2.9882,1.3975,2.9210
2024-10-11T14:23:29.554Z,0.0333,-1.0300,0.1792,0.0539,0.3531,-0.1093,-0.0060,0.0408,0.0103,2.9862,1.3978,2.9237
2024-10-11T14:23:29.565Z,0.0306,-1.0379,0.1708,0.0539,0.3531,-0.1093,-0.0067,0.0416,0.0119,2.9862,1.3978,2.9237
2024-10-11T14:23:29.575Z,0.0298,-1.0304,0.1796,0.0539,0.3531,-0.1093,-0.0055,0.0446,0.0107,2.9862,1.3978,2.9237
2024-10-11T14:23:29.584Z,0.0225,-1.0252,0.1794,0.1051,0.4247,-0.1088,-0.0060,0.0470,0.0089,2.9843,1.3980,2.9267
2024-10-11T14:23:29.595Z,0.0189,-1.0216,0.1787,0.1051,0.4247,-0.1088,-0.0062,0.0453,0.0080,2.9843,1.3980,2.9267
2024-10-11T14:23:29.604Z,0.0174,-1.0117,0.1817,0.1051,0.4247,-0.1088,-0.0113,0.0446,0.0054,2.9843,1.3980,2.9267
2024-10-11T14:23:29.615Z,0.0141,-1.0069,0.1885,0.2038,0.2298,-0.1748,-0.0134,0.0402,0.0047,2.9834,1.3983,2.9286
2024-10-11T14:23:29.625Z,0.0086,-1.0073,0.1990,0.2038,0.2298,-0.1748,-0.0192,0.0386,0.0010,2.9834,1.3983,2.9286
2024-10-11T14:23:29.635Z,0.0109,-0.9998,0.1964,0.2038,0.2298,-0.1748,-0.0243,0.0417,-0.0028,2.9834,1.3983,2.9286
2024-10-11T14:23:29.645Z,0.0131,-0.9950,0.1823,0.2370,0.1215,-0.2472,-0.0259,0.0356,-0.0030,2.9841,1.3988,2.9288
2024-10-11T14:23:29.654Z,0.0126,-0.9898,0.1733,0.2370,0.1215,-0.2472,-0.0279,0.0351,-0.0065,2.9841,1.3988,2.9288
2024-10-11T14:23:29.665Z,0.0199,-0.9924,0.1716,0.2370,0.1215,-0.2472,-0.0259,0.0303,-0.0082,2.9841,1.3988,2.9288
2024-10-11T14:23:29.675Z,0.0179,-1.0032,0.1621,0.1543,0.1307,-0.0393,-0.0317,0.0287,-0.0088,2.9862,1.3996,2.9275
2024-10-11T14:23:29.685Z,0.0227,-0.9976,0.1703,0.1543,0.1307,-0.0393,-0.0347,0.0306,-0.0110,2.9862,1.3996,2.9275
2024-10-11T14:23:29.695Z,0.0252,-0.9786,0.1756,0.1543,0.1307,-0.0393,-0.0412,0.0317,-0.0110,2.9862,1.3996,2.9275
2024-10-11T14:23:29.704Z,0.0304,-0.9639,0.1945,0.0839,-0.1747,-0.2411,-0.0412,0.0317,-0.0110,2.9890,1.4006,2.9255
2024-10-11T14:23:29.715Z,0.0344,-0.9608,0.1750,0.0839,-0.1747,-0.2411,-0.0489,0.0306,-0.0086,2.9890,1.4006,2.9255
2024-10-11T14:23:29.726Z,0.0288,-0.9535,0.1602,0.0839,-0.1747,-0.2411,-0.0489,0.0306,-0.0086,2.9890,1.4006,2.9255
2024-10-11T14:23:29.735Z,0.0288,-0.9535,0.1602,0.1065,-0.2885,0.0526,-0.0481,0.0291,-0.0112,2.9919,1.4019,2.9233
2024-10-11T14:23:29.745Z,0.0315,-0.9566,0.1538,0.1065,-0.2885,0.0526,-0.0469,0.0306,-0.0104,2.9919,1.4019,2.9233
2024-10-11T14:23:29.754Z,0.0289,-0.9581,0.1504,0.1065,-0.2885,0.0526,-0.0472,0.0314,-0.0095,2.9919,1.4019,2.9233
2024-10-11T14:23:29.766Z,0.0371,-0.9551,0.1490,0.0210,-0.2962,0.1402,-0.0469,0.0329,-0.0086,2.9952,1.4032,2.9208
2024-10-11T14:23:29.775Z,0.0321,-0.9607,0.1497,0.0210,-0.2962,0.1402,-0.0453,0.0320,-0.0064,2.9952,1.4032,2.9208
2024-10-11T14:23:29.786Z,0.0343,-0.9675,0.1576,0.0210,-0.2962,0.1402,-0.0445,0.0318,-0.0088,2.9952,1.4032,2.9208
2024-10-11T14:23:29.795Z,0.0373,-0.9794,0.1497,0.0049,-0.1346,0.0522,-0.0394,0.0332,-0.0063,2.9980,1.4044,2.9187
2024-10-11T14:23:29.804Z,0.0364,-0.9915,0.1180,0.0049,-0.1346,0.0522,-0.0394,0.0332,-0.0063,2.9980,1.4044,2.9187
2024-10-11T14:23:29.816Z,0.0380,-0.9870,0.1173,0.0049,-0.1346,0.0522,-0.0265,0.0352,-0.0049,2.9980,1.4044,2.9187
2024-10-11T14:23:29.825Z,0.0409,-0.9785,0.1140,-0.0213,-0.0225,0.4660,-0.0234,0.0382,-0.0044,3.0003,1.4054,2.9173
2024-10-11T14:23:29.836Z,0.0396,-0.9789,0.1137,-0.0213,-0.0225,0.4660,-0.0214,0.0371,0.0009,3.0003,1.4054,2.9173
2024-10-11T14:23:29.844Z,0.0443,-0.9809,0.1170,-0.0213,-0.0225,0.4660,-0.0214,0.0371,0.0009,3.0003,1.4054,2.9173
2024-10-11T14:23:29.854Z,0.0402,-0.9769,0.1354,-0.0755,-0.0688,0.3035,-0.0185,0.0396,-0.0001,3.0012,1.4060,2.9171
2024-10-11T14:23:29.865Z,0.0411,-0.9709,0.1409,-0.0755,-0.0688,0.3035,-0.0160,0.0384,0.0007,3.0012,1.4060,2.9171
2024-10-11T14:23:29.874Z,0.0407,-0.9719,0.1329,-0.0755,-0.0688,0.3035,-0.0160,0.0384,0.0007,3.0012,1.4060,2.9171
2024-10-11T14:23:29.886Z,0.0473,-0.9728,0.1290,-0.0617,-0.1314,0.2852,-0.0067,0.0402,0.0038,3.0014,1.4064,2.9178
2024-10-11T14:23:29.896Z,0.0461,-0.9720,0.1311,-0.0617,-0.1314,0.2852,-0.0063,0.0387,0.0077,3.0014,1.4064,2.9178
2024-10-11T14:23:29.905Z,0.0492,-0.9738,0.1391,-0.0617,-0.1314,0.2852,-0.0067,0.0394,0.0059,3.0014,1.4064,2.9178
2024-10-11T14:23:29.915Z,0.0451,-0.9750,0.1444,-0.1299,-0.1105,0.1558,-0.0033,0.0395,0.0092,3.0006,1.4068,2.9195
2024-10-11T14:23:29.925Z,0.0413,-0.9821,0.1486,-0.1299,-0.1105,0.1558,-0.0052,0.0338,0.0114,3.0006,1.4068,2.9195
2024-10-11T14:23:29.936Z,0.0428,-0.9852,0.1540,-0.0522,-0.0076,-0.0528,-0.0052,0.0338,0.0114,2.9990,1.4072,2.9220
2024-10-11T14:23:29.946Z,0.0373,-0.9844,0.1742,-0.0522,-0.0076,-0.0528,-0.0084,0.0369,0.0103,2.9990,1.4072,2.9220
2024-10-11T14:23:29.955Z,0.0373,-0.9844,0.1742,-0.0522,-0.0076,-0.0528,-0.0084,0.0369,0.0103,2.9990,1.4072,2.9220
2024-10-11T14:23:29.965Z,0.0368,-0.9941,0.1680,-0.0522,-0.0076,-0.0528,-0.0098,0.0373,0.0106,2.9990,1.4072,2.9220
2024-10-11T14:23:29.975Z,0.0404,-1.0041,0.1687,-0.0254,0.1324,-0.0689,-0.0110,0.0350,0.0138,2.9976,1.4076,2.9242
2024-10-11T14:23:29.985Z,0.0397,-1.0075,0.1647,-0.0254,0.1324,-0.0689,-0.0094,0.0343,0.0114,2.9976,1.4076,2.9242
2024-10-11T14:23:29.996Z,0.0358,-1.0064,0.1639,0.0077,0.1849,-0.1027,-0.0128,0.0333,0.0118,2.9962,1.4081,2.9264
2024-10-11T14:23:30.006Z,0.0324,-1.0038,0.1830,0.0077,0.1849,-0.1027,-0.0128,0.0333,0.0118,2.9962,1.4081,2.9264
2024-10-11T14:23:30.015Z,0.0324,-1.0038,0.1830,0.0077,0.1849,-0.1027,-0.0194,0.0302,0.0103,2.9962,1.4081,2.9264
2024-10-11T14:23:30.025Z,0.0291,-1.0010,0.1885,0.0077,0.1849,-0.1027,-0.0192,0.0263,0.0105,2.9962,1.4081,2.9264
2024-10-11T14:23:30.035Z,0.0328,-0.9987,0.1908,0.0512,0.1270,-0.3087,-0.0218,0.0292,0.0095,2.9952,1.4087,2.9280
2024-10-11T14:23:30.045Z,0.0374,-0.9975,0.1810,0.0512,0.1270,-0.3087,-0.0251,0.0283,0.0087,2.9952,1.4087,2.9280
2024-10-11T14:23:30.055Z,0.0323,-1.0028,0.1735,0.0512,0.1270,-0.3087,-0.0272,0.0234,0.0084,2.9952,1.4087,2.9280
2024-10-11T14:23:30.065Z,0.0288,-1.0080,0.1784,0.0267,0.1713,-0.1466,-0.0284,0.0232,0.0079,2.9943,1.4094,2.9296
2024-10-11T14:23:30.075Z,0.0288,-1.0080,0.1784,0.0267,0.1713,-0.1466,-0.0298,0.0226,0.0069,2.9943,1.4094,2.9296
2024-10-11T14:23:30.086Z,0.0275,-1.0101,0.1787,0.0549,0.2437,-0.2068,-0.0342,0.0198,0.0053,2.9939,1.4103,2.9303
2024-10-11T14:23:30.095Z,0.0239,-1.0115,0.1772,0.0549,0.2437,-0.2068,-0.0360,0.0184,0.0033,2.9939,1.4103,2.9303
2024-10-11T14:23:30.105Z,0.0205,-0.9997,0.1782,0.0549,0.2437,-0.2068,-0.0375,0.0145,0.0032,2.9939,1.4103,2.9303
2024-10-11T14:23:30.115Z,0.0212,-0.9869,0.1784,0.0549,0.2437,-0.2068,-0.0422,0.0105,-0.0016,2.9939,1.4103,2.9303
2024-10-11T14:23:30.126Z,0.0281,-0.9792,0.1672,0.1065,-0.0607,-0.2309,-0.0446,0.0093,-0.0026,2.9951,1.4114,2.9293
2024-10-11T14:23:30.135Z,0.0281,-0.9792,0.1672,0.1065,-0.0607,-0.2309,-0.0436,0.0120,-0.0024,2.9951,1.4114,2.9293
2024-10-11T14:23:30.146Z,0.0315,-0.9764,0.1613,0.0183,-0.1010,-0.0243,-0.0423,0.0097,-0.0059,2.9973,1.4126,2.9273
2024-10-11T14:23:30.155Z,0.0290,-0.9768,0.1523,0.0183,-0.1010,-0.0243,-0.0451,0.0131,-0.0087,2.9973,1.4126,2.9273
2024-10-11T14:23:30.165Z,0.0252,-0.9767,0.1534,0.0183,-0.1010,-0.0243,-0.0444,0.0106,-0.0076,2.9973,1.4126,2.9273
2024-10-11T14:23:30.175Z,0.0259,-0.9777,0.1514,0.0183,-0.1010,-0.0243,-0.0406,0.0089,-0.0091,2.9973,1.4126,2.9273
2024-10-11T14:23:30.185Z,0.0283,-0.9856,0.1545,0.0595,-0.0625,-0.0011,-0.0406,0.0089,-0.0091,3.0001,1.4138,2.9246
2024-10-11T14:23:30.196Z,0.0351,-0.9895,0.1467,0.0595,-0.0625,-0.0011,-0.0378,0.0123,-0.0108,3.0001,1.4138,2.9246
2024-10-11T14:23:30.205Z,0.0351,-0.9895,0.1467,0.0595,-0.0625,-0.0011,-0.0354,0.0129,-0.0138,3.0001,1.4138,2.9246
2024-10-11T14:23:30.215Z,0.0346,-0.9821,0.1282,0.0029,-0.0097,0.1413,-0.0331,0.0113,-0.0144,3.0032,1.4148,2.9216
2024-10-11T14:23:30.225Z,0.0342,-0.9729,0.1289,0.0029,-0.0097,0.1413,-0.0291,0.0083,-0.0114,3.0032,1.4148,2.9216
2024-10-11T14:23:30.237Z,0.0327,-0.9625,0.1286,0.0066,-0.2442,0.1706,-0.0291,0.0083,-0.0114,3.0064,1.4155,2.9185
2024-10-11T14:23:30.245Z,0.0338,-0.9670,0.1372,0.0066,-0.2442,0.1706,-0.0264,0.0119,-0.0129,3.0064,1.4155,2.9185
2024-10-11T14:23:30.255Z,0.0338,-0.9670,0.1372,0.0066,-0.2442,0.1706,-0.0215,0.0132,-0.0135,3.0064,1.4155,2.9185
2024-10-11T14:23:30.266Z,0.0315,-0.9691,0.1395,0.0588,-0.2096,0.0714,-0.0270,0.0137,-0.0158,3.0097,1.4161,2.9154
2024-10-11T14:23:30.275Z,0.0274,-0.9654,0.1434,0.0588,-0.2096,0.0714,-0.0205,0.0098,-0.0175,3.0097,1.4161,2.9154
2024-10-11T14:23:30.285Z,0.0289,-0.9651,0.1465,0.0588,-0.2096,0.0714,-0.0168,0.0100,-0.0202,3.0097,1.4161,2.9154
2024-10-11T14:23:30.296Z,0.0290,-0.9659,0.1474,0.0143,-0.2061,0.0403,-0.0167,0.0122,-0.0179,3.0141,1.4166,2.9111
2024-10-11T14:23:30.305Z,0.0372,-0.9710,0.1432,0.0143,-0.2061,0.0403,-0.0123,0.0125,-0.0171,3.0141,1.4166,2.9111
2024-10-11T14:23:30.315Z,0.0379,-0.9813,0.1456,0.0143,-0.2061,0.0403,-0.0118,0.0159,-0.0157,3.0141,1.4166,2.9111
2024-10-11T14:23:30.326Z,0.0431,-0.9878,0.1430,-0.0776,0.0041,0.0171,-0.0110,0.0132,-0.0145,3.0177,1.4169,2.9076
2024-10-11T14:23:30.336Z,0.0404,-0.9897,0.1505,-0.0776,0.0041,0.0171,-0.0078,0.0135,-0.0160,3.0177,1.4169,2.9076
2024-10-11T14:23:30.345Z,0.0369,-0.9785,0.1524,-0.0776,0.0041,0.0171,-0.0046,0.0132,-0.0181,3.0177,1.4169,2.9076
2024-10-11T14:23:30.356Z,0.0369,-0.9785,0.1524,0.0096,-0.1179,0.0086,-0.0016,0.0132,-0.0176,3.0209,1.4169,2.9046
2024-10-11T14:23:30.365Z,0.0346,-0.9827,0.1395,0.0096,-0.1179,0.0086,-0.0017,0.0112,-0.0179,3.0209,1.4169,2.9046
2024-10-11T14:23:30.375Z,0.0346,-0.9827,0.1395,0.0096,-0.1179,0.0086,0.0010,0.0111,-0.0200,3.0209,1.4169,2.9046
2024-10-11T14:23:30.387Z,0.0388,-0.9832,0.1401,-0.0005,-0.0566,0.0706,0.0022,0.0099,-0.0207,3.0242,1.4168,2.9014
2024-10-11T14:23:30.395Z,0.0366,-0.9911,0.1550,-0.0005,-0.0566,0.0706,0.0068,0.0074,-0.0185,3.0242,1.4168,2.9014
2024-10-11T14:23:30.405Z,0.0345,-0.9920,0.1653,-0.0005,-0.0566,0.0706,0.0068,0.0074,-0.0185,3.0242,1.4168,2.9014
2024-10-11T14:23:30.416Z,0.0345,-0.9920,0.1653,0.0279,0.0342,-0.1325,0.0080,0.0009,-0.0193,3.0275,1.4164,2.8980
2024-10-11T14:23:30.425Z,0.0425,-0.9963,0.1607,0.0279,0.0342,-0.1325,0.0059,-0.0014,-0.0190,3.0275,1.4164,2.8980
2024-10-11T14:23:30.435Z,0.0425,-0.9963,0.1607,0.0279,0.0342,-0.1325,0.0062,0.0010,-0.0190,3.0275,1.4164,2.8980
2024-10-11T14:23:30.446Z,0.0388,-0.9943,0.1745,0.0148,0.0580,-0.2364,0.0049,-0.0040,-0.0198,3.0307,1.4161,2.8946
2024-10-11T14:23:30.454Z,0.0340,-0.9913,0.1708,0.0148,0.0580,-0.2364,0.0044,-0.0049,-0.0210,3.0307,1.4161,2.8946
2024-10-11T14:23:30.465Z,0.0328,-0.9847,0.1843,0.0148,0.0580,-0.2364,-0.0015,-0.0065,-0.0256,3.0307,1.4161,2.8946
2024-10-11T14:23:30.476Z,0.0328,-0.9847,0.1843,0.0696,-0.0212,-0.4042,-0.0053,-0.0119,-0.0251,3.0347,1.4159,2.8902
2024-10-11T14:23:30.485Z,0.0278,-0.9853,0.1923,0.0696,-0.0212,-0.4042,-0.0101,-0.0160,-0.0255,3.0347,1.4159,2.8902
2024-10-11T14:23:30.495Z,0.0328,-0.9922,0.1850,0.0696,-0.0212,-0.4042,-0.0098,-0.0223,-0.0260,3.0347,1.4159,2.8902
2024-10-11T14:23:30.506Z,0.0328,-0.9870,0.1768,0.0668,0.0283,-0.3184,-0.0098,-0.0223,-0.0260,3.0396,1.4159,2.8845
2024-10-11T14:23:30.515Z,0.0316,-0.9796,0.1723,0.0668,0.0283,-0.3184,-0.0116,-0.0305,-0.0256,3.0396,1.4159,2.8845
2024-10-11T14:23:30.525Z,0.0333,-0.9738,0.1598,0.0668,0.0283,-0.3184,-0.0125,-0.0344,-0.0257,3.0396,1.4159,2.8845
2024-10-11T14:23:30.537Z,0.0333,-0.9738,0.1598,0.0787,-0.1897,-0.1127,-0.0144,-0.0365,-0.0231,3.0447,1.4160,2.8782
2024-10-11T14:23:30.545Z,0.0383,-0.9590,0.1528,0.0787,-0.1897,-0.1127,-0.0128,-0.0376,-0.0225,3.0447,1.4160,2.8782
2024-10-11T14:23:30.555Z,0.0383,-0.9590,0.1528,0.0787,-0.1897,-0.1127,-0.0143,-0.0374,-0.0260,3.0447,1.4160,2.8782
2024-10-11T14:23:30.565Z,0.0412,-0.9578,0.1563,-0.0228,-0.3004,-0.1184,-0.0110,-0.0370,-0.0204,3.0487,1.4160,2.8730
2024-10-11T14:23:30.575Z,0.0444,-0.9633,0.1382,-0.0228,-0.3004,-0.1184,-0.0103,-0.0355,-0.0199,3.0487,1.4160,2.8730
2024-10-11T14:23:30.585Z,0.0444,-0.9633,0.1382,-0.0228,-0.3004,-0.1184,-0.0028,-0.0335,-0.0181,3.0487,1.4160,2.8730
2024-10-11T14:23:30.595Z,0.0417,-0.9712,0.1293,0.0127,-0.1761,0.2138,-0.0014,-0.0310,-0.0187,3.0519,1.4158,2.8685
2024-10-11T14:23:30.605Z,0.0455,-0.9730,0.1301,0.0127,-0.1761,0.2138,0.0031,-0.0231,-0.0180,3.0519,1.4158,2.8685
2024-10-11T14:23:30.615Z,0.0492,-0.9747,0.1227,0.0127,-0.1761,0.2138,0.0123,-0.0237,-0.0173,3.0519,1.4158,2.8685
2024-10-11T14:23:30.625Z,0.0492,-0.9747,0.1227,-0.0941,-0.1431,0.2744,0.0124,-0.0226,-0.0123,3.0539,1.4154,2.8655
2024-10-11T14:23:30.637Z,0.0484,-0.9630,0.1270,-0.0941,-0.1431,0.2744,0.0190,-0.0232,-0.0097,3.0539,1.4154,2.8655
2024-10-11T14:23:30.645Z,0.0498,-0.9657,0.1291,-0.0941,-0.1431,0.2744,0.0238,-0.0229,-0.0094,3.0539,1.4154,2.8655
2024-10-11T14:23:30.656Z,0.0488,-0.9697,0.1324,-0.0586,-0.2076,0.2195,0.0238,-0.0229,-0.0094,3.0540,1.4146,2.8645
2024-10-11T14:23:30.665Z,0.0498,-0.9749,0.1301,-0.0586,-0.2076,0.2195,0.0318,-0.0214,-0.0027,3.0540,1.4146,2.8645
2024-10-11T14:23:30.675Z,0.0540,-0.9792,0.1267,-0.0586,-0.2076,0.2195,0.0328,-0.0157,0.0004,3.0540,1.4146,2.8645
2024-10-11T14:23:30.687Z,0.0540,-0.9792,0.1267,-0.1158,-0.0807,0.2892,0.0418,-0.0189,0.0019,3.0524,1.4136,2.8653
2024-10-11T14:23:30.695Z,0.0555,-0.9869,0.1185,-0.1158,-0.0807,0.2892,0.0447,-0.0105,0.0044,3.0524,1.4136,2.8653
2024-10-11T14:23:30.705Z,0.0506,-0.9945,0.1112,-0.1158,-0.0807,0.2892,0.0534,-0.0110,0.0067,3.0524,1.4136,2.8653
2024-10-11T14:23:30.715Z,0.0495,-0.9981,0.1216,-0.0888,0.1029,0.3440,0.0553,-0.0063,0.0094,3.0487,1.4123,2.8683
2024-10-11T14:23:30.725Z,0.0523,-0.9967,0.1282,-0.0888,0.1029,0.3440,0.0591,-0.0041,0.0087,3.0487,1.4123,2.8683
2024-10-11T14:23:30.736Z,0.0552,-0.9900,0.1320,-0.0888,0.1029,0.3440,0.0614,0.0078,0.0129,3.0487,1.4123,2.8683
2024-10-11T14:23:30.745Z,0.0552,-0.9900,0.1320,-0.1335,-0.0074,0.2612,0.0629,0.0097,0.0161,3.0435,1.4107,2.8733
2024-10-11T14:23:30.754Z,0.0551,-0.9831,0.1227,-0.1335,-0.0074,0.2612,0.0653,0.0131,0.0173,3.0435,1.4107,2.8733
2024-10-11T14:23:30.765Z,0.0481,-0.9684,0.1292,-0.1335,-0.0074,0.2612,0.0641,0.0174,0.0182,3.0435,1.4107,2.8733
2024-10-11T14:23:30.776Z,0.0419,-0.9818,0.1376,-0.0291,-0.1360,0.2101,0.0676,0.0179,0.0188,3.0372,1.4090,2.8796
2024-10-11T14:23:30.786Z,0.0390,-1.0056,0.1481,-0.0291,-0.1360,0.2101,0.0698,0.0188,0.0196,3.0372,1.4090,2.8796
2024-10-11T14:23:30.795Z,0.0403,-1.0230,0.1535,-0.0291,-0.1360,0.2101,0.0676,0.0211,0.0185,3.0372,1.4090,2.8796
2024-10-11T14:23:30.806Z,0.0403,-1.0230,0.1535,0.0298,0.3843,0.0072,0.0616,0.0198,0.0196,3.0305,1.4072,2.8866
2024-10-11T14:23:30.815Z,0.0354,-1.0164,0.1889,0.0298,0.3843,0.0072,0.0560,0.0214,0.0185,3.0305,1.4072,2.8866
2024-10-11T14:23:30.825Z,0.0364,-1.0252,0.1880,0.0298,0.3843,0.0072,0.0496,0.0228,0.0171,3.0305,1.4072,2.8866
2024-10-11T14:23:30.837Z,0.0364,-1.0252,0.1880,0.0536,0.4268,-0.2475,0.0444,0.0228,0.0180,3.0248,1.4058,2.8926
2024-10-11T14:23:30.845Z,0.0312,-1.0251,0.2032,0.0536,0.4268,-0.2475,0.0352,0.0205,0.0156,3.0248,1.4058,2.8926
2024-10-11T14:23:30.855Z,0.0308,-1.0181,0.2254,0.0536,0.4268,-0.2475,0.0208,0.0205,0.0142,3.0248,1.4058,2.8926
2024-10-11T14:23:30.865Z,0.0267,-1.0060,0.2371,0.1155,0.2601,-0.7392,0.0106,0.0087,0.0137,3.0212,1.4052,2.8965
2024-10-11T14:23:30.875Z,0.0335,-1.0007,0.2380,0.1155,0.2601,-0.7392,-0.0039,0.0127,0.0127,3.0212,1.4052,2.8965
2024-10-11T14:23:30.885Z,0.0255,-1.0013,0.2319,0.1155,0.2601,-0.7392,-0.0167,0.0180,0.0095,3.0212,1.4052,2.8965
2024-10-11T14:23:30.895Z,0.0392,-1.0053,0.2291,0.1006,0.1515,-0.6604,-0.0292,0.0189,0.0081,3.0198,1.4056,2.8983
2024-10-11T14:23:30.905Z,0.0358,-1.0184,0.2178,0.1006,0.1515,-0.6604,-0.0339,0.0217,0.0096,3.0198,1.4056,2.8983
2024-10-11T14:23:30.915Z,0.0358,-1.0325,0.1923,0.1006,0.1515,-0.6604,-0.0408,0.0240,0.0067,3.0198,1.4056,2.8983
2024-10-11T14:23:30.925Z,0.0342,-1.0166,0.1946,0.0318,0.3913,-0.2940,-0.0479,0.0274,0.0061,3.0198,1.4067,2.8986
2024-10-11T14:23:30.936Z,0.0378,-0.9914,0.2026,0.0318,0.3913,-0.2940,-0.0554,0.0250,0.0080,3.0198,1.4067,2.8986
2024-10-11T14:23:30.945Z,0.0391,-0.9836,0.1998,0.0318,0.3913,-0.2940,-0.0585,0.0225,0.0048,3.0198,1.4067,2.8986
2024-10-11T14:23:30.955Z,0.0391,-0.9836,0.1998,0.0737,0.0087,-0.2357,-0.0585,0.0225,0.0048,3.0209,1.4083,2.8980
2024-10-11T14:23:30.965Z,0.0154,-0.9911,0.1638,0.0737,0.0087,-0.2357,-0.0662,0.0181,0.0005,3.0209,1.4083,2.8980
2024-10-11T14:23:30.975Z,0.0260,-0.9847,0.1717,0.0737,0.0087,-0.2357,-0.0703,0.0182,-0.0035,3.0209,1.4083,2.8980
2024-10-11T14:23:30.987Z,0.0332,-0.9843,0.1642,0.0637,-0.0235,-0.1290,-0.0724,0.0219,-0.0032,3.0238,1.4101,2.8955
2024-10-11T14:23:30.995Z,0.0333,-0.9843,0.1553,0.0637,-0.0235,-0.1290,-0.0723,0.0203,-0.0037,3.0238,1.4101,2.8955
2024-10-11T14:23:31.006Z,0.0391,-0.9926,0.1585,0.0637,-0.0235,-0.1290,-0.0716,0.0186,-0.0038,3.0238,1.4101,2.8955
2024-10-11T14:23:31.015Z,0.0371,-0.9959,0.1513,0.0091,0.0806,-0.0273,-0.0745,0.0213,-0.0104,3.0276,1.4121,2.8921
2024-10-11T14:23:31.025Z,0.0412,-0.9993,0.1454,0.0091,0.0806,-0.0273,-0.0687,0.0236,-0.0055,3.0276,1.4121,2.8921
2024-10-11T14:23:31.037Z,0.0404,-1.0041,0.1248,0.0091,0.0806,-0.0273,-0.0649,0.0272,-0.0056,3.0276,1.4121,2.8921
2024-10-11T14:23:31.045Z,0.0415,-1.0054,0.1148,-0.0210,0.2063,0.3295,-0.0576,0.0284,-0.0061,3.0316,1.4139,2.8886
2024-10-11T14:23:31.055Z,0.0422,-0.9906,0.1357,-0.0210,0.2063,0.3295,-0.0582,0.0260,-0.0065,3.0316,1.4139,2.8886
2024-10-11T14:23:31.065Z,0.0404,-0.9809,0.1379,-0.0210,0.2063,0.3295,-0.0531,0.0273,-0.0086,3.0316,1.4139,2.8886
2024-10-11T14:23:31.075Z,0.0340,-0.9865,0.1273,0.0304,-0.0568,0.0950,-0.0510,0.0265,-0.0111,3.0355,1.4154,2.8853
2024-10-11T14:23:31.087Z,0.0414,-0.9893,0.1327,0.0304,-0.0568,0.0950,-0.0502,0.0254,-0.0082,3.0355,1.4154,2.8853
2024-10-11T14:23:31.095Z,0.0398,-0.9814,0.1315,0.0304,-0.0568,0.0950,-0.0445,0.0229,-0.0098,3.0355,1.4154,2.8853
2024-10-11T14:23:31.106Z,0.0398,-0.9814,0.1315,-0.0376,-0.0948,0.1776,-0.0373,0.0239,-0.0086,3.0393,1.4167,2.8821
2024-10-11T14:23:31.115Z,0.0444,-0.9735,0.1128,-0.0376,-0.0948,0.1776,-0.0320,0.0225,-0.0102,3.0393,1.4167,2.8821
2024-10-11T14:23:31.125Z,0.0444,-0.9726,0.1178,-0.0376,-0.0948,0.1776,-0.0262,0.0278,-0.0101,3.0393,1.4167,2.8821
2024-10-11T14:23:31.134Z,0.0444,-0.9726,0.1178,-0.0114,-0.1515,0.2807,-0.0216,0.0257,-0.0100,3.0422,1.4174,2.8797
2024-10-11T14:23:31.145Z,0.0474,-0.9690,0.1172,-0.0114,-0.1515,0.2807,-0.0161,0.0264,-0.0063,3.0422,1.4174,2.8797
2024-10-11T14:23:31.155Z,0.0476,-0.9672,0.1184,-0.0114,-0.1515,0.2807,-0.0103,0.0268,-0.0062,3.0422,1.4174,2.8797
2024-10-11T14:23:31.165Z,0.0535,-0.9741,0.1231,-0.1143,-0.1741,0.2596,-0.0103,0.0268,-0.0048,3.0440,1.4177,2.8784
2024-10-11T14:23:31.175Z,0.0543,-0.9773,0.1390,-0.1143,-0.1741,0.2596,-0.0100,0.0284,-0.0018,3.0440,1.4177,2.8784
2024-10-11T14:23:31.185Z,0.0627,-0.9761,0.1493,-0.1143,-0.1741,0.2596,-0.0067,0.0283,0.0044,3.0440,1.4177,2.8784
2024-10-11T14:23:31.195Z,0.0590,-0.9784,0.1466,-0.2451,-0.1217,0.0105,-0.0079,0.0335,0.0045,3.0444,1.4181,2.8787
2024-10-11T14:23:31.206Z,0.0531,-0.9954,0.1384,-0.2451,-0.1217,0.0105,-0.0061,0.0321,0.0076,3.0444,1.4181,2.8787
2024-10-11T14:23:31.215Z,0.0608,-1.0057,0.1476,-0.2451,-0.1217,0.0105,-0.0075,0.0354,0.0088,3.0444,1.4181,2.8787
2024-10-11T14:23:31.225Z,0.0496,-1.0111,0.1441,-0.1532,0.1948,0.0078,-0.0037,0.0331,0.0117,3.0434,1.4184,2.8805
2024-10-11T14:23:31.235Z,0.0516,-1.0114,0.1569,-0.1532,0.1948,0.0078,-0.0027,0.0329,0.0110,3.0434,1.4184,2.8805
2024-10-11T14:23:31.245Z,0.0449,-1.0161,0.1603,-0.1532,0.1948,0.0078,-0.0060,0.0290,0.0117,3.0434,1.4184,2.8805
2024-10-11T14:23:31.255Z,0.0449,-1.0161,0.1603,-0.0566,0.2514,-0.2261,-0.0115,0.0245,0.0104,3.0422,1.4188,2.8823
2024-10-11T14:23:31.265Z,0.0451,-1.0072,0.1750,-0.0566,0.2514,-0.2261,-0.0159,0.0244,0.0096,3.0422,1.4188,2.8823
2024-10-11T14:23:31.274Z,0.0418,-1.0036,0.1828,-0.0566,0.2514,-0.2261,-0.0182,0.0197,0.0101,3.0422,1.4188,2.8823
2024-10-11T14:23:31.285Z,0.0355,-1.0000,0.1854,0.0117,0.1121,-0.3256,-0.0254,0.0136,0.0084,3.0414,1.4194,2.8834
2024-10-11T14:23:31.295Z,0.0295,-1.0078,0.1899,0.0117,0.1121,-0.3256,-0.0281,0.0141,0.0089,3.0414,1.4194,2.8834
2024-10-11T14:23:31.305Z,0.0356,-1.0116,0.1974,0.0117,0.1121,-0.3256,-0.0388,0.0090,0.0055,3.0414,1.4194,2.8834
2024-10-11T14:23:31.315Z,0.0394,-1.0159,0.1949,0.0045,0.2389,-0.5051,-0.0425,0.0017,0.0066,3.0419,1.4205,2.8830
2024-10-11T14:23:31.325Z,0.0402,-1.0159,0.1830,0.0045,0.2389,-0.5051,-0.0484,0.0062,0.0083,3.0419,1.4205,2.8830
2024-10-11T14:23:31.335Z,0.0458,-1.0131,0.1612,0.0045,0.2389,-0.5051,-0.0554,0.0105,0.0087,3.0419,1.4205,2.8830
2024-10-11T14:23:31.345Z,0.0504,-1.0011,0.1577,-0.1126,0.1826,-0.1548,-0.0569,0.0090,0.0100,3.0430,1.4219,2.8819
2024-10-11T14:23:31.355Z,0.0432,-0.9871,0.1470,-0.1126,0.1826,-0.1548,-0.0558,0.0080,0.0098,3.0430,1.4219,2.8819
2024-10-11T14:23:31.365Z,0.0439,-0.9824,0.1426,-0.1126,0.1826,-0.1548,-0.0546,0.0061,0.0101,3.0430,1.4219,2.8819
2024-10-11T14:23:31.375Z,0.0445,-0.9806,0.1348,-0.0667,-0.0770,0.0405,-0.0528,0.0057,0.0123,3.0434,1.4235,2.8815
2024-10-11T14:23:31.385Z,0.0444,-0.9765,0.1409,-0.0667,-0.0770,0.0405,-0.0514,-0.0009,0.0122,3.0434,1.4235,2.8815
2024-10-11T14:23:31.394Z,0.0431,-0.9777,0.1291,-0.0667,-0.0770,0.0405,-0.0508,0.0042,0.0159,3.0434,1.4235,2.8815
2024-10-11T14:23:31.406Z,0.0431,-0.9777,0.1291,-0.0404,-0.1064,0.1110,-0.0460,0.0082,0.0141,3.0428,1.4250,2.8820
2024-10-11T14:23:31.415Z,0.0476,-0.9888,0.1076,-0.0404,-0.1064,0.1110,-0.0391,0.0099,0.0202,3.0428,1.4250,2.8820
2024-10-11T14:23:31.425Z,0.0422,-1.0037,0.0988,-0.0404,-0.1064,0.1110,-0.0307,0.0174,0.0199,3.0428,1.4250,2.8820
2024-10-11T14:23:31.435Z,0.0421,-1.0099,0.0936,-0.0236,0.1808,0.4180,-0.0248,0.0176,0.0196,3.0407,1.4261,2.8842
2024-10-11T14:23:31.445Z,0.0396,-1.0039,0.0913,-0.0236,0.1808,0.4180,-0.0215,0.0230,0.0211,3.0407,1.4261,2.8842
2024-10-11T14:23:31.454Z,0.0395,-0.9899,0.0939,-0.0236,0.1808,0.4180,-0.0182,0.0271,0.0207,3.0407,1.4261,2.8842
2024-10-11T14:23:31.465Z,0.0377,-0.9770,0.1072,-0.0447,-0.0517,0.3977,-0.0157,0.0318,0.0234,3.0372,1.4268,2.8883
2024-10-11T14:23:31.474Z,0.0321,-0.9724,0.1310,-0.0447,-0.0517,0.3977,-0.0198,0.0366,0.0232,3.0372,1.4268,2.8883
2024-10-11T14:23:31.485Z,0.0309,-0.9792,0.1330,-0.0447,-0.0517,0.3977,-0.0203,0.0396,0.0225,3.0372,1.4268,2.8883
2024-10-11T14:23:31.495Z,0.0266,-0.9827,0.1268,0.0669,-0.0741,0.0872,-0.0185,0.0427,0.0223,3.0335,1.4276,2.8928
2024-10-11T14:23:31.505Z,0.0285,-0.9781,0.1279,0.0669,-0.0741,0.0872,-0.0193,0.0446,0.0234,3.0335,1.4276,2.8928
2024-10-11T14:23:31.515Z,0.0272,-0.9724,0.1300,0.0669,-0.0741,0.0872,-0.0158,0.0447,0.0222,3.0335,1.4276,2.8928
2024-10-11T14:23:31.525Z,0.0285,-0.9747,0.1256,0.0624,-0.1627,0.1243,-0.0165,0.0457,0.0226,3.0302,1.4284,2.8970
2024-10-11T14:23:31.535Z,0.0311,-0.9807,0.1172,0.0624,-0.1627,0.1243,-0.0176,0.0468,0.0223,3.0302,1.4284,2.8970
2024-10-11T14:23:31.545Z,0.0324,-0.9892,0.1261,0.0624,-0.1627,0.1243,-0.0133,0.0486,0.0236,3.0302,1.4284,2.8970
2024-10-11T14:23:31.554Z,0.0324,-0.9892,0.1261,0.0543,0.0162,0.0923,-0.0114,0.0498,0.0237,3.0265,1.4291,2.9020
2024-10-11T14:23:31.565Z,0.0263,-0.9973,0.1233,0.0543,0.0162,0.0923,-0.0070,0.0548,0.0218,3.0265,1.4291,2.9020
2024-10-11T14:23:31.575Z,0.0272,-0.9924,0.1150,0.0543,0.0162,0.0923,-0.0074,0.0553,0.0227,3.0265,1.4291,2.9020
2024-10-11T14:23:31.585Z,0.0349,-0.9859,0.1175,0.0107,-0.0235,0.2406,-0.0059,0.0556,0.0227,3.0222,1.4295,2.9075
2024-10-11T14:23:31.595Z,0.0302,-0.9881,0.1280,0.0107,-0.0235,0.2406,-0.0064,0.0505,0.0211,3.0222,1.4295,2.9075
2024-10-11T14:23:31.604Z,0.0215,-1.0009,0.1258,0.0107,-0.0235,0.2406,-0.0075,0.0532,0.0201,3.0222,1.4295,2.9075
2024-10-11T14:23:31.615Z,0.0169,-1.0141,0.1152,0.1300,0.1812,0.1979,-0.0074,0.0509,0.0183,3.0182,1.4298,2.9127
2024-10-11T14:23:31.625Z,0.0164,-1.0134,0.1226,0.1300,0.1812,0.1979,-0.0030,0.0498,0.0146,3.0182,1.4298,2.9127
2024-10-11T14:23:31.634Z,0.0234,-1.0144,0.1334,0.1300,0.1812,0.1979,-0.0036,0.0514,0.0143,3.0182,1.4298,2.9127
2024-10-11T14:23:31.645Z,0.0198,-1.0161,0.1342,0.0789,0.2298,-0.0008,-0.0068,0.0443,0.0113,3.0155,1.4301,2.9165
2024-10-11T14:23:31.655Z,0.0080,-1.0230,0.1317,0.0789,0.2298,-0.0008,-0.0038,0.0443,0.0080,3.0155,1.4301,2.9165
2024-10-11T14:23:31.664Z,0.0093,-1.0236,0.1292,0.0789,0.2298,-0.0008,-0.0075,0.0445,0.0031,3.0155,1.4301,2.9165
2024-10-11T14:23:31.675Z,0.0063,-1.0231,0.1551,0.2154,0.3363,-0.0550,-0.0117,0.0388,0.0009,3.0147,1.4304,2.9184
2024-10-11T14:23:31.684Z,0.0020,-1.0235,0.1797,0.2154,0.3363,-0.0550,-0.0186,0.0343,-0.0018,3.0147,1.4304,2.9184
2024-10-11T14:23:31.695Z,0.0008,-1.0201,0.1849,0.2154,0.3363,-0.0550,-0.0260,0.0334,-0.0065,3.0147,1.4304,2.9184
2024-10-11T14:23:31.706Z,0.0085,-1.0100,0.1950,0.2675,0.2421,-0.5381,-0.0363,0.0319,-0.0101,3.0168,1.4311,2.9171
2024-10-11T14:23:31.715Z,0.0063,-1.0011,0.2026,0.2675,0.2421,-0.5381,-0.0423,0.0302,-0.0124,3.0168,1.4311,2.9171
2024-10-11T14:23:31.725Z,0.0054,-1.0021,0.1900,0.2675,0.2421,-0.5381,-0.0441,0.0265,-0.0171,3.0168,1.4311,2.9171
2024-10-11T14:23:31.735Z,0.0128,-1.0079,0.1580,0.2408,0.1498,-0.4282,-0.0472,0.0284,-0.0203,3.0216,1.4322,2.9128
2024-10-11T14:23:31.745Z,0.0194,-1.0083,0.1477,0.2408,0.1498,-0.4282,-0.0480,0.0311,-0.0197,3.0216,1.4322,2.9128
2024-10-11T14:23:31.755Z,0.0254,-0.9935,0.1543,0.2408,0.1498,-0.4282,-0.0511,0.0342,-0.0191,3.0216,1.4322,2.9128
2024-10-11T14:23:31.765Z,0.0235,-0.9833,0.1454,0.0517,-0.0154,-0.1707,-0.0578,0.0337,-0.0206,3.0278,1.4336,2.9074
2024-10-11T14:23:31.775Z,0.0172,-0.9717,0.1394,0.0517,-0.0154,-0.1707,-0.0599,0.0354,-0.0216,3.0278,1.4336,2.9074
2024-10-11T14:23:31.785Z,0.0203,-0.9624,0.1319,0.0517,-0.0154,-0.1707,-0.0623,0.0322,-0.0236,3.0278,1.4336,2.9074
2024-10-11T14:23:31.795Z,0.0089,-0.9589,0.1215,0.1657,-0.2974,0.0513,-0.0658,0.0318,-0.0281,3.0355,1.4351,2.9006
2024-10-11T14:23:31.805Z,0.0090,-0.9602,0.1060,0.1657,-0.2974,0.0513,-0.0657,0.0297,-0.0282,3.0355,1.4351,2.9006
2024-10-11T14:23:31.815Z,0.0225,-0.9657,0.0857,0.1657,-0.2974,0.0513,-0.0613,0.0318,-0.0302,3.0355,1.4351,2.9006
2024-10-11T14:23:31.825Z,0.0352,-0.9755,0.0717,0.0401,-0.1947,0.5320,-0.0540,0.0314,-0.0276,3.0448,1.4366,2.8921
2024-10-11T14:23:31.835Z,0.0447,-0.9814,0.0695,0.0401,-0.1947,0.5320,-0.0460,0.0329,-0.0260,3.0448,1.4366,2.8921
2024-10-11T14:23:31.845Z,0.0413,-0.9893,0.0583,0.0401,-0.1947,0.5320,-0.0382,0.0391,-0.0217,3.0448,1.4366,2.8921
2024-10-11T14:23:31.855Z,0.0413,-0.9893,0.0583,-0.0171,0.0080,0.6924,-0.0305,0.0372,-0.0238,3.0522,1.4376,2.8855
2024-10-11T14:23:31.865Z,0.0361,-0.9967,0.0446,-0.0171,0.0080,0.6924,-0.0189,0.0371,-0.0210,3.0522,1.4376,2.8855
2024-10-11T14:23:31.875Z,0.0340,-0.9914,0.0664,-0.0171,0.0080,0.6924,-0.0171,0.0396,-0.0213,3.0522,1.4376,2.8855
2024-10-11T14:23:31.885Z,0.0375,-0.9839,0.0721,0.0023,-0.0555,0.5626,-0.0085,0.0336,-0.0172,3.0575,1.4379,2.8811
2024-10-11T14:23:31.895Z,0.0363,-0.9845,0.0666,0.0023,-0.0555,0.5626,-0.0010,0.0335,-0.0155,3.0575,1.4379,2.8811
2024-10-11T14:23:31.905Z,0.0354,-0.9883,0.0630,0.0023,-0.0555,0.5626,0.0087,0.0295,-0.0156,3.0575,1.4379,2.8811
2024-10-11T14:23:31.915Z,0.0359,-0.9946,0.0592,-0.0214,0.0067,0.6756,0.0147,0.0331,-0.0131,3.0604,1.4375,2.8789
2024-10-11T14:23:31.925Z,0.0272,-1.0048,0.0621,-0.0214,0.0067,0.6756,0.0249,0.0335,-0.0141,3.0604,1.4375,2.8789
2024-10-11T14:23:31.934Z,0.0368,-1.0098,0.0665,-0.0214,0.0067,0.6756,0.0337,0.0350,-0.0123,3.0604,1.4375,2.8789
2024-10-11T14:23:31.945Z,0.0326,-1.0204,0.0654,-0.0111,0.2333,0.6113,0.0425,0.0294,-0.0077,3.0611,1.4367,2.8789
2024-10-11T14:23:31.955Z,0.0389,-1.0315,0.0662,-0.0111,0.2333,0.6113,0.0508,0.0224,-0.0060,3.0611,1.4367,2.8789
2024-10-11T14:23:31.965Z,0.0359,-1.0305,0.0621,-0.0111,0.2333,0.6113,0.0587,0.0158,-0.0058,3.0611,1.4367,2.8789
2024-10-11T14:23:31.975Z,0.0346,-1.0246,0.0686,-0.0140,0.3687,0.6619,0.0637,0.0162,-0.0029,3.0593,1.4353,2.8810
2024-10-11T14:23:31.985Z,0.0280,-1.0167,0.0846,-0.0140,0.3687,0.6619,0.0699,0.0132,0.0009,3.0593,1.4353,2.8810
2024-10-11T14:23:31.995Z,0.0316,-1.0130,0.0998,-0.0140,0.3687,0.6619,0.0744,0.0107,0.0036,3.0593,1.4353,2.8810
2024-10-11T14:23:32.005Z,0.0271,-1.0074,0.1287,0.0554,0.1868,0.1484,0.0731,0.0082,0.0042,3.0550,1.4335,2.8853
2024-10-11T14:23:32.015Z,0.0354,-1.0113,0.1405,0.0554,0.1868,0.1484,0.0721,0.0108,0.0080,3.0550,1.4335,2.8853
2024-10-11T14:23:32.025Z,0.0312,-1.0127,0.1365,0.0554,0.1868,0.1484,0.0704,0.0104,0.0128,3.0550,1.4335,2.8853
2024-10-11T14:23:32.035Z,0.0327,-1.0125,0.1351,0.0372,0.2132,-0.0124,0.0684,0.0189,0.0128,3.0487,1.4316,2.8918
2024-10-11T14:23:32.045Z,0.0229,-1.0123,0.1392,0.0372,0.2132,-0.0124,0.0664,0.0319,0.0155,3.0487,1.4316,2.8918
2024-10-11T14:23:32.055Z,0.0118,-1.0139,0.1470,0.0372,0.2132,-0.0124,0.0629,0.0466,0.0121,3.0487,1.4316,2.8918
2024-10-11T14:23:32.065Z,-0.0002,-1.0159,0.1607,0.2589,0.2279,-0.1818,0.0540,0.0678,0.0037,3.0431,1.4298,2.8984
2024-10-11T14:23:32.075Z,-0.0154,-1.0250,0.1687,0.2589,0.2279,-0.1818,0.0478,0.0876,-0.0057,3.0431,1.4298,2.8984
2024-10-11T14:23:32.084Z,-0.0173,-1.0255,0.1833,0.2589,0.2279,-0.1818,0.0379,0.1158,-0.0147,3.0431,1.4298,2.8984
2024-10-11T14:23:32.095Z,-0.0221,-1.0155,0.1967,0.5109,0.3227,-0.5080,0.0305,0.1385,-0.0249,3.0434,1.4285,2.9009
2024-10-11T14:23:32.105Z,-0.0281,-1.0003,0.2122,0.5109,0.3227,-0.5080,0.0235,0.1599,-0.0392,3.0434,1.4285,2.9009
2024-10-11T14:23:32.115Z,-0.0191,-1.0013,0.2063,0.5109,0.3227,-0.5080,0.0184,0.1825,-0.0493,3.0434,1.4285,2.9009
2024-10-11T14:23:32.125Z,-0.0143,-1.0050,0.2055,0.4634,0.1417,-0.6503,0.0112,0.2064,-0.0631,3.0519,1.4276,2.8976
2024-10-11T14:23:32.135Z,-0.0105,-1.0084,0.2009,0.4634,0.1417,-0.6503,0.0094,0.2226,-0.0719,3.0519,1.4276,2.8976
2024-10-11T14:23:32.144Z,0.0025,-1.0127,0.1859,0.4634,0.1417,-0.6503,0.0090,0.2360,-0.0817,3.0519,1.4276,2.8976
2024-10-11T14:23:32.156Z,0.0090,-1.0123,0.1752,0.2947,0.2252,-0.3900,0.0126,0.2411,-0.0885,3.0670,1.4267,2.8893
2024-10-11T14:23:32.165Z,0.0166,-1.0074,0.1845,0.2947,0.2252,-0.3900,0.0115,0.2514,-0.0954,3.0670,1.4267,2.8893
2024-10-11T14:23:32.174Z,0.0246,-1.0042,0.1956,0.2947,0.2252,-0.3900,0.0108,0.2547,-0.1028,3.0670,1.4267,2.8893
2024-10-11T14:23:32.185Z,0.0380,-1.0019,0.1949,0.0588,0.1419,-0.5457,0.0108,0.2614,-0.1093,3.0861,1.4256,2.8777
2024-10-11T14:23:32.195Z,0.0395,-0.9889,0.1875,0.0588,0.1419,-0.5457,0.0088,0.2657,-0.1122,3.0861,1.4256,2.8777
2024-10-11T14:23:32.205Z,0.0480,-0.9769,0.1798,0.0588,0.1419,-0.5457,0.0103,0.2720,-0.1208,3.0861,1.4256,2.8777
2024-10-11T14:23:32.215Z,0.0544,-0.9638,0.1713,-0.1202,-0.1827,-0.3373,0.0048,0.2791,-0.1238,3.1087,1.4244,2.8631
2024-10-11T14:23:32.224Z,0.0585,-0.9460,0.1635,-0.1202,-0.1827,-0.3373,0.0037,0.2816,-0.1252,3.1087,1.4244,2.8631
2024-10-11T14:23:32.235Z,0.0631,-0.9374,0.1618,-0.1202,-0.1827,-0.3373,0.0023,0.2800,-0.1281,3.1087,1.4244,2.8631
2024-10-11T14:23:32.245Z,0.0756,-0.9402,0.1583,-0.2570,-0.4987,-0.1601,0.0004,0.2765,-0.1281,3.1334,1.4232,2.8469
2024-10-11T14:23:32.255Z,0.0916,-0.9397,0.1597,-0.2570,-0.4987,-0.1601,-0.0006,0.2689,-0.1241,3.1334,1.4232,2.8469
2024-10-11T14:23:32.265Z,0.1093,-0.9288,0.1494,-0.2570,-0.4987,-0.1601,-0.0022,0.2589,-0.1171,3.1334,1.4232,2.8469
2024-10-11T14:23:32.275Z,0.1091,-0.9180,0.1372,-0.6317,-0.6394,-0.0085,-0.0033,0.2511,-0.1084,-3.1271,1.4222,2.8321
2024-10-11T14:23:32.285Z,0.1171,-0.9029,0.1378,-0.6317,-0.6394,-0.0085,-0.0074,0.2434,-0.1002,-3.1271,1.4222,2.8321
2024-10-11T14:23:32.295Z,0.1040,-0.8883,0.1446,-0.6317,-0.6394,-0.0085,-0.0084,0.2421,-0.0933,-3.1271,1.4222,2.8321
2024-10-11T14:23:32.305Z,0.0997,-0.8847,0.1397,-0.5284,-1.0177,-0.0394,-0.0070,0.2342,-0.0878,-3.1085,1.4215,2.8207
2024-10-11T14:23:32.315Z,0.0855,-0.8836,0.1261,-0.5284,-1.0177,-0.0394,-0.0085,0.2331,-0.0854,-3.1085,1.4215,2.8207
2024-10-11T14:23:32.324Z,0.0811,-0.8875,0.1156,-0.5284,-1.0177,-0.0394,-0.0112,0.2325,-0.0802,-3.1085,1.4215,2.8207
2024-10-11T14:23:32.335Z,0.0880,-0.8949,0.1198,-0.3634,-0.9753,0.2277,-0.0103,0.2325,-0.0732,-3.0927,1.4209,2.8120
2024-10-11T14:23:32.345Z,0.0856,-0.9081,0.1171,-0.3634,-0.9753,0.2277,-0.0114,0.2309,-0.0658,-3.0927,1.4209,2.8120
2024-10-11T14:23:32.355Z,0.0788,-0.9140,0.1136,-0.3634,-0.9753,0.2277,-0.0138,0.2349,-0.0600,-3.0927,1.4209,2.8120
2024-10-11T14:23:32.365Z,0.0644,-0.9256,0.1101,-0.2165,-0.6816,0.2824,-0.0152,0.2359,-0.0520,-3.0804,1.4207,2.8065
2024-10-11T14:23:32.374Z,0.0626,-0.9397,0.1124,-0.2165,-0.6816,0.2824,-0.0217,0.2369,-0.0506,-3.0804,1.4207,2.8065
2024-10-11T14:23:32.385Z,0.0626,-0.9496,0.1081,-0.2165,-0.6816,0.2824,-0.0230,0.2374,-0.0438,-3.0804,1.4207,2.8065
2024-10-11T14:23:32.395Z,0.0494,-0.9537,0.1053,-0.0711,-0.3695,0.3487,-0.0292,0.2415,-0.0430,-3.0704,1.4208,2.8035
2024-10-11T14:23:32.406Z,0.0407,-0.9654,0.1124,-0.0711,-0.3695,0.3487,-0.0312,0.2485,-0.0402,-3.0704,1.4208,2.8035
2024-10-11T14:23:32.415Z,0.0400,-0.9751,0.1239,-0.0711,-0.3695,0.3487,-0.0290,0.2550,-0.0391,-3.0704,1.4208,2.8035
2024-10-11T14:23:32.424Z,0.0301,-0.9909,0.1103,0.1298,-0.0698,0.2084,-0.0230,0.2649,-0.0347,-3.0615,1.4212,2.8021
2024-10-11T14:23:32.435Z,0.0254,-1.0184,0.0907,0.1298,-0.0698,0.2084,-0.0153,0.2683,-0.0343,-3.0615,1.4212,2.8021
2024-10-11T14:23:32.445Z,0.0332,-1.0418,0.0863,0.1298,-0.0698,0.2084,-0.0011,0.2674,-0.0312,-3.0615,1.4212,2.8021
2024-10-11T14:23:32.455Z,0.0374,-1.0669,0.0865,0.1343,0.6420,0.5351,0.0108,0.2626,-0.0241,-3.0555,1.4210,2.8038
2024-10-11T14:23:32.464Z,0.0455,-1.0854,0.0965,0.1343,0.6420,0.5351,0.0227,0.2502,-0.0187,-3.0555,1.4210,2.8038
2024-10-11T14:23:32.474Z,0.0441,-1.1030,0.1022,0.1343,0.6420,0.5351,0.0326,0.2407,-0.0136,-3.0555,1.4210,2.8038
2024-10-11T14:23:32.484Z,0.0366,-1.1162,0.1164,0.0810,1.1936,0.3164,0.0413,0.2270,-0.0135,-3.0545,1.4200,2.8099
2024-10-11T14:23:32.495Z,0.0325,-1.1212,0.1322,0.0810,1.1936,0.3164,0.0483,0.2132,-0.0116,-3.0545,1.4200,2.8099
2024-10-11T14:23:32.505Z,0.0392,-1.1274,0.1463,0.0810,1.1936,0.3164,0.0502,0.2032,-0.0076,-3.0545,1.4200,2.8099
2024-10-11T14:23:32.515Z,0.0454,-1.1186,0.1608,0.0487,1.3309,-0.0777,0.0595,0.1628,-0.0050,-3.0562,1.4186,2.8175
2024-10-11T14:23:32.524Z,0.0510,-1.1072,0.1666,0.0487,1.3309,-0.0777,0.0584,0.1587,-0.0015,-3.0562,1.4186,2.8175
2024-10-11T14:23:32.535Z,0.0492,-1.0929,0.1836,0.0487,1.3309,-0.0777,0.0530,0.1518,0.0039,-3.0562,1.4186,2.8175
2024-10-11T14:23:32.545Z,0.0616,-1.0780,0.2030,-0.0353,0.9443,-0.4516,0.0509,0.1229,0.0136,-3.0608,1.4170,2.8263
2024-10-11T14:23:32.555Z,0.0559,-1.0614,0.2192,-0.0353,0.9443,-0.4516,0.0482,0.0975,0.0206,-3.0608,1.4170,2.8263
2024-10-11T14:23:32.565Z,0.0505,-1.0441,0.2466,-0.0353,0.9443,-0.4516,0.0425,0.0701,0.0327,-3.0608,1.4170,2.8263
2024-10-11T14:23:32.575Z,0.0536,-1.0175,0.2681,-0.0855,0.4231,-1.0810,0.0307,0.0489,0.0423,-3.0692,1.4160,2.8363
2024-10-11T14:23:32.585Z,0.0492,-0.9998,0.2781,-0.0855,0.4231,-1.0810,0.0189,0.0205,0.0522,-3.0692,1.4160,2.8363
2024-10-11T14:23:32.595Z,0.0444,-0.9752,0.2814,-0.0855,0.4231,-1.0810,0.0090,-0.0027,0.0594,-3.0692,1.4160,2.8363
2024-10-11T14:23:32.606Z,0.0285,-0.9584,0.2638,0.0730,-0.2111,-1.2461,-0.0049,-0.0245,0.0707,-3.0811,1.4162,2.8478
2024-10-11T14:23:32.615Z,0.0187,-0.9358,0.2460,0.0730,-0.2111,-1.2461,-0.0110,-0.0478,0.0775,-3.0811,1.4162,2.8478
2024-10-11T14:23:32.625Z,0.0153,-0.9104,0.2312,0.0730,-0.2111,-1.2461,-0.0208,-0.0615,0.0851,-3.0811,1.4162,2.8478
2024-10-11T14:23:32.635Z,0.0221,-0.8944,0.2143,0.2282,-0.8421,-0.7616,-0.0268,-0.0611,0.0946,-3.0959,1.4174,2.8605
2024-10-11T14:23:32.645Z,0.0138,-0.8796,0.2046,0.2282,-0.8421,-0.7616,-0.0326,-0.0695,0.0999,-3.0959,1.4174,2.8605
2024-10-11T14:23:32.655Z,-0.0007,-0.8804,0.1778,0.2282,-0.8421,-0.7616,-0.0388,-0.0634,0.1036,-3.0959,1.4174,2.8605
2024-10-11T14:23:32.665Z,-0.0030,-0.8761,0.1681,0.4157,-1.0761,-0.2568,-0.0419,-0.0518,0.1067,-3.1136,1.4193,2.8759
2024-10-11T14:23:32.675Z,-0.0028,-0.8745,0.1563,0.4157,-1.0761,-0.2568,-0.0455,-0.0364,0.1071,-3.1136,1.4193,2.8759
2024-10-11T14:23:32.685Z,-0.0016,-0.8747,0.1346,0.4157,-1.0761,-0.2568,-0.0495,-0.0261,0.1059,-3.1136,1.4193,2.8759
2024-10-11T14:23:32.695Z,-0.0050,-0.8759,0.1215,0.3818,-1.1062,0.1768,-0.0532,-0.0085,0.1049,-3.1317,1.4215,2.8927
2024-10-11T14:23:32.706Z,-0.0050,-0.8736,0.1088,0.3818,-1.1062,0.1768,-0.0566,0.0024,0.1004,-3.1317,1.4215,2.8927
2024-10-11T14:23:32.715Z,0.0043,-0.8799,0.1008,0.3818,-1.1062,0.1768,-0.0577,0.0106,0.0976,-3.1317,1.4215,2.8927
2024-10-11T14:23:32.725Z,-0.0036,-0.8849,0.0940,0.3445,-1.0560,0.4316,-0.0565,0.0158,0.0920,3.1345,1.4238,2.9094
2024-10-11T14:23:32.735Z,0.0011,-0.8931,0.0769,0.3445,-1.0560,0.4316,-0.0515,0.0271,0.0856,3.1345,1.4238,2.9094
2024-10-11T14:23:32.745Z,0.0034,-0.9002,0.0770,0.3445,-1.0560,0.4316,-0.0471,0.0231,0.0829,3.1345,1.4238,2.9094
2024-10-11T14:23:32.755Z,0.0095,-0.9095,0.0787,0.2484,-0.8392,0.6307,-0.0443,0.0241,0.0759,3.1199,1.4257,2.9244
2024-10-11T14:23:32.765Z,0.0116,-0.9262,0.0713,0.2484,-0.8392,0.6307,-0.0354,0.0205,0.0718,3.1199,1.4257,2.9244
2024-10-11T14:23:32.775Z,0.0232,-0.9443,0.0746,0.2484,-0.8392,0.6307,-0.0288,0.0163,0.0681,3.1199,1.4257,2.9244
2024-10-11T14:23:32.785Z,0.0193,-0.9584,0.0774,0.0727,-0.3676,0.6486,-0.0182,0.0003,0.0628,3.1069,1.4270,2.9375
2024-10-11T14:23:32.795Z,0.0283,-0.9636,0.0962,0.0727,-0.3676,0.6486,-0.0094,-0.0150,0.0614,3.1069,1.4270,2.9375
2024-10-11T14:23:32.805Z,0.0336,-0.9683,0.1006,0.0727,-0.3676,0.6486,-0.0057,-0.0215,0.0623,3.1069,1.4270,2.9375
2024-10-11T14:23:32.815Z,0.0287,-0.9773,0.1078,-0.0308,-0.1656,0.3541,-0.0027,-0.0344,0.0599,3.0944,1.4276,2.9491
2024-10-11T14:23:32.825Z,0.0387,-0.9851,0.1277,-0.0308,-0.1656,0.3541,0.0013,-0.0504,0.0594,3.0944,1.4276,2.9491
2024-10-11T14:23:32.835Z,0.0547,-0.9972,0.1287,-0.0308,-0.1656,0.3541,0.0009,-0.0557,0.0617,3.0944,1.4276,2.9491
2024-10-11T14:23:32.845Z,0.0497,-1.0141,0.1223,-0.2711,0.1609,0.1622,-0.0003,-0.0642,0.0614,3.0817,1.4279,2.9597
2024-10-11T14:23:32.857Z,0.0495,-1.0327,0.1197,-0.2711,0.1609,0.1622,0.0028,-0.0713,0.0637,3.0817,1.4279,2.9597
2024-10-11T14:23:32.865Z,0.0444,-1.0471,0.1243,-0.2711,0.1609,0.1622,-0.0016,-0.0727,0.0621,3.0817,1.4279,2.9597
2024-10-11T14:23:32.875Z,0.0350,-1.0541,0.1368,-0.1425,0.6095,0.1014,-0.0008,-0.0783,0.0585,3.0686,1.4282,2.9702
2024-10-11T14:23:32.885Z,0.0234,-1.0502,0.1453,-0.1425,0.6095,0.1014,-0.0002,-0.0827,0.0540,3.0686,1.4282,2.9702
2024-10-11T14:23:32.895Z,0.0113,-1.0560,0.1575,-0.1425,0.6095,0.1014,-0.0078,-0.0895,0.0492,3.0686,1.4282,2.9702
2024-10-11T14:23:32.906Z,0.0120,-1.0495,0.1568,0.1227,0.6481,-0.1743,-0.0135,-0.0940,0.0437,3.0578,1.4286,2.9779
2024-10-11T14:23:32.914Z,0.0152,-1.0387,0.1673,0.1227,0.6481,-0.1743,-0.0185,-0.1051,0.0426,3.0578,1.4286,2.9779
2024-10-11T14:23:32.925Z,0.0160,-1.0249,0.1782,0.1227,0.6481,-0.1743,-0.0274,-0.1079,0.0406,3.0578,1.4286,2.9779
2024-10-11T14:23:32.935Z,0.0192,-1.0146,0.1798,0.0286,0.2803,-0.3868,-0.0313,-0.1092,0.0373,3.0499,1.4294,2.9824
2024-10-11T14:23:32.945Z,0.0148,-1.0038,0.1868,0.0286,0.2803,-0.3868,-0.0404,-0.1162,0.0328,3.0499,1.4294,2.9824
2024-10-11T14:23:32.955Z,0.0095,-1.0029,0.1864,0.0286,0.2803,-0.3868,-0.0401,-0.1193,0.0255,3.0499,1.4294,2.9824
2024-10-11T14:23:32.965Z,0.0031,-1.0046,0.1749,0.1586,0.1239,-0.4111,-0.0374,-0.1299,0.0215,3.0449,1.4306,2.9834
2024-10-11T14:23:32.975Z,0.0014,-1.0088,0.1782,0.1586,0.1239,-0.4111,-0.0413,-0.1259,0.0157,3.0449,1.4306,2.9834
2024-10-11T14:23:32.985Z,0.0117,-1.0078,0.1800,0.1586,0.1239,-0.4111,-0.0473,-0.1248,0.0131,3.0449,1.4306,2.9834
2024-10-11T14:23:32.995Z,0.0175,-1.0073,0.1884,0.0417,0.1666,-0.4822,-0.0492,-0.1189,0.0118,3.0432,1.4320,2.9812
2024-10-11T14:23:33.006Z,0.0229,-1.0008,0.1800,0.0417,0.1666,-0.4822,-0.0534,-0.1146,0.0060,3.0432,1.4320,2.9812
2024-10-11T14:23:33.015Z,0.0227,-1.0009,0.1659,0.0417,0.1666,-0.4822,-0.0504,-0.1080,0.0004,3.0432,1.4320,2.9812
2024-10-11T14:23:33.025Z,0.0204,-1.0047,0.1480,0.0379,0.1082,-0.2240,-0.0509,-0.1034,-0.0021,3.0444,1.4335,2.9764
2024-10-11T14:23:33.035Z,0.0334,-1.0066,0.1408,0.0379,0.1082,-0.2240,-0.0481,-0.0977,-0.0091,3.0444,1.4335,2.9764
2024-10-11T14:23:33.045Z,0.0350,-1.0014,0.1468,0.0379,0.1082,-0.2240,-0.0534,-0.0945,-0.0110,3.0444,1.4335,2.9764
2024-10-11T14:23:33.057Z,0.0446,-0.9958,0.1478,-0.1631,0.0737,-0.1550,-0.0517,-0.0880,-0.0136,3.0478,1.4349,2.9700
2024-10-11T14:23:33.065Z,0.0444,-1.0009,0.1411,-0.1631,0.0737,-0.1550,-0.0516,-0.0868,-0.0091,3.0478,1.4349,2.9700
2024-10-11T14:23:33.075Z,0.0487,-1.0069,0.1291,-0.1631,0.0737,-0.1550,-0.0503,-0.0864,-0.0081,3.0478,1.4349,2.9700
2024-10-11T14:23:33.085Z,0.0587,-1.0138,0.1123,-0.2966,0.1993,0.0938,-0.0459,-0.0805,-0.0088,3.0515,1.4362,2.9634
2024-10-11T14:23:33.095Z,0.0672,-1.0180,0.1030,-0.2966,0.1993,0.0938,-0.0399,-0.0696,-0.0076,3.0515,1.4362,2.9634
2024-10-11T14:23:33.106Z,0.0695,-1.0192,0.1046,-0.2966,0.1993,0.0938,-0.0339,-0.0667,-0.0035,3.0515,1.4362,2.9634
2024-10-11T14:23:33.115Z,0.0773,-1.0176,0.1143,-0.4814,0.2612,0.2218,-0.0302,-0.0589,0.0027,3.0533,1.4372,2.9593
2024-10-11T14:23:33.125Z,0.0762,-1.0151,0.1220,-0.4814,0.2612,0.2218,-0.0295,-0.0487,0.0057,3.0533,1.4372,2.9593
2024-10-11T14:23:33.135Z,0.0854,-1.0081,0.1251,-0.4814,0.2612,0.2218,-0.0249,-0.0377,0.0128,3.0533,1.4372,2.9593
2024-10-11T14:23:33.145Z,0.0778,-1.0045,0.1294,-0.5874,0.1508,0.0246,-0.0265,-0.0199,0.0149,3.0521,1.4381,2.9591
2024-10-11T14:23:33.156Z,0.0738,-1.0020,0.1326,-0.5874,0.1508,0.0246,-0.0277,-0.0144,0.0177,3.0521,1.4381,2.9591
2024-10-11T14:23:33.165Z,0.0682,-0.9953,0.1421,-0.5874,0.1508,0.0246,-0.0279,-0.0037,0.0213,3.0521,1.4381,2.9591
2024-10-11T14:23:33.175Z,0.0630,-0.9921,0.1431,-0.3906,0.0223,-0.1463,-0.0238,-0.0016,0.0237,3.0485,1.4389,2.9621
2024-10-11T14:23:33.185Z,0.0638,-0.9928,0.1358,-0.3906,0.0223,-0.1463,-0.0235,0.0034,0.0258,3.0485,1.4389,2.9621
2024-10-11T14:23:33.195Z,0.0532,-0.9978,0.1258,-0.3906,0.0223,-0.1463,-0.0222,0.0064,0.0245,3.0485,1.4389,2.9621
2024-10-11T14:23:33.206Z,0.0460,-0.9992,0.1205,-0.2766,0.0817,0.0737,-0.0201,0.0144,0.0206,3.0443,1.4397,2.9663
2024-10-11T14:23:33.215Z,0.0342,-0.9940,0.1154,-0.2766,0.0817,0.0737,-0.0208,0.0192,0.0169,3.0443,1.4397,2.9663
2024-10-11T14:23:33.224Z,0.0272,-0.9858,0.1140,-0.2766,0.0817,0.0737,-0.0217,0.0263,0.0126,3.0443,1.4397,2.9663
2024-10-11T14:23:33.235Z,0.0160,-0.9813,0.0962,0.0150,-0.0814,0.1986,-0.0124,0.0259,0.0058,3.0421,1.4403,2.9689
2024-10-11T14:23:33.245Z,0.0150,-0.9740,0.0864,0.0150,-0.0814,0.1986,-0.0082,0.0206,-0.0004,3.0421,1.4403,2.9689
2024-10-11T14:23:33.256Z,0.0103,-0.9657,0.0710,0.0150,-0.0814,0.1986,-0.0018,0.0142,-0.0081,3.0421,1.4403,2.9689
2024-10-11T14:23:33.265Z,0.0027,-0.9609,0.0702,0.1493,-0.2760,0.5812,0.0058,0.0054,-0.0152,3.0438,1.4403,2.9675
2024-10-11T14:23:33.275Z,-0.0033,-0.9543,0.0646,0.1493,-0.2760,0.5812,0.0124,0.0016,-0.0224,3.0438,1.4403,2.9675
2024-10-11T14:23:33.284Z,0.0065,-0.9534,0.0563,0.1493,-0.2760,0.5812,0.0175,0.0063,-0.0310,3.0438,1.4403,2.9675
2024-10-11T14:23:33.295Z,0.0005,-0.9483,0.0578,0.1629,-0.4021,0.7156,0.0264,-0.0003,-0.0367,3.0494,1.4396,2.9612
2024-10-11T14:23:33.307Z,0.0039,-0.9453,0.0526,0.1629,-0.4021,0.7156,0.0345,-0.0173,-0.0438,3.0494,1.4396,2.9612
2024-10-11T14:23:33.315Z,0.0106,-0.9399,0.0537,0.1629,-0.4021,0.7156,0.0415,-0.0253,-0.0498,3.0494,1.4396,2.9612
2024-10-11T14:23:33.324Z,0.0059,-0.9346,0.0681,0.1960,-0.5221,0.6971,0.0449,-0.0352,-0.0559,3.0582,1.4382,2.9515
2024-10-11T14:23:33.335Z,0.0171,-0.9311,0.0929,0.1960,-0.5221,0.6971,0.0457,-0.0396,-0.0589,3.0582,1.4382,2.9515
2024-10-11T14:23:33.345Z,0.0098,-0.9333,0.1221,0.1960,-0.5221,0.6971,0.0433,-0.0498,-0.0656,3.0582,1.4382,2.9515
2024-10-11T14:23:33.356Z,0.0235,-0.9418,0.1518,0.1167,-0.5342,-0.0583,0.0387,-0.0494,-0.0690,3.0702,1.4367,2.9381
2024-10-11T14:23:33.365Z,0.0333,-0.9584,0.1765,0.1167,-0.5342,-0.0583,0.0327,-0.0513,-0.0701,3.0702,1.4367,2.9381
2024-10-11T14:23:33.375Z,0.0327,-0.9760,0.2001,0.1167,-0.5342,-0.0583,0.0227,-0.0550,-0.0730,3.0702,1.4367,2.9381
2024-10-11T14:23:33.385Z,0.0370,-0.9879,0.2061,-0.0444,-0.0781,-0.7057,0.0187,-0.0576,-0.0745,3.0844,1.4354,2.9221
2024-10-11T14:23:33.395Z,0.0392,-0.9977,0.2138,-0.0444,-0.0781,-0.7057,0.0108,-0.0620,-0.0743,3.0844,1.4354,2.9221
2024-10-11T14:23:33.405Z,0.0391,-1.0025,0.2179,-0.0444,-0.0781,-0.7057,0.0041,-0.0703,-0.0728,3.0844,1.4354,2.9221
2024-10-11T14:23:33.415Z,0.0481,-1.0051,0.2320,-0.1360,0.1348,-0.9127,0.0009,-0.0725,-0.0750,3.1000,1.4347,2.9045
2024-10-11T14:23:33.425Z,0.0475,-1.0088,0.2352,-0.1360,0.1348,-0.9127,-0.0118,-0.0732,-0.0750,3.1000,1.4347,2.9045
2024-10-11T14:23:33.435Z,0.0441,-1.0149,0.2301,-0.1360,0.1348,-0.9127,-0.0177,-0.0758,-0.0728,3.1000,1.4347,2.9045
2024-10-11T14:23:33.445Z,0.0382,-1.0191,0.2324,-0.0564,0.2487,-0.9635,-0.0266,-0.0779,-0.0770,3.1167,1.4346,2.8854
2024-10-11T14:23:33.455Z,0.0412,-1.0210,0.2305,-0.0564,0.2487,-0.9635,-0.0331,-0.0773,-0.0766,3.1167,1.4346,2.8854
2024-10-11T14:23:33.465Z,0.0417,-1.0308,0.2333,-0.0564,0.2487,-0.9635,-0.0386,-0.0836,-0.0791,3.1167,1.4346,2.8854
2024-10-11T14:23:33.475Z,0.0522,-1.0353,0.2245,-0.0856,0.4299,-0.9577,-0.0428,-0.0899,-0.0750,3.1350,1.4351,2.8647
2024-10-11T14:23:33.485Z,0.0497,-1.0460,0.2095,-0.0856,0.4299,-0.9577,-0.0452,-0.0893,-0.0721,3.1350,1.4351,2.8647
2024-10-11T14:23:33.495Z,0.0504,-1.0559,0.1942,-0.0856,0.4299,-0.9577,-0.0505,-0.0894,-0.0713,3.1350,1.4351,2.8647
2024-10-11T14:23:33.506Z,0.0468,-1.0618,0.1787,-0.1187,0.6697,-0.5789,-0.0529,-0.0914,-0.0692,-3.1301,1.4358,2.8437
2024-10-11T14:23:33.515Z,0.0337,-1.0618,0.1588,-0.1187,0.6697,-0.5789,-0.0502,-0.0965,-0.0715,-3.1301,1.4358,2.8437
2024-10-11T14:23:33.524Z,0.0285,-1.0547,0.1417,-0.1187,0.6697,-0.5789,-0.0509,-0.1065,-0.0761,-3.1301,1.4358,2.8437
2024-10-11T14:23:33.535Z,0.0353,-1.0460,0.1324,0.1036,0.5840,-0.0864,-0.0478,-0.1132,-0.0771,-3.1112,1.4365,2.8215
2024-10-11T14:23:33.545Z,0.0450,-1.0385,0.1205,0.1036,0.5840,-0.0864,-0.0428,-0.1177,-0.0733,-3.1112,1.4365,2.8215
2024-10-11T14:23:33.554Z,0.0483,-1.0353,0.1015,0.1036,0.5840,-0.0864,-0.0392,-0.1163,-0.0724,-3.1112,1.4365,2.8215
2024-10-11T14:23:33.565Z,0.0356,-1.0257,0.0907,0.0220,0.3914,0.3153,-0.0339,-0.1195,-0.0730,-3.0932,1.4369,2.7998
2024-10-11T14:23:33.574Z,0.0330,-1.0126,0.0863,0.0220,0.3914,0.3153,-0.0291,-0.1231,-0.0742,-3.0932,1.4369,2.7998
2024-10-11T14:23:33.584Z,0.0262,-1.0026,0.0844,0.0220,0.3914,0.3153,-0.0231,-0.1253,-0.0772,-3.0932,1.4369,2.7998
2024-10-11T14:23:33.594Z,0.0225,-0.9983,0.0787,0.2392,0.0909,0.4192,-0.0163,-0.1291,-0.0767,-3.0754,1.4367,2.7781
2024-10-11T14:23:33.605Z,0.0350,-0.9890,0.0646,0.2392,0.0909,0.4192,-0.0053,-0.1340,-0.0783,-3.0754,1.4367,2.7781
2024-10-11T14:23:33.615Z,0.0442,-0.9865,0.0529,0.2392,0.0909,0.4192,0.0019,-0.1364,-0.0769,-3.0754,1.4367,2.7781
2024-10-11T14:23:33.624Z,0.0562,-0.9763,0.0572,0.0099,-0.0971,0.7114,0.0111,-0.1352,-0.0724,-3.0597,1.4359,2.7584
2024-10-11T14:23:33.635Z,0.0626,-0.9627,0.0632,0.0099,-0.0971,0.7114,0.0172,-0.1260,-0.0683,-3.0597,1.4359,2.7584
2024-10-11T14:23:33.645Z,0.0655,-0.9466,0.0718,0.0099,-0.0971,0.7114,0.0186,-0.1159,-0.0622,-3.0597,1.4359,2.7584
2024-10-11T14:23:33.654Z,0.0752,-0.9359,0.0824,-0.1611,-0.4978,0.4782,0.0210,-0.1093,-0.0532,-3.0487,1.4346,2.7436
2024-10-11T14:23:33.665Z,0.0823,-0.9334,0.0945,-0.1611,-0.4978,0.4782,0.0291,-0.1007,-0.0452,-3.0487,1.4346,2.7436
2024-10-11T14:23:33.674Z,0.0819,-0.9350,0.1007,-0.1611,-0.4978,0.4782,0.0300,-0.0982,-0.0417,-3.0487,1.4346,2.7436
2024-10-11T14:23:33.685Z,0.0748,-0.9393,0.1015,-0.2386,-0.5159,0.2509,0.0348,-0.0884,-0.0340,-3.0427,1.4333,2.7346
2024-10-11T14:23:33.695Z,0.0763,-0.9444,0.1111,-0.2386,-0.5159,0.2509,0.0346,-0.0804,-0.0284,-3.0427,1.4333,2.7346
2024-10-11T14:23:33.705Z,0.0717,-0.9513,0.1193,-0.2386,-0.5159,0.2509,0.0312,-0.0707,-0.0224,-3.0427,1.4333,2.7346
2024-10-11T14:23:33.715Z,0.0703,-0.9629,0.1229,-0.1421,-0.3384,0.0338,0.0316,-0.0572,-0.0150,-3.0414,1.4321,2.7309
2024-10-11T14:23:33.724Z,0.0788,-0.9730,0.1236,-0.1421,-0.3384,0.0338,0.0332,-0.0521,-0.0058,-3.0414,1.4321,2.7309
2024-10-11T14:23:33.735Z,0.0785,-0.9789,0.1330,-0.1421,-0.3384,0.0338,0.0299,-0.0426,-0.0024,-3.0414,1.4321,2.7309
2024-10-11T14:23:33.744Z,0.0655,-0.9797,0.1460,-0.1687,-0.1015,-0.1133,0.0277,-0.0385,0.0012,-3.0433,1.4312,2.7312
2024-10-11T14:23:33.755Z,0.0529,-0.9813,0.1551,-0.1687,-0.1015,-0.1133,0.0276,-0.0378,0.0066,-3.0433,1.4312,2.7312
2024-10-11T14:23:33.765Z,0.0555,-0.9823,0.1631,-0.1687,-0.1015,-0.1133,0.0210,-0.0363,0.0077,-3.0433,1.4312,2.7312
2024-10-11T14:23:33.774Z,0.0591,-0.9860,0.1572,-0.0298,-0.0704,-0.3177,0.0201,-0.0302,0.0129,-3.0471,1.4306,2.7338
2024-10-11T14:23:33.785Z,0.0615,-0.9895,0.1649,-0.0298,-0.0704,-0.3177,0.0140,-0.0229,0.0183,-3.0471,1.4306,2.7338
2024-10-11T14:23:33.795Z,0.0572,-0.9910,0.1691,-0.0298,-0.0704,-0.3177,0.0105,-0.0210,0.0210,-3.0471,1.4306,2.7338
2024-10-11T14:23:33.805Z,0.0544,-0.9916,0.1673,0.0036,0.0104,-0.3993,0.0067,-0.0155,0.0230,-3.0519,1.4305,2.7377
2024-10-11T14:23:33.815Z,0.0606,-0.9876,0.1645,0.0036,0.0104,-0.3993,0.0011,-0.0100,0.0278,-3.0519,1.4305,2.7377
2024-10-11T14:23:33.824Z,0.0703,-0.9827,0.1674,0.0036,0.0104,-0.3993,-0.0028,-0.0004,0.0343,-3.0519,1.4305,2.7377
2024-10-11T14:23:33.835Z,0.0703,-0.9778,0.1577,-0.1672,-0.0852,-0.3230,-0.0057,0.0057,0.0396,-3.0584,1.4309,2.7438
2024-10-11T14:23:33.845Z,0.0664,-0.9734,0.1448,-0.1672,-0.0852,-0.3230,-0.0076,0.0114,0.0435,-3.0584,1.4309,2.7438
2024-10-11T14:23:33.855Z,0.0672,-0.9694,0.1389,-0.1672,-0.0852,-0.3230,-0.0105,0.0246,0.0458,-3.0584,1.4309,2.7438
2024-10-11T14:23:33.865Z,0.0613,-0.9658,0.1355,-0.1208,-0.2300,-0.0877,-0.0117,0.0341,0.0539,-3.0668,1.4317,2.7525
2024-10-11T14:23:33.874Z,0.0596,-0.9645,0.1366,-0.1208,-0.2300,-0.0877,-0.0103,0.0408,0.0548,-3.0668,1.4317,2.7525
2024-10-11T14:23:33.885Z,0.0620,-0.9689,0.1324,-0.1208,-0.2300,-0.0877,-0.0109,0.0490,0.0578,-3.0668,1.4317,2.7525
2024-10-11T14:23:33.895Z,0.0669,-0.9730,0.1315,-0.1236,-0.1884,-0.0470,-0.0118,0.0558,0.0624,-3.0779,1.4325,2.7646
2024-10-11T14:23:33.905Z,0.0726,-0.9720,0.1227,-0.1236,-0.1884,-0.0470,-0.0118,0.0623,0.0707,-3.0779,1.4325,2.7646
2024-10-11T14:23:33.915Z,0.0712,-0.9731,0.1222,-0.1236,-0.1884,-0.0470,-0.0104,0.0739,0.0729,-3.0779,1.4325,2.7646
2024-10-11T14:23:33.925Z,0.0728,-0.9716,0.1168,-0.2136,-0.1783,0.0783,-0.0123,0.0832,0.0783,-3.0921,1.4336,2.7806
2024-10-11T14:23:33.935Z,0.0704,-0.9710,0.1069,-0.2136,-0.1783,0.0783,-0.0085,0.0933,0.0853,-3.0921,1.4336,2.7806
2024-10-11T14:23:33.946Z,0.0702,-0.9708,0.1048,-0.2136,-0.1783,0.0783,-0.0068,0.0994,0.0890,-3.0921,1.4336,2.7806
2024-10-11T14:23:33.955Z,0.0755,-0.9725,0.1132,-0.2765,-0.1988,0.1740,-0.0076,0.1111,0.0939,-3.1096,1.4346,2.8006
2024-10-11T14:23:33.965Z,0.0785,-0.9829,0.1194,-0.2765,-0.1988,0.1740,-0.0057,0.1154,0.0971,-3.1096,1.4346,2.8006
2024-10-11T14:23:33.975Z,0.0828,-0.9933,0.1220,-0.2765,-0.1988,0.1740,-0.0045,0.1198,0.1052,-3.1096,1.4346,2.8006
2024-10-11T14:23:33.985Z,0.0823,-1.0016,0.1242,-0.4139,0.0676,0.0608,-0.0081,0.1248,0.1101,-3.1308,1.4358,2.8251
2024-10-11T14:23:33.995Z,0.0674,-1.0107,0.1209,-0.4139,0.0676,0.0608,-0.0017,0.1263,0.1092,-3.1308,1.4358,2.8251
2024-10-11T14:23:34.005Z,0.0562,-1.0204,0.1287,-0.4139,0.0676,0.0608,-0.0036,0.1278,0.1108,-3.1308,1.4358,2.8251
2024-10-11T14:23:34.015Z,0.0509,-1.0293,0.1298,-0.1555,0.3461,-0.0211,-0.0055,0.1267,0.1099,3.1292,1.4368,2.8516
2024-10-11T14:23:34.025Z,0.0436,-1.0365,0.1420,-0.1555,0.3461,-0.0211,-0.0064,0.1209,0.1047,3.1292,1.4368,2.8516
2024-10-11T14:23:34.035Z,0.0296,-1.0413,0.1441,-0.1555,0.3461,-0.0211,-0.0053,0.1151,0.0998,3.1292,1.4368,2.8516
2024-10-11T14:23:34.045Z,0.0194,-1.0416,0.1464,0.1133,0.4984,-0.2093,-0.0061,0.0959,0.0964,3.1074,1.4378,2.8764
2024-10-11T14:23:34.055Z,0.0135,-1.0327,0.1455,0.1133,0.4984,-0.2093,-0.0082,0.0883,0.0869,3.1074,1.4378,2.8764
2024-10-11T14:23:34.065Z,-0.0005,-1.0261,0.1416,0.1133,0.4984,-0.2093,-0.0117,0.0849,0.0782,3.1074,1.4378,2.8764
2024-10-11T14:23:34.075Z,0.0003,-1.0207,0.1423,0.3141,0.3149,-0.1550,-0.0143,0.0770,0.0718,3.0901,1.4387,2.8960
2024-10-11T14:23:34.085Z,-0.0072,-1.0170,0.1299,0.3141,0.3149,-0.1550,-0.0137,0.0652,0.0635,3.0901,1.4387,2.8960
2024-10-11T14:23:34.095Z,-0.0090,-1.0132,0.1219,0.3141,0.3149,-0.1550,-0.0111,0.0565,0.0542,3.0901,1.4387,2.8960
2024-10-11T14:23:34.105Z,-0.0090,-1.0056,0.1074,0.3929,0.1665,0.1279,-0.0093,0.0470,0.0450,3.0778,1.4394,2.9096
2024-10-11T14:23:34.115Z,-0.0059,-0.9976,0.1054,0.3929,0.1665,0.1279,-0.0028,0.0362,0.0377,3.0778,1.4394,2.9096
2024-10-11T14:23:34.125Z,-0.0122,-0.9940,0.0981,0.3929,0.1665,0.1279,-0.0026,0.0254,0.0306,3.0778,1.4394,2.9096
2024-10-11T14:23:34.136Z,-0.0035,-0.9930,0.1001,0.3790,0.0249,0.2916,0.0033,0.0190,0.0216,3.0708,1.4398,2.9173
2024-10-11T14:23:34.145Z,0.0106,-0.9907,0.0960,0.3790,0.0249,0.2916,0.0033,0.0190,0.0216,3.0708,1.4398,2.9173
2024-10-11T14:23:34.155Z,0.0125,-0.9825,0.0974,0.3790,0.0249,0.2916,0.0031,0.0197,0.0167,3.0708,1.4398,2.9173
2024-10-11T14:23:34.165Z,0.0184,-0.9683,0.0986,0.1262,-0.1515,0.3198,0.0069,0.0195,0.0155,3.0663,1.4398,2.9223
2024-10-11T14:23:34.176Z,0.0203,-0.9544,0.1035,0.1262,-0.1515,0.3198,0.0069,0.0159,0.0136,3.0663,1.4398,2.9223
2024-10-11T14:23:34.186Z,0.0272,-0.9476,0.1131,0.1262,-0.1515,0.3198,0.0036,0.0125,0.0146,3.0663,1.4398,2.9223
2024-10-11T14:23:34.196Z,0.0414,-0.9536,0.1254,-0.0565,-0.4107,0.0911,0.0029,0.0128,0.0179,3.0628,1.4397,2.9260
2024-10-11T14:23:34.206Z,0.0480,-0.9619,0.1316,-0.0565,-0.4107,0.0911,-0.0012,0.0139,0.0180,3.0628,1.4397,2.9260
2024-10-11T14:23:34.216Z,0.0449,-0.9671,0.1280,-0.0565,-0.4107,0.0911,-0.0021,0.0097,0.0197,3.0628,1.4397,2.9260
2024-10-11T14:23:34.226Z,0.0373,-0.9697,0.1308,-0.1163,-0.2108,-0.0297,-0.0081,0.0113,0.0176,3.0586,1.4398,2.9303
2024-10-11T14:23:34.235Z,0.0380,-0.9738,0.1319,-0.1163,-0.2108,-0.0297,-0.0099,0.0111,0.0178,3.0586,1.4398,2.9303
2024-10-11T14:23:34.244Z,0.0352,-0.9769,0.1395,-0.1163,-0.2108,-0.0297,-0.0099,0.0111,0.0178,3.0586,1.4398,2.9303
2024-10-11T14:23:34.256Z,0.0427,-0.9810,0.1452,-0.1056,-0.1224,-0.1356,-0.0155,0.0038,0.0221,3.0546,1.4402,2.9343
2024-10-11T14:23:34.266Z,0.0522,-0.9825,0.1629,-0.1056,-0.1224,-0.1356,-0.0184,0.0017,0.0274,3.0546,1.4402,2.9343
2024-10-11T14:23:34.276Z,0.0593,-0.9841,0.1675,-0.1056,-0.1224,-0.1356,-0.0257,0.0048,0.0273,3.0546,1.4402,2.9343
2024-10-11T14:23:34.285Z,0.0457,-0.9818,0.1723,-0.2693,-0.0769,-0.4393,-0.0316,0.0041,0.0282,3.0497,1.4409,2.9389
2024-10-11T14:23:34.295Z,0.0377,-0.9838,0.1707,-0.2693,-0.0769,-0.4393,-0.0339,0.0009,0.0253,3.0497,1.4409,2.9389
2024-10-11T14:23:34.306Z,0.0347,-0.9893,0.1638,-0.2693,-0.0769,-0.4393,-0.0394,-0.0016,0.0257,3.0497,1.4409,2.9389
2024-10-11T14:23:34.315Z,0.0310,-0.9983,0.1569,-0.0717,0.0213,-0.3345,-0.0385,-0.0038,0.0238,3.0454,1.4420,2.9430
2024-10-11T14:23:34.326Z,0.0290,-0.9998,0.1492,-0.0717,0.0213,-0.3345,-0.0403,-0.0090,0.0210,3.0454,1.4420,2.9430
2024-10-11T14:23:34.335Z,0.0280,-1.0023,0.1444,-0.0717,0.0213,-0.3345,-0.0414,-0.0132,0.0216,3.0454,1.4420,2.9430
2024-10-11T14:23:34.345Z,0.0297,-0.9981,0.1526,-0.0442,0.0733,-0.2179,-0.0467,-0.0159,0.0208,3.0417,1.4432,2.9461
2024-10-11T14:23:34.355Z,0.0271,-0.9967,0.1442,-0.0442,0.0733,-0.2179,-0.0438,-0.0201,0.0194,3.0417,1.4432,2.9461
2024-10-11T14:23:34.366Z,0.0201,-0.9993,0.1416,0.1047,0.0857,-0.1510,-0.0438,-0.0201,0.0194,3.0399,1.4444,2.9471
2024-10-11T14:23:34.376Z,0.0113,-1.0033,0.1356,0.1047,0.0857,-0.1510,-0.0414,-0.0363,0.0078,3.0399,1.4444,2.9471
2024-10-11T14:23:34.385Z,0.0072,-1.0100,0.1227,0.1047,0.0857,-0.1510,-0.0392,-0.0443,0.0083,3.0399,1.4444,2.9471
2024-10-11T14:23:34.396Z,0.0114,-1.0177,0.1091,0.1047,0.0857,-0.1510,-0.0321,-0.0483,0.0052,3.0399,1.4444,2.9471
2024-10-11T14:23:34.405Z,0.0173,-1.0249,0.0978,0.0775,0.2978,0.2336,-0.0279,-0.0498,0.0016,3.0397,1.4456,2.9459
2024-10-11T14:23:34.415Z,0.0132,-1.0261,0.0940,0.0775,0.2978,0.2336,-0.0229,-0.0515,0.0052,3.0397,1.4456,2.9459
2024-10-11T14:23:34.426Z,0.0266,-1.0307,0.0959,-0.0548,0.3771,0.2379,-0.0229,-0.0515,0.0052,3.0399,1.4463,2.9440
2024-10-11T14:23:34.435Z,0.0319,-1.0302,0.0997,-0.0548,0.3771,0.2379,-0.0203,-0.0489,0.0056,3.0399,1.4463,2.9440
2024-10-11T14:23:34.445Z,0.0372,-1.0266,0.1020,-0.0548,0.3771,0.2379,-0.0177,-0.0452,0.0072,3.0399,1.4463,2.9440
2024-10-11T14:23:34.455Z,0.0375,-1.0178,0.1000,-0.0548,0.3771,0.2379,-0.0099,-0.0470,0.0097,3.0399,1.4463,2.9440
2024-10-11T14:23:34.465Z,0.0407,-1.0140,0.0910,-0.1338,0.2423,0.2344,-0.0057,-0.0445,0.0110,3.0390,1.4469,2.9431
2024-10-11T14:23:34.476Z,0.0424,-1.0065,0.0856,-0.1338,0.2423,0.2344,-0.0011,-0.0435,0.0137,3.0390,1.4469,2.9431
2024-10-11T14:23:34.485Z,0.0395,-1.0009,0.0802,-0.1338,0.2423,0.2344,-0.0006,-0.0375,0.0121,3.0390,1.4469,2.9431
2024-10-11T14:23:34.495Z,0.0372,-0.9986,0.0897,-0.1536,0.0782,0.3355,0.0059,-0.0389,0.0146,3.0364,1.4471,2.9443
2024-10-11T14:23:34.505Z,0.0360,-0.9963,0.0908,-0.1536,0.0782,0.3355,0.0105,-0.0371,0.0161,3.0364,1.4471,2.9443
2024-10-11T14:23:34.516Z,0.0366,-0.9933,0.0858,-0.1138,-0.0143,0.3292,0.0127,-0.0353,0.0182,3.0322,1.4469,2.9471
2024-10-11T14:23:34.526Z,0.0328,-0.9913,0.0877,-0.1138,-0.0143,0.3292,0.0154,-0.0368,0.0154,3.0322,1.4469,2.9471
2024-10-11T14:23:34.536Z,0.0307,-0.9845,0.1067,-0.1138,-0.0143,0.3292,0.0167,-0.0372,0.0160,3.0322,1.4469,2.9471
2024-10-11T14:23:34.546Z,0.0307,-0.9845,0.1067,-0.0670,-0.0575,0.0920,0.0184,-0.0424,0.0132,3.0275,1.4464,2.9502
2024-10-11T14:23:34.555Z,0.0262,-0.9856,0.1179,-0.0670,-0.0575,0.0920,0.0184,-0.0492,0.0097,3.0275,1.4464,2.9502
2024-10-11T14:23:34.566Z,0.0037,-0.9827,0.1306,-0.0670,-0.0575,0.0920,0.0181,-0.0537,0.0060,3.0275,1.4464,2.9502
2024-10-11T14:23:34.577Z,0.0037,-0.9827,0.1306,0.2459,-0.1075,-0.1161,0.0181,-0.0537,0.0060,3.0246,1.4460,2.9513
2024-10-11T14:23:34.585Z,-0.0018,-0.9812,0.1414,0.2459,-0.1075,-0.1161,0.0125,-0.0607,-0.0026,3.0246,1.4460,2.9513
2024-10-11T14:23:34.595Z,0.0030,-0.9805,0.1488,0.2459,-0.1075,-0.1161,0.0112,-0.0667,-0.0026,3.0246,1.4460,2.9513
2024-10-11T14:23:34.606Z,0.0003,-0.9850,0.1578,0.1854,-0.0425,-0.3053,0.0114,-0.0727,-0.0057,3.0242,1.4456,2.9494
2024-10-11T14:23:34.615Z,0.0067,-0.9878,0.1540,0.1854,-0.0425,-0.3053,0.0081,-0.0761,-0.0100,3.0242,1.4456,2.9494
2024-10-11T14:23:34.626Z,0.0025,-0.9944,0.1473,0.1854,-0.0425,-0.3053,0.0068,-0.0787,-0.0138,3.0242,1.4456,2.9494
2024-10-11T14:23:34.636Z,0.0035,-0.9992,0.1402,0.2533,0.0667,-0.2108,0.0018,-0.0825,-0.0137,3.0267,1.4454,2.9444
2024-10-11T14:23:34.645Z,-0.0098,-0.9996,0.1489,0.2533,0.0667,-0.2108,-0.0015,-0.0863,-0.0231,3.0267,1.4454,2.9444
2024-10-11T14:23:34.655Z,-0.0115,-1.0001,0.1623,0.2533,0.0667,-0.2108,-0.0030,-0.0919,-0.0267,3.0267,1.4454,2.9444
2024-10-11T14:23:34.665Z,-0.0115,-1.0001,0.1623,0.2533,0.0667,-0.2108,-0.0055,-0.0989,-0.0311,3.0267,1.4454,2.9444
2024-10-11T14:23:34.676Z,0.0011,-1.0022,0.1591,0.2941,0.0879,-0.3580,-0.0072,-0.1047,-0.0332,3.0328,1.4453,2.9354
2024-10-11T14:23:34.686Z,-0.0051,-0.9892,0.1378,0.2941,0.0879,-0.3580,-0.0082,-0.1089,-0.0351,3.0328,1.4453,2.9354
2024-10-11T14:23:34.695Z,-0.0051,-0.9892,0.1378,0.2941,0.0879,-0.3580,-0.0082,-0.1163,-0.0407,3.0328,1.4453,2.9354
2024-10-11T14:23:34.705Z,-0.0104,-0.9799,0.1236,0.3424,-0.0817,-0.0772,-0.0061,-0.1211,-0.0459,3.0414,1.4452,2.9233
2024-10-11T14:23:34.715Z,-0.0070,-0.9753,0.1213,0.3424,-0.0817,-0.0772,-0.0045,-0.1234,-0.0450,3.0414,1.4452,2.9233
2024-10-11T14:23:34.728Z,0.0018,-0.9756,0.1143,0.2327,-0.1538,0.1005,-0.0021,-0.1243,-0.0452,3.0517,1.4451,2.9092
2024-10-11T14:23:34.734Z,0.0096,-0.9772,0.1097,0.2327,-0.1538,0.1005,-0.0011,-0.1259,-0.0439,3.0517,1.4451,2.9092
2024-10-11T14:23:34.745Z,0.0169,-0.9700,0.1096,0.2327,-0.1538,0.1005,0.0006,-0.1256,-0.0433,3.0517,1.4451,2.9092
2024-10-11T14:23:34.756Z,0.0179,-0.9671,0.1075,0.1500,-0.2737,0.1363,0.0030,-0.1283,-0.0390,3.0613,1.4448,2.8956
2024-10-11T14:23:34.765Z,0.0162,-0.9632,0.1015,0.1500,-0.2737,0.1363,0.0032,-0.1283,-0.0420,3.0613,1.4448,2.8956
2024-10-11T14:23:34.775Z,0.0162,-0.9632,0.1015,0.1500,-0.2737,0.1363,0.0085,-0.1268,-0.0425,3.0613,1.4448,2.8956
2024-10-11T14:23:34.785Z,0.0142,-0.9637,0.0974,0.1605,-0.2450,0.2382,0.0085,-0.1268,-0.0425,3.0701,1.4443,2.8829
2024-10-11T14:23:34.794Z,0.0177,-0.9697,0.0954,0.1605,-0.2450,0.2382,0.0061,-0.1252,-0.0417,3.0701,1.4443,2.8829
2024-10-11T14:23:34.805Z,0.0008,-0.9720,0.1163,0.1605,-0.2450,0.2382,0.0081,-0.1234,-0.0433,3.0701,1.4443,2.8829
2024-10-11T14:23:34.816Z,0.0008,-0.9720,0.1163,0.3413,-0.1487,0.0204,0.0073,-0.1275,-0.0456,3.0793,1.4437,2.8697
2024-10-11T14:23:34.826Z,-0.0019,-0.9824,0.1208,0.3413,-0.1487,0.0204,0.0058,-0.1298,-0.0516,3.0793,1.4437,2.8697
2024-10-11T14:23:34.835Z,-0.0119,-0.9967,0.1370,0.3413,-0.1487,0.0204,0.0044,-0.1304,-0.0527,3.0793,1.4437,2.8697
2024-10-11T14:23:34.845Z,-0.0119,-0.9967,0.1370,0.3413,-0.1487,0.0204,-0.0006,-0.1309,-0.0585,3.0793,1.4437,2.8697
2024-10-11T14:23:34.855Z,-0.0130,-0.9986,0.1420,0.5273,0.0630,-0.1212,-0.0022,-0.1374,-0.0621,3.0909,1.4432,2.8541
2024-10-11T14:23:34.865Z,-0.0130,-0.9986,0.1420,0.5273,0.0630,-0.1212,-0.0057,-0.1377,-0.0652,3.0909,1.4432,2.8541
2024-10-11T14:23:34.878Z,-0.0075,-0.9931,0.1502,0.4663,-0.0010,-0.3075,-0.0100,-0.1448,-0.0678,3.1053,1.4428,2.8353
2024-10-11T14:23:34.885Z,-0.0147,-0.9917,0.1460,0.4663,-0.0010,-0.3075,-0.0107,-0.1450,-0.0731,3.1053,1.4428,2.8353
2024-10-11T14:23:34.896Z,-0.0181,-0.9960,0.1341,0.4663,-0.0010,-0.3075,-0.0127,-0.1454,-0.0769,3.1053,1.4428,2.8353
2024-10-11T14:23:34.906Z,-0.0181,-0.9960,0.1341,0.5666,0.0351,-0.1279,-0.0104,-0.1418,-0.0791,3.1226,1.4424,2.8136
2024-10-11T14:23:34.915Z,0.0004,-0.9915,0.1259,0.5666,0.0351,-0.1279,-0.0115,-0.1370,-0.0774,3.1226,1.4424,2.8136
2024-10-11T14:23:34.926Z,0.0004,-0.9915,0.1259,0.5666,0.0351,-0.1279,-0.0114,-0.1342,-0.0798,3.1226,1.4424,2.8136
2024-10-11T14:23:34.935Z,0.0035,-0.9888,0.1226,0.3865,-0.0562,0.0137,-0.0133,-0.1280,-0.0779,3.1406,1.4419,2.7914
2024-10-11T14:23:34.944Z,0.0086,-0.9837,0.1163,0.3865,-0.0562,0.0137,-0.0144,-0.1157,-0.0754,3.1406,1.4419,2.7914
2024-10-11T14:23:34.956Z,0.0324,-0.9760,0.1139,0.3865,-0.0562,0.0137,-0.0137,-0.1038,-0.0697,3.1406,1.4419,2.7914
2024-10-11T14:23:34.966Z,0.0324,-0.9760,0.1139,0.0625,-0.1740,0.0529,-0.0149,-0.0882,-0.0673,-3.1261,1.4415,2.7717
2024-10-11T14:23:34.975Z,0.0411,-0.9722,0.1081,0.0625,-0.1740,0.0529,-0.0169,-0.0722,-0.0621,-3.1261,1.4415,2.7717
2024-10-11T14:23:34.985Z,0.0422,-0.9669,0.0924,0.0625,-0.1740,0.0529,-0.0136,-0.0629,-0.0560,-3.1261,1.4415,2.7717
2024-10-11T14:23:34.995Z,0.0422,-0.9669,0.0924,0.0625,-0.2373,0.3243,-0.0136,-0.0629,-0.0560,-3.1129,1.4413,2.7563
2024-10-11T14:23:35.005Z,0.0443,-0.9721,0.0743,0.0625,-0.2373,0.3243,-0.0047,-0.0371,-0.0475,-3.1129,1.4413,2.7563
2024-10-11T14:23:35.015Z,0.0556,-0.9803,0.0723,0.0625,-0.2373,0.3243,-0.0003,-0.0252,-0.0398,-3.1129,1.4413,2.7563
2024-10-11T14:23:35.027Z,0.0556,-0.9803,0.0723,-0.0801,-0.0520,0.4431,0.0010,-0.0110,-0.0339,-3.1042,1.4409,2.7467
2024-10-11T14:23:35.035Z,0.0666,-0.9985,0.0883,-0.0801,-0.0520,0.4431,0.0034,0.0047,-0.0267,-3.1042,1.4409,2.7467
2024-10-11T14:23:35.044Z,0.0666,-0.9985,0.0883,-0.0801,-0.0520,0.4431,0.0030,0.0235,-0.0203,-3.1042,1.4409,2.7467
2024-10-11T14:23:35.055Z,0.0627,-1.0030,0.0937,-0.0921,0.1170,0.2238,0.0032,0.0314,-0.0116,-3.1006,1.4406,2.7434
2024-10-11T14:23:35.065Z,0.0573,-1.0012,0.1022,-0.0921,0.1170,0.2238,0.0047,0.0384,-0.0060,-3.1006,1.4406,2.7434
2024-10-11T14:23:35.075Z,0.0545,-1.0009,0.1049,-0.0921,0.1170,0.2238,0.0047,0.0437,-0.0030,-3.1006,1.4406,2.7434
2024-10-11T14:23:35.085Z,0.0560,-0.9972,0.1063,-0.0666,0.0741,0.1537,0.0021,0.0551,0.0018,-3.1003,1.4405,2.7443
2024-10-11T14:23:35.095Z,0.0504,-0.9937,0.1113,-0.0666,0.0741,0.1537,-0.0009,0.0619,0.0049,-3.1003,1.4405,2.7443
2024-10-11T14:23:35.105Z,0.0594,-0.9902,0.1145,-0.0666,0.0741,0.1537,-0.0018,0.0712,0.0101,-3.1003,1.4405,2.7443
2024-10-11T14:23:35.115Z,0.0594,-0.9902,0.1145,-0.0842,-0.0070,0.0440,-0.0048,0.0787,0.0146,-3.1023,1.4406,2.7480
2024-10-11T14:23:35.126Z,0.0492,-0.9951,0.1184,-0.0842,-0.0070,0.0440,-0.0065,0.0869,0.0154,-3.1023,1.4406,2.7480
2024-10-11T14:23:35.135Z,0.0443,-0.9996,0.1133,-0.0842,-0.0070,0.0440,-0.0061,0.0881,0.0183,-3.1023,1.4406,2.7480
2024-10-11T14:23:35.144Z,0.0443,-0.9996,0.1133,-0.0842,-0.0070,0.0440,-0.0040,0.0913,0.0196,-3.1023,1.4406,2.7480
2024-10-11T14:23:35.155Z,0.0327,-1.0042,0.1174,0.0535,0.1176,0.0586,-0.0024,0.0919,0.0161,-3.1057,1.4410,2.7538
2024-10-11T14:23:35.165Z,0.0238,-1.0017,0.1115,0.0535,0.1176,0.0586,-0.0011,0.0943,0.0164,-3.1057,1.4410,2.7538
2024-10-11T14:23:35.176Z,0.0238,-1.0017,0.1115,0.2430,0.0650,0.0306,-0.0044,0.0971,0.0175,-3.1094,1.4413,2.7599
2024-10-11T14:23:35.185Z,0.0316,-0.9913,0.1234,0.2430,0.0650,0.0306,-0.0042,0.0992,0.0148,-3.1094,1.4413,2.7599
2024-10-11T14:23:35.195Z,0.0337,-0.9933,0.1246,0.2430,0.0650,0.0306,-0.0072,0.1074,0.0163,-3.1094,1.4413,2.7599
2024-10-11T14:23:35.205Z,0.0337,-0.9933,0.1246,0.1077,0.0087,-0.0464,-0.0098,0.1106,0.0178,-3.1124,1.4416,2.7657
2024-10-11T14:23:35.214Z,0.0454,-0.9935,0.1283,0.1077,0.0087,-0.0464,-0.0123,0.1138,0.0180,-3.1124,1.4416,2.7657
2024-10-11T14:23:35.227Z,0.0565,-0.9945,0.1366,0.1077,0.0087,-0.0464,-0.0117,0.1175,0.0222,-3.1124,1.4416,2.7657
2024-10-11T14:23:35.235Z,0.0565,-0.9945,0.1366,-0.1966,0.0595,-0.1265,-0.0181,0.1342,0.0250,-3.1166,1.4422,2.7732
2024-10-11T14:23:35.245Z,0.0520,-1.0065,0.1210,-0.1966,0.0595,-0.1265,-0.0156,0.1392,0.0287,-3.1166,1.4422,2.7732
2024-10-11T14:23:35.255Z,0.0614,-1.0065,0.1113,-0.1966,0.0595,-0.1265,-0.0153,0.1357,0.0298,-3.1166,1.4422,2.7732
2024-10-11T14:23:35.265Z,0.0614,-1.0065,0.1113,-0.1696,0.1172,0.1128,-0.0180,0.1452,0.0311,-3.1226,1.4430,2.7828
2024-10-11T14:23:35.277Z,0.0600,-0.9935,0.1144,-0.1696,0.1172,0.1128,-0.0154,0.1398,0.0356,-3.1226,1.4430,2.7828
2024-10-11T14:23:35.285Z,0.0605,-0.9880,0.1125,-0.1696,0.1172,0.1128,-0.0124,0.1405,0.0357,-3.1226,1.4430,2.7828
2024-10-11T14:23:35.295Z,0.0605,-0.9880,0.1125,-0.1516,-0.0401,0.0890,-0.0143,0.1439,0.0405,-3.1299,1.4437,2.7939
2024-10-11T14:23:35.305Z,0.0708,-0.9879,0.1066,-0.1516,-0.0401,0.0890,-0.0126,0.1488,0.0423,-3.1299,1.4437,2.7939
2024-10-11T14:23:35.315Z,0.0608,-0.9932,0.1015,-0.1516,-0.0401,0.0890,-0.0136,0.1521,0.0433,-3.1299,1.4437,2.7939
2024-10-11T14:23:35.326Z,0.0608,-0.9932,0.1015,-0.1102,0.0003,0.2170,-0.0142,0.1490,0.0450,-3.1385,1.4445,2.8066
2024-10-11T14:23:35.335Z,0.0506,-0.9855,0.1125,-0.1102,0.0003,0.2170,-0.0132,0.1434,0.0395,-3.1385,1.4445,2.8066
2024-10-11T14:23:35.345Z,0.0468,-0.9869,0.1216,-0.1102,0.0003,0.2170,-0.0131,0.1404,0.0434,-3.1385,1.4445,2.8066
2024-10-11T14:23:35.355Z,0.0484,-0.9899,0.1304,-0.0668,-0.0426,-0.1042,-0.0148,0.1371,0.0377,3.1365,1.4453,2.8188
2024-10-11T14:23:35.365Z,0.0452,-0.9956,0.1219,-0.0668,-0.0426,-0.1042,-0.0137,0.1285,0.0404,3.1365,1.4453,2.8188
2024-10-11T14:23:35.375Z,0.0431,-0.9946,0.1275,-0.0668,-0.0426,-0.1042,-0.0147,0.1300,0.0376,3.1365,1.4453,2.8188
2024-10-11T14:23:35.385Z,0.0492,-0.9932,0.1301,-0.0812,0.0104,-0.0977,-0.0175,0.1245,0.0363,3.1289,1.4461,2.8300
2024-10-11T14:23:35.395Z,0.0471,-0.9940,0.1395,-0.0812,0.0104,-0.0977,-0.0193,0.1164,0.0349,3.1289,1.4461,2.8300
2024-10-11T14:23:35.405Z,0.0438,-0.9959,0.1428,-0.0812,0.0104,-0.0977,-0.0212,0.1105,0.0330,3.1289,1.4461,2.8300
2024-10-11T14:23:35.415Z,0.0438,-0.9959,0.1428,-0.0327,0.0584,-0.2590,-0.0257,0.1065,0.0294,3.1227,1.4470,2.8392
2024-10-11T14:23:35.426Z,0.0422,-1.0087,0.1513,-0.0327,0.0584,-0.2590,-0.0272,0.0985,0.0263,3.1227,1.4470,2.8392
2024-10-11T14:23:35.435Z,0.0469,-1.0092,0.1560,-0.0327,0.0584,-0.2590,-0.0297,0.0902,0.0255,3.1227,1.4470,2.8392
2024-10-11T14:23:35.445Z,0.0469,-1.0092,0.1560,-0.0563,0.1597,-0.3942,-0.0286,0.0795,0.0229,3.1185,1.4480,2.8459
2024-10-11T14:23:35.455Z,0.0351,-1.0052,0.1550,-0.0563,0.1597,-0.3942,-0.0347,0.0741,0.0194,3.1185,1.4480,2.8459
2024-10-11T14:23:35.465Z,0.0271,-1.0066,0.1487,-0.0563,0.1597,-0.3942,-0.0371,0.0656,0.0128,3.1185,1.4480,2.8459
2024-10-11T14:23:35.477Z,0.0273,-1.0073,0.1454,0.0794,0.1473,-0.2745,-0.0375,0.0534,0.0119,3.1171,1.4492,2.8489
2024-10-11T14:23:35.485Z,0.0363,-1.0045,0.1457,0.0794,0.1473,-0.2745,-0.0388,0.0479,0.0072,3.1171,1.4492,2.8489
2024-10-11T14:23:35.495Z,0.0398,-1.0028,0.1467,0.0794,0.1473,-0.2745,-0.0431,0.0443,0.0046,3.1171,1.4492,2.8489
2024-10-11T14:23:35.505Z,0.0410,-0.9994,0.1387,-0.0413,0.0807,-0.2978,-0.0444,0.0354,0.0057,3.1180,1.4504,2.8490
2024-10-11T14:23:35.515Z,0.0493,-0.9953,0.1277,-0.0413,0.0807,-0.2978,-0.0440,0.0310,0.0042,3.1180,1.4504,2.8490
2024-10-11T14:23:35.526Z,0.0497,-0.9905,0.1182,-0.0413,0.0807,-0.2978,-0.0423,0.0254,0.0036,3.1180,1.4504,2.8490
2024-10-11T14:23:35.535Z,0.0561,-0.9898,0.1103,-0.1780,-0.0236,0.0066,-0.0407,0.0245,0.0043,3.1199,1.4517,2.8478
2024-10-11T14:23:35.545Z,0.0653,-0.9889,0.1045,-0.1780,-0.0236,0.0066,-0.0339,0.0248,0.0066,3.1199,1.4517,2.8478
2024-10-11T14:23:35.555Z,0.0763,-0.9861,0.0962,-0.1780,-0.0236,0.0066,-0.0318,0.0198,0.0101,3.1199,1.4517,2.8478
2024-10-11T14:23:35.565Z,0.0707,-0.9795,0.0933,-0.3956,-0.1030,0.1893,-0.0302,0.0214,0.0125,3.1202,1.4527,2.8479
2024-10-11T14:23:35.576Z,0.0672,-0.9750,0.0873,-0.3956,-0.1030,0.1893,-0.0221,0.0149,0.0119,3.1202,1.4527,2.8479
2024-10-11T14:23:35.584Z,0.0680,-0.9697,0.0921,-0.3956,-0.1030,0.1893,-0.0224,0.0149,0.0113,3.1202,1.4527,2.8479
2024-10-11T14:23:35.595Z,0.0680,-0.9697,0.0921,-0.3302,-0.2232,0.1691,-0.0209,0.0117,0.0150,3.1183,1.4534,2.8500
2024-10-11T14:23:35.604Z,0.0579,-0.9691,0.1073,-0.3302,-0.2232,0.1691,-0.0185,0.0152,0.0142,3.1183,1.4534,2.8500
2024-10-11T14:23:35.615Z,0.0586,-0.9711,0.1066,-0.3302,-0.2232,0.1691,-0.0158,0.0078,0.0150,3.1183,1.4534,2.8500
2024-10-11T14:23:35.626Z,0.0504,-0.9709,0.1086,-0.2415,-0.2178,0.0273,-0.0140,0.0019,0.0137,3.1161,1.4540,2.8522
2024-10-11T14:23:35.635Z,0.0449,-0.9711,0.1080,-0.2415,-0.2178,0.0273,-0.0129,-0.0008,0.0111,3.1161,1.4540,2.8522
2024-10-11T14:23:35.645Z,0.0454,-0.9731,0.1153,-0.2415,-0.2178,0.0273,-0.0097,-0.0002,0.0106,3.1161,1.4540,2.8522
2024-10-11T14:23:35.655Z,0.0473,-0.9816,0.1165,-0.1157,-0.1674,-0.0418,-0.0077,-0.0009,0.0093,3.1146,1.4543,2.8534
2024-10-11T14:23:35.665Z,0.0470,-0.9887,0.1183,-0.1157,-0.1674,-0.0418,-0.0086,-0.0043,0.0096,3.1146,1.4543,2.8534
2024-10-11T14:23:35.675Z,0.0508,-0.9972,0.1183,-0.1157,-0.1674,-0.0418,-0.0024,-0.0074,0.0103,3.1146,1.4543,2.8534
2024-10-11T14:23:35.685Z,0.0459,-0.9997,0.1107,-0.1838,0.0618,-0.0079,-0.0004,-0.0053,0.0090,3.1129,1.4546,2.8547
2024-10-11T14:23:35.695Z,0.0352,-0.9980,0.1245,-0.1838,0.0618,-0.0079,-0.0031,-0.0000,0.0051,3.1129,1.4546,2.8547
2024-10-11T14:23:35.705Z,0.0488,-0.9962,0.1340,-0.1838,0.0618,-0.0079,-0.0058,-0.0008,0.0091,3.1129,1.4546,2.8547
2024-10-11T14:23:35.715Z,0.0578,-1.0024,0.1396,-0.2047,0.0516,-0.2651,-0.0080,0.0037,0.0098,3.1112,1.4547,2.8561
2024-10-11T14:23:35.725Z,0.0616,-1.0058,0.1309,-0.2047,0.0516,-0.2651,-0.0034,0.0033,0.0110,3.1112,1.4547,2.8561
2024-10-11T14:23:35.735Z,0.0559,-1.0117,0.1254,-0.2047,0.0516,-0.2651,-0.0055,0.0098,0.0135,3.1112,1.4547,2.8561
2024-10-11T14:23:35.745Z,0.0559,-1.0117,0.1254,-0.2323,0.1775,-0.0817,-0.0058,0.0149,0.0150,3.1085,1.4550,2.8588
2024-10-11T14:23:35.755Z,0.0547,-1.0063,0.1074,-0.2323,0.1775,-0.0817,-0.0023,0.0214,0.0179,3.1085,1.4550,2.8588
2024-10-11T14:23:35.765Z,0.0508,-1.0017,0.1009,-0.2323,0.1775,-0.0817,0.0003,0.0222,0.0167,3.1085,1.4550,2.8588
2024-10-11T14:23:35.775Z,0.0471,-1.0013,0.0996,-0.1733,0.0847,0.1084,0.0000,0.0259,0.0188,3.1044,1.4551,2.8633
2024-10-11T14:23:35.785Z,0.0464,-1.0002,0.0993,-0.1733,0.0847,0.1084,0.0021,0.0302,0.0181,3.1044,1.4551,2.8633
2024-10-11T14:23:35.795Z,0.0523,-0.9964,0.1008,-0.1733,0.0847,0.1084,0.0034,0.0341,0.0208,3.1044,1.4551,2.8633
2024-10-11T14:23:35.806Z,0.0600,-0.9959,0.1007,-0.2602,0.0145,0.0841,0.0058,0.0357,0.0226,3.0987,1.4551,2.8697
2024-10-11T14:23:35.815Z,0.0496,-0.9913,0.1014,-0.2602,0.0145,0.0841,0.0094,0.0367,0.0243,3.0987,1.4551,2.8697
2024-10-11T14:23:35.825Z,0.0467,-0.9913,0.1037,-0.2602,0.0145,0.0841,0.0097,0.0374,0.0239,3.0987,1.4551,2.8697
2024-10-11T14:23:35.836Z,0.0450,-0.9911,0.0998,-0.1607,-0.0192,0.1072,0.0095,0.0390,0.0210,3.0921,1.4551,2.8771
2024-10-11T14:23:35.845Z,0.0450,-0.9911,0.0998,-0.1607,-0.0192,0.1072,0.0143,0.0338,0.0221,3.0921,1.4551,2.8771
2024-10-11T14:23:35.854Z,0.0366,-0.9924,0.1069,-0.1607,-0.0192,0.1072,0.0137,0.0320,0.0234,3.0921,1.4551,2.8771
2024-10-11T14:23:35.865Z,0.0357,-0.9918,0.1110,-0.0393,-0.0004,0.0181,0.0127,0.0362,0.0219,3.0859,1.4548,2.8840
2024-10-11T14:23:35.875Z,0.0387,-0.9873,0.1236,-0.0393,-0.0004,0.0181,0.0152,0.0273,0.0211,3.0859,1.4548,2.8840
2024-10-11T14:23:35.885Z,0.0197,-0.9870,0.1196,-0.0393,-0.0004,0.0181,0.0122,0.0257,0.0153,3.0859,1.4548,2.8840
2024-10-11T14:23:35.896Z,0.0197,-0.9870,0.1196,0.1451,-0.0806,-0.0991,0.0136,0.0168,0.0115,3.0813,1.4546,2.8891
2024-10-11T14:23:35.904Z,0.0203,-0.9809,0.1280,0.1451,-0.0806,-0.0991,0.0123,0.0150,0.0101,3.0813,1.4546,2.8891
2024-10-11T14:23:35.915Z,0.0152,-0.9790,0.1323,0.1451,-0.0806,-0.0991,0.0082,0.0092,0.0002,3.0813,1.4546,2.8891
2024-10-11T14:23:35.925Z,0.0053,-0.9740,0.1347,0.1720,-0.1562,-0.2052,0.0116,0.0000,-0.0025,3.0798,1.4543,2.8907
2024-10-11T14:23:35.936Z,-0.0050,-0.9770,0.1310,0.1720,-0.1562,-0.2052,0.0081,-0.0056,-0.0087,3.0798,1.4543,2.8907
2024-10-11T14:23:35.944Z,-0.0040,-0.9783,0.1307,0.1720,-0.1562,-0.2052,0.0078,-0.0150,-0.0147,3.0798,1.4543,2.8907
2024-10-11T14:23:35.954Z,-0.0042,-0.9776,0.1227,0.3196,-0.1528,-0.1553,0.0090,-0.0193,-0.0209,3.0824,1.4539,2.8876
2024-10-11T14:23:35.965Z,-0.0103,-0.9755,0.1228,0.3196,-0.1528,-0.1553,0.0055,-0.0248,-0.0276,3.0824,1.4539,2.8876
2024-10-11T14:23:35.975Z,-0.0083,-0.9729,0.1328,0.3196,-0.1528,-0.1553,0.0063,-0.0336,-0.0323,3.0824,1.4539,2.8876
2024-10-11T14:23:35.985Z,0.0020,-0.9738,0.1359,0.3329,-0.1993,-0.2017,0.0025,-0.0385,-0.0370,3.0891,1.4534,2.8797
2024-10-11T14:23:35.994Z,0.0135,-0.9770,0.1390,0.3329,-0.1993,-0.2017,-0.0011,-0.0420,-0.0382,3.0891,1.4534,2.8797
2024-10-11T14:23:36.005Z,0.0186,-0.9822,0.1436,0.3329,-0.1993,-0.2017,-0.0058,-0.0389,-0.0364,3.0891,1.4534,2.8797
2024-10-11T14:23:36.015Z,0.0150,-0.9857,0.1323,0.1381,-0.0690,-0.2234,-0.0052,-0.0403,-0.0415,3.0982,1.4532,2.8693
2024-10-11T14:23:36.025Z,0.0109,-0.9868,0.1288,0.1381,-0.0690,-0.2234,-0.0043,-0.0457,-0.0394,3.0982,1.4532,2.8693
2024-10-11T14:23:36.035Z,0.0178,-0.9880,0.1248,0.1381,-0.0690,-0.2234,-0.0067,-0.0458,-0.0433,3.0982,1.4532,2.8693
2024-10-11T14:23:36.044Z,0.0178,-0.9880,0.1248,0.1425,-0.0478,-0.0615,-0.0052,-0.0478,-0.0437,3.1080,1.4530,2.8579
2024-10-11T14:23:36.055Z,0.0299,-0.9946,0.1186,0.1425,-0.0478,-0.0615,-0.0048,-0.0486,-0.0441,3.1080,1.4530,2.8579
2024-10-11T14:23:36.065Z,0.0306,-1.0022,0.1130,0.1425,-0.0478,-0.0615,-0.0065,-0.0452,-0.0414,3.1080,1.4530,2.8579
2024-10-11T14:23:36.075Z,0.0296,-1.0067,0.1172,0.0510,0.1120,-0.0125,-0.0051,-0.0445,-0.0418,3.1179,1.4527,2.8465
2024-10-11T14:23:36.085Z,0.0268,-1.0069,0.1139,0.0510,0.1120,-0.0125,-0.0068,-0.0471,-0.0415,3.1179,1.4527,2.8465
2024-10-11T14:23:36.095Z,0.0230,-1.0052,0.1102,0.0510,0.1120,-0.0125,-0.0028,-0.0526,-0.0423,3.1179,1.4527,2.8465
2024-10-11T14:23:36.104Z,0.0273,-1.0062,0.1096,0.1150,0.1253,0.0215,-0.0019,-0.0525,-0.0407,3.1281,1.4525,2.8346
2024-10-11T14:23:36.115Z,0.0366,-1.0066,0.1062,0.1150,0.1253,0.0215,-0.0027,-0.0564,-0.0406,3.1281,1.4525,2.8346
2024-10-11T14:23:36.125Z,0.0336,-1.0059,0.1042,0.1150,0.1253,0.0215,-0.0003,-0.0574,-0.0404,3.1281,1.4525,2.8346
2024-10-11T14:23:36.135Z,0.0322,-1.0057,0.1035,0.0426,0.1245,0.0822,-0.0008,-0.0539,-0.0397,3.1376,1.4521,2.8232
2024-10-11T14:23:36.144Z,0.0289,-1.0046,0.0994,0.0426,0.1245,0.0822,-0.0023,-0.0590,-0.0420,3.1376,1.4521,2.8232
2024-10-11T14:23:36.154Z,0.0280,-1.0032,0.0974,0.0426,0.1245,0.0822,0.0035,-0.0593,-0.0407,3.1376,1.4521,2.8232
2024-10-11T14:23:36.165Z,0.0253,-0.9984,0.1007,0.1223,0.0904,0.1127,0.0008,-0.0617,-0.0371,-3.1368,1.4517,2.8124
2024-10-11T14:23:36.175Z,0.0296,-0.9969,0.1098,0.1223,0.0904,0.1127,-0.0005,-0.0594,-0.0381,-3.1368,1.4517,2.8124
2024-10-11T14:23:36.185Z,0.0328,-0.9962,0.1103,0.1223,0.0904,0.1127,-0.0042,-0.0580,-0.0361,-3.1368,1.4517,2.8124
2024-10-11T14:23:36.195Z,0.0344,-1.0003,0.1106,0.0462,0.0640,-0.0003,-0.0023,-0.0617,-0.0365,-3.1281,1.4514,2.8018
2024-10-11T14:23:36.204Z,0.0309,-1.0014,0.1167,0.0462,0.0640,-0.0003,-0.0041,-0.0640,-0.0356,-3.1281,1.4514,2.8018
2024-10-11T14:23:36.215Z,0.0264,-1.0015,0.1190,0.0462,0.0640,-0.0003,-0.0068,-0.0647,-0.0342,-3.1281,1.4514,2.8018
2024-10-11T14:23:36.225Z,0.0255,-0.9999,0.1242,0.1530,0.0658,-0.1038,-0.0067,-0.0678,-0.0313,-3.1200,1.4512,2.7915
2024-10-11T14:23:36.235Z,0.0291,-1.0034,0.1291,0.1530,0.0658,-0.1038,-0.0102,-0.0666,-0.0335,-3.1200,1.4512,2.7915
2024-10-11T14:23:36.244Z,0.0261,-1.0049,0.1275,0.1530,0.0658,-0.1038,-0.0086,-0.0726,-0.0311,-3.1200,1.4512,2.7915
2024-10-11T14:23:36.255Z,0.0242,-1.0060,0.1258,0.1776,0.1253,-0.1458,-0.0125,-0.0686,-0.0318,-3.1117,1.4511,2.7810
2024-10-11T14:23:36.265Z,0.0268,-1.0063,0.1323,0.1776,0.1253,-0.1458,-0.0144,-0.0675,-0.0325,-3.1117,1.4511,2.7810
2024-10-11T14:23:36.275Z,0.0294,-1.0030,0.1372,0.1776,0.1253,-0.1458,-0.0171,-0.0712,-0.0298,-3.1117,1.4511,2.7810
2024-10-11T14:23:36.285Z,0.0293,-0.9995,0.1412,0.1220,0.0691,-0.2732,-0.0215,-0.0669,-0.0308,-3.1030,1.4512,2.7701
2024-10-11T14:23:36.295Z,0.0301,-0.9977,0.1317,0.1220,0.0691,-0.2732,-0.0233,-0.0654,-0.0254,-3.1030,1.4512,2.7701
2024-10-11T14:23:36.304Z,0.0395,-1.0008,0.1233,0.1220,0.0691,-0.2732,-0.0244,-0.0603,-0.0269,-3.1030,1.4512,2.7701
2024-10-11T14:23:36.315Z,0.0455,-0.9996,0.1059,0.0156,0.0691,-0.0015,-0.0221,-0.0536,-0.0245,-3.0951,1.4515,2.7601
2024-10-11T14:23:36.325Z,0.0517,-0.9987,0.0938,0.0156,0.0691,-0.0015,-0.0199,-0.0509,-0.0169,-3.0951,1.4515,2.7601
2024-10-11T14:23:36.335Z,0.0557,-0.9944,0.0887,0.0156,0.0691,-0.0015,-0.0150,-0.0486,-0.0127,-3.0951,1.4515,2.7601
2024-10-11T14:23:36.345Z,0.0557,-0.9944,0.0887,-0.1167,-0.0331,0.2233,-0.0138,-0.0420,-0.0083,-3.0903,1.4519,2.7536
2024-10-11T14:23:36.355Z,0.0588,-0.9824,0.0899,-0.1167,-0.0331,0.2233,-0.0155,-0.0372,-0.0045,-3.0903,1.4519,2.7536
2024-10-11T14:23:36.365Z,0.0599,-0.9850,0.0849,-0.1167,-0.0331,0.2233,-0.0116,-0.0331,0.0030,-3.0903,1.4519,2.7536
2024-10-11T14:23:36.375Z,0.0568,-0.9853,0.0833,-0.1352,-0.0795,0.2699,-0.0117,-0.0301,0.0061,-3.0892,1.4523,2.7514
2024-10-11T14:23:36.385Z,0.0563,-0.9788,0.0839,-0.1352,-0.0795,0.2699,-0.0109,-0.0234,0.0073,-3.0892,1.4523,2.7514
2024-10-11T14:23:36.395Z,0.0583,-0.9714,0.0855,-0.1352,-0.0795,0.2699,-0.0103,-0.0205,0.0129,-3.0892,1.4523,2.7514
2024-10-11T14:23:36.404Z,0.0548,-0.9673,0.0807,-0.1349,-0.2365,0.2441,-0.0045,-0.0211,0.0167,-3.0916,1.4526,2.7529
2024-10-11T14:23:36.415Z,0.0473,-0.9694,0.0741,-0.1349,-0.2365,0.2441,0.0000,-0.0186,0.0202,-3.0916,1.4526,2.7529
2024-10-11T14:23:36.425Z,0.0414,-0.9712,0.0754,-0.1349,-0.2365,0.2441,0.0030,-0.0169,0.0201,-3.0916,1.4526,2.7529
2024-10-11T14:23:36.435Z,0.0409,-0.9755,0.0817,0.0482,-0.1858,0.2534,0.0011,-0.0161,0.0215,-3.0968,1.4528,2.7573
2024-10-11T14:23:36.445Z,0.0449,-0.9757,0.0959,0.0482,-0.1858,0.2534,0.0054,-0.0115,0.0235,-3.0968,1.4528,2.7573
2024-10-11T14:23:36.454Z,0.0393,-0.9760,0.1020,0.0482,-0.1858,0.2534,0.0055,-0.0083,0.0252,-3.0968,1.4528,2.7573
2024-10-11T14:23:36.465Z,0.0490,-0.9779,0.1119,-0.0066,-0.1548,0.0166,0.0043,-0.0049,0.0286,-3.1035,1.4530,2.7634
2024-10-11T14:23:36.475Z,0.0559,-0.9769,0.1292,-0.0066,-0.1548,0.0166,0.0055,-0.0019,0.0336,-3.1035,1.4530,2.7634
2024-10-11T14:23:36.485Z,0.0517,-0.9825,0.1291,-0.0066,-0.1548,0.0166,0.0014,0.0066,0.0339,-3.1035,1.4530,2.7634
2024-10-11T14:23:36.496Z,0.0443,-0.9878,0.1308,-0.0412,-0.0718,-0.2181,0.0004,0.0097,0.0399,-3.1118,1.4534,2.7714
2024-10-11T14:23:36.504Z,0.0455,-0.9900,0.1366,-0.0412,-0.0718,-0.2181,-0.0051,0.0175,0.0416,-3.1118,1.4534,2.7714
2024-10-11T14:23:36.515Z,0.0462,-0.9891,0.1344,-0.0412,-0.0718,-0.2181,-0.0064,0.0168,0.0434,-3.1118,1.4534,2.7714
2024-10-11T14:23:36.525Z,0.0475,-0.9898,0.1270,-0.0582,-0.0276,-0.2179,-0.0043,0.0187,0.0446,-3.1215,1.4540,2.7812
2024-10-11T14:23:36.535Z,0.0398,-0.9926,0.1135,-0.0582,-0.0276,-0.2179,-0.0019,0.0169,0.0464,-3.1215,1.4540,2.7812
2024-10-11T14:23:36.545Z,0.0405,-0.9931,0.1165,-0.0582,-0.0276,-0.2179,-0.0038,0.0161,0.0483,-3.1215,1.4540,2.7812
2024-10-11T14:23:36.555Z,0.0459,-0.9906,0.1232,-0.0438,-0.0292,-0.0888,-0.0058,0.0167,0.0499,-3.1328,1.4546,2.7926
2024-10-11T14:23:36.565Z,0.0389,-0.9889,0.1191,-0.0438,-0.0292,-0.0888,-0.0064,0.0203,0.0506,-3.1328,1.4546,2.7926
2024-10-11T14:23:36.575Z,0.0326,-0.9894,0.1198,-0.0438,-0.0292,-0.0888,-0.0060,0.0232,0.0521,-3.1328,1.4546,2.7926
2024-10-11T14:23:36.585Z,0.0335,-0.9947,0.1121,0.0613,-0.0094,-0.0524,-0.0079,0.0220,0.0528,3.1383,1.4552,2.8049
2024-10-11T14:23:36.596Z,0.0302,-0.9976,0.1075,0.0613,-0.0094,-0.0524,-0.0067,0.0209,0.0508,3.1383,1.4552,2.8049
2024-10-11T14:23:36.604Z,0.0264,-0.9978,0.1070,0.0613,-0.0094,-0.0524,-0.0043,0.0173,0.0501,3.1383,1.4552,2.8049
2024-10-11T14:23:36.615Z,0.0284,-1.0003,0.1024,0.0693,0.0581,0.0626,-0.0050,0.0173,0.0478,3.1268,1.4558,2.8168
2024-10-11T14:23:36.624Z,0.0165,-1.0010,0.1069,0.0693,0.0581,0.0626,-0.0030,0.0165,0.0443,3.1268,1.4558,2.8168
2024-10-11T14:23:36.635Z,0.0183,-1.0017,0.1150,0.0693,0.0581,0.0626,-0.0060,0.0143,0.0427,3.1268,1.4558,2.8168
2024-10-11T14:23:36.645Z,0.0094,-1.0029,0.1190,0.2139,0.0748,-0.1060,-0.0069,0.0108,0.0384,3.1170,1.4563,2.8268
2024-10-11T14:23:36.654Z,0.0135,-1.0038,0.1222,0.2139,0.0748,-0.1060,-0.0091,0.0091,0.0342,3.1170,1.4563,2.8268
2024-10-11T14:23:36.665Z,0.0172,-1.0032,0.1290,0.2139,0.0748,-0.1060,-0.0106,0.0041,0.0311,3.1170,1.4563,2.8268
2024-10-11T14:23:36.675Z,0.0208,-1.0034,0.1360,0.1439,0.1013,-0.2559,-0.0153,0.0038,0.0275,3.1094,1.4569,2.8343
2024-10-11T14:23:36.685Z,0.0169,-1.0053,0.1325,0.1439,0.1013,-0.2559,-0.0145,0.0034,0.0250,3.1094,1.4569,2.8343
2024-10-11T14:23:36.695Z,0.0136,-1.0068,0.1255,0.1439,0.1013,-0.2559,-0.0167,0.0035,0.0215,3.1094,1.4569,2.8343
2024-10-11T14:23:36.704Z,0.0089,-1.0074,0.1189,0.2177,0.1261,-0.1518,-0.0151,-0.0057,0.0186,3.1046,1.4575,2.8388
2024-10-11T14:23:36.714Z,0.0056,-1.0078,0.1140,0.2177,0.1261,-0.1518,-0.0145,-0.0090,0.0102,3.1046,1.4575,2.8388
2024-10-11T14:23:36.725Z,-0.0015,-1.0039,0.1099,0.2177,0.1261,-0.1518,-0.0148,-0.0122,0.0043,3.1046,1.4575,2.8388
2024-10-11T14:23:36.735Z,0.0030,-1.0035,0.1135,0.3327,0.1137,-0.0418,-0.0141,-0.0198,0.0008,3.1033,1.4580,2.8395
2024-10-11T14:23:36.745Z,0.0102,-0.9991,0.1161,0.3327,0.1137,-0.0418,-0.0109,-0.0273,-0.0029,3.1033,1.4580,2.8395
2024-10-11T14:23:36.754Z,0.0136,-0.9993,0.1152,0.3327,0.1137,-0.0418,-0.0142,-0.0282,-0.0071,3.1033,1.4580,2.8395
2024-10-11T14:23:36.764Z,0.0123,-0.9958,0.1181,0.2062,0.0413,-0.0833,-0.0146,-0.0239,-0.0072,3.1051,1.4583,2.8368
2024-10-11T14:23:36.775Z,0.0161,-0.9987,0.1172,0.2062,0.0413,-0.0833,-0.0199,-0.0141,-0.0075,3.1051,1.4583,2.8368
2024-10-11T14:23:36.785Z,0.0266,-0.9987,0.1215,0.2062,0.0413,-0.0833,-0.0194,-0.0160,-0.0106,3.1051,1.4583,2.8368
2024-10-11T14:23:36.796Z,0.0290,-0.9967,0.1138,0.0439,0.0337,-0.1166,-0.0193,-0.0146,-0.0097,3.1085,1.4587,2.8325
2024-10-11T14:23:36.805Z,0.0326,-0.9925,0.1113,0.0439,0.0337,-0.1166,-0.0167,-0.0123,-0.0106,3.1085,1.4587,2.8325
2024-10-11T14:23:36.816Z,0.0322,-0.9885,0.1044,0.0439,0.0337,-0.1166,-0.0178,-0.0123,-0.0125,3.1085,1.4587,2.8325
2024-10-11T14:23:36.825Z,0.0358,-0.9864,0.1068,0.0049,-0.0635,-0.0036,-0.0174,-0.0078,-0.0127,3.1126,1.4592,2.8279
2024-10-11T14:23:36.835Z,0.0455,-0.9879,0.1083,0.0049,-0.0635,-0.0036,-0.0203,0.0013,-0.0094,3.1126,1.4592,2.8279
2024-10-11T14:23:36.845Z,0.0459,-0.9913,0.1043,0.0049,-0.0635,-0.0036,-0.0181,0.0007,-0.0075,3.1126,1.4592,2.8279
2024-10-11T14:23:36.854Z,0.0509,-0.9939,0.1033,-0.1347,-0.0122,0.0284,-0.0174,0.0042,-0.0057,3.1158,1.4596,2.8245
2024-10-11T14:23:36.865Z,0.0485,-0.9886,0.1026,-0.1347,-0.0122,0.0284,-0.0143,0.0030,-0.0044,3.1158,1.4596,2.8245
2024-10-11T14:23:36.875Z,0.0487,-0.9833,0.1029,-0.1347,-0.0122,0.0284,-0.0133,0.0039,-0.0027,3.1158,1.4596,2.8245
2024-10-11T14:23:36.885Z,0.0430,-0.9857,0.1011,-0.1041,-0.1026,0.0296,-0.0119,0.0079,0.0008,3.1172,1.4599,2.8229
2024-10-11T14:23:36.895Z,0.0458,-0.9867,0.0993,-0.1041,-0.1026,0.0296,-0.0115,0.0129,-0.0002,3.1172,1.4599,2.8229
2024-10-11T14:23:36.904Z,0.0474,-0.9871,0.0966,-0.1041,-0.1026,0.0296,-0.0110,0.0174,0.0011,3.1172,1.4599,2.8229
2024-10-11T14:23:36.915Z,0.0466,-0.9853,0.0942,-0.1194,-0.0734,0.0788,-0.0094,0.0159,0.0016,3.1178,1.4602,2.8225
2024-10-11T14:23:36.925Z,0.0491,-0.9839,0.0894,-0.1194,-0.0734,0.0788,-0.0039,0.0133,0.0037,3.1178,1.4602,2.8225
2024-10-11T14:23:36.935Z,0.0533,-0.9825,0.0908,-0.1194,-0.0734,0.0788,-0.0013,0.0136,0.0023,3.1178,1.4602,2.8225
2024-10-11T14:23:36.945Z,0.0548,-0.9823,0.0870,-0.2027,-0.1156,0.1822,-0.0004,0.0185,0.0084,3.1171,1.4603,2.8235
2024-10-11T14:23:36.954Z,0.0556,-0.9872,0.0867,-0.2027,-0.1156,0.1822,0.0027,0.0203,0.0097,3.1171,1.4603,2.8235
2024-10-11T14:23:36.964Z,0.0557,-0.9862,0.0914,-0.2027,-0.1156,0.1822,0.0039,0.0276,0.0106,3.1171,1.4603,2.8235
2024-10-11T14:23:36.975Z,0.0472,-0.9866,0.0903,-0.1540,-0.0694,0.1262,0.0045,0.0306,0.0153,3.1141,1.4602,2.8269
2024-10-11T14:23:36.985Z,0.0456,-0.9845,0.0983,-0.1540,-0.0694,0.1262,0.0062,0.0290,0.0150,3.1141,1.4602,2.8269
2024-10-11T14:23:36.995Z,0.0405,-0.9828,0.1065,-0.1540,-0.0694,0.1262,0.0075,0.0222,0.0115,3.1141,1.4602,2.8269
2024-10-11T14:23:37.004Z,0.0363,-0.9888,0.1063,-0.0490,-0.0806,-0.0384,0.0068,0.0248,0.0123,3.1103,1.4602,2.8312
2024-10-11T14:23:37.015Z,0.0343,-0.9937,0.1062,-0.0490,-0.0806,-0.0384,0.0067,0.0240,0.0108,3.1103,1.4602,2.8312
2024-10-11T14:23:37.025Z,0.0338,-0.9962,0.1116,-0.0490,-0.0806,-0.0384,0.0064,0.0236,0.0131,3.1103,1.4602,2.8312
2024-10-11T14:23:37.036Z,0.0378,-0.9929,0.1173,-0.0487,0.0013,-0.1007,0.0067,0.0250,0.0119,3.1074,1.4601,2.8345
2024-10-11T14:23:37.045Z,0.0310,-0.9925,0.1181,-0.0487,0.0013,-0.1007,0.0017,0.0246,0.0082,3.1074,1.4601,2.8345
2024-10-11T14:23:37.055Z,0.0304,-0.9955,0.1231,-0.0487,0.0013,-0.1007,0.0015,0.0246,0.0094,3.1074,1.4601,2.8345
2024-10-11T14:23:37.065Z,0.0248,-0.9959,0.1238,0.0665,0.0194,-0.1895,0.0003,0.0228,0.0042,3.1056,1.4602,2.8368
2024-10-11T14:23:37.075Z,0.0349,-0.9940,0.1194,0.0665,0.0194,-0.1895,-0.0003,0.0259,0.0058,3.1056,1.4602,2.8368
2024-10-11T14:23:37.085Z,0.0375,-0.9927,0.1109,0.0665,0.0194,-0.1895,-0.0016,0.0271,0.0064,3.1056,1.4602,2.8368
2024-10-11T14:23:37.095Z,0.0345,-0.9909,0.1138,-0.0264,-0.0267,-0.0670,-0.0030,0.0281,0.0076,3.1042,1.4603,2.8386
2024-10-11T14:23:37.104Z,0.0341,-0.9915,0.1105,-0.0264,-0.0267,-0.0670,-0.0045,0.0289,0.0043,3.1042,1.4603,2.8386
2024-10-11T14:23:37.114Z,0.0330,-0.9951,0.1151,-0.0264,-0.0267,-0.0670,-0.0047,0.0277,0.0028,3.1042,1.4603,2.8386
2024-10-11T14:23:37.125Z,0.0394,-0.9924,0.1168,-0.0321,-0.0090,-0.0989,-0.0050,0.0297,0.0031,3.1031,1.4604,2.8403
2024-10-11T14:23:37.135Z,0.0428,-0.9978,0.1046,-0.0321,-0.0090,-0.0989,-0.0021,0.0249,0.0068,3.1031,1.4604,2.8403
2024-10-11T14:23:37.145Z,0.0419,-0.9984,0.1008,-0.0321,-0.0090,-0.0989,-0.0010,0.0226,0.0051,3.1031,1.4604,2.8403
2024-10-11T14:23:37.154Z,0.0390,-0.9968,0.0933,-0.0801,0.0525,0.1012,0.0025,0.0246,0.0049,3.1016,1.4604,2.8424
2024-10-11T14:23:37.165Z,0.0289,-0.9934,0.0889,-0.0801,0.0525,0.1012,0.0013,0.0233,0.0037,3.1016,1.4604,2.8424
2024-10-11T14:23:37.175Z,0.0251,-0.9904,0.0891,-0.0801,0.0525,0.1012,0.0037,0.0218,0.0007,3.1016,1.4604,2.8424
2024-10-11T14:23:37.185Z,0.0142,-0.9934,0.0895,0.1159,-0.0219,0.1444,0.0047,0.0156,-0.0038,3.1007,1.4603,2.8436
2024-10-11T14:23:37.195Z,0.0123,-0.9909,0.0895,0.1159,-0.0219,0.1444,0.0077,0.0071,-0.0065,3.1007,1.4603,2.8436
2024-10-11T14:23:37.204Z,0.0159,-0.9923,0.0883,0.1159,-0.0219,0.1444,0.0080,0.0053,-0.0092,3.1007,1.4603,2.8436
2024-10-11T14:23:37.215Z,0.0144,-0.9943,0.0932,0.1866,-0.0086,0.1629,0.0121,0.0033,-0.0139,3.1023,1.4599,2.8419
2024-10-11T14:23:37.225Z,0.0208,-0.9937,0.0968,0.1866,-0.0086,0.1629,0.0099,0.0014,-0.0154,3.1023,1.4599,2.8419
2024-10-11T14:23:37.235Z,0.0221,-0.9976,0.0986,0.1866,-0.0086,0.1629,0.0138,-0.0048,-0.0146,3.1023,1.4599,2.8419
2024-10-11T14:23:37.247Z,0.0234,-0.9975,0.1083,0.1145,0.0496,0.0178,0.0132,-0.0051,-0.0209,3.1057,1.4595,2.8382
2024-10-11T14:23:37.255Z,0.0254,-0.9972,0.1160,0.1145,0.0496,0.0178,0.0117,-0.0087,-0.0206,3.1057,1.4595,2.8382
2024-10-11T14:23:37.265Z,0.0170,-1.0006,0.1140,0.1145,0.0496,0.0178,0.0114,-0.0104,-0.0247,3.1057,1.4595,2.8382
2024-10-11T14:23:37.275Z,0.0218,-1.0017,0.1189,0.1467,0.0673,-0.1279,0.0098,-0.0132,-0.0243,3.1102,1.4591,2.8333
2024-10-11T14:23:37.285Z,0.0210,-0.9978,0.1256,0.1467,0.0673,-0.1279,0.0062,-0.0137,-0.0284,3.1102,1.4591,2.8333
2024-10-11T14:23:37.295Z,0.0255,-0.9944,0.1317,0.1467,0.0673,-0.1279,0.0025,-0.0145,-0.0275,3.1102,1.4591,2.8333
2024-10-11T14:23:37.305Z,0.0256,-0.9944,0.1328,0.0606,0.0066,-0.2540,0.0013,-0.0170,-0.0319,3.1163,1.4587,2.8266
2024-10-11T14:23:37.315Z,0.0246,-0.9968,0.1302,0.0606,0.0066,-0.2540,-0.0011,-0.0169,-0.0318,3.1163,1.4587,2.8266
2024-10-11T14:23:37.325Z,0.0289,-0.9935,0.1325,0.0606,0.0066,-0.2540,-0.0026,-0.0217,-0.0333,3.1163,1.4587,2.8266
2024-10-11T14:23:37.335Z,0.0257,-0.9955,0.1290,0.0892,0.0197,-0.2312,-0.0029,-0.0260,-0.0343,3.1242,1.4585,2.8178
2024-10-11T14:23:37.345Z,0.0301,-0.9952,0.1286,0.0892,0.0197,-0.2312,-0.0006,-0.0262,-0.0343,3.1242,1.4585,2.8178
2024-10-11T14:23:37.354Z,0.0305,-0.9932,0.1148,0.0892,0.0197,-0.2312,-0.0008,-0.0307,-0.0325,3.1242,1.4585,2.8178
2024-10-11T14:23:37.365Z,0.0289,-0.9919,0.1104,0.0737,-0.0104,-0.0515,-0.0045,-0.0278,-0.0342,3.1324,1.4582,2.8086
2024-10-11T14:23:37.375Z,0.0335,-0.9901,0.1046,0.0737,-0.0104,-0.0515,-0.0053,-0.0292,-0.0350,3.1324,1.4582,2.8086
2024-10-11T14:23:37.385Z,0.0331,-0.9899,0.1032,0.0737,-0.0104,-0.0515,-0.0004,-0.0316,-0.0362,3.1324,1.4582,2.8086
2024-10-11T14:23:37.395Z,0.0260,-0.9890,0.1039,0.0978,-0.0447,0.0651,-0.0026,-0.0345,-0.0352,3.1409,1.4579,2.7989
2024-10-11T14:23:37.404Z,0.0278,-0.9949,0.1066,0.0978,-0.0447,0.0651,-0.0032,-0.0358,-0.0356,3.1409,1.4579,2.7989
2024-10-11T14:23:37.415Z,0.0329,-0.9940,0.1169,0.0978,-0.0447,0.0651,-0.0056,-0.0346,-0.0358,3.1409,1.4579,2.7989
2024-10-11T14:23:37.424Z,0.0432,-0.9969,0.1110,0.0088,0.0231,-0.1042,-0.0076,-0.0356,-0.0349,-3.1340,1.4575,2.7894
2024-10-11T14:23:37.435Z,0.0410,-0.9976,0.1053,0.0088,0.0231,-0.1042,-0.0048,-0.0384,-0.0319,-3.1340,1.4575,2.7894
2024-10-11T14:23:37.446Z,0.0373,-0.9943,0.1064,0.0088,0.0231,-0.1042,-0.0017,-0.0340,-0.0320,-3.1340,1.4575,2.7894
2024-10-11T14:23:37.455Z,0.0402,-0.9930,0.1075,0.0221,-0.0162,-0.0213,-0.0060,-0.0366,-0.0295,-3.1264,1.4573,2.7805
2024-10-11T14:23:37.466Z,0.0418,-0.9897,0.1083,0.0221,-0.0162,-0.0213,-0.0033,-0.0323,-0.0252,-3.1264,1.4573,2.7805
2024-10-11T14:23:37.476Z,0.0414,-0.9911,0.1059,0.0221,-0.0162,-0.0213,-0.0038,-0.0310,-0.0262,-3.1264,1.4573,2.7805
2024-10-11T14:23:37.485Z,0.0355,-0.9944,0.1072,0.0233,-0.0039,-0.0014,-0.0039,-0.0306,-0.0261,-3.1197,1.4571,2.7727
2024-10-11T14:23:37.497Z,0.0328,-0.9954,0.1166,0.0233,-0.0039,-0.0014,-0.0051,-0.0312,-0.0266,-3.1197,1.4571,2.7727
2024-10-11T14:23:37.504Z,0.0393,-0.9971,0.1132,0.0233,-0.0039,-0.0014,-0.0039,-0.0297,-0.0268,-3.1197,1.4571,2.7727
2024-10-11T14:23:37.515Z,0.0368,-0.9991,0.1141,0.0361,0.0465,-0.0933,-0.0075,-0.0292,-0.0215,-3.1135,1.4570,2.7653
2024-10-11T14:23:37.525Z,0.0442,-1.0022,0.1186,0.0361,0.0465,-0.0933,-0.0082,-0.0256,-0.0192,-3.1135,1.4570,2.7653
2024-10-11T14:23:37.535Z,0.0468,-1.0058,0.1176,0.0361,0.0465,-0.0933,-0.0072,-0.0239,-0.0176,-3.1135,1.4570,2.7653
2024-10-11T14:23:37.546Z,0.0520,-1.0016,0.1180,-0.0610,0.0970,-0.1306,-0.0087,-0.0189,-0.0148,-3.1089,1.4570,2.7598
2024-10-11T14:23:37.554Z,0.0508,-0.9962,0.1130,-0.0610,0.0970,-0.1306,-0.0084,-0.0202,-0.0073,-3.1089,1.4570,2.7598
2024-10-11T14:23:37.565Z,0.0478,-0.9930,0.1182,-0.0610,0.0970,-0.1306,-0.0097,-0.0124,-0.0064,-3.1089,1.4570,2.7598
2024-10-11T14:23:37.575Z,0.0539,-0.9852,0.1125,-0.0761,-0.0431,-0.1170,-0.0117,-0.0053,-0.0048,-3.1062,1.4571,2.7564
2024-10-11T14:23:37.584Z,0.0537,-0.9910,0.1024,-0.0761,-0.0431,-0.1170,-0.0089,-0.0033,-0.0023,-3.1062,1.4571,2.7564
2024-10-11T14:23:37.596Z,0.0532,-0.9905,0.1024,-0.0761,-0.0431,-0.1170,-0.0084,0.0012,0.0029,-3.1062,1.4571,2.7564
2024-10-11T14:23:37.605Z,0.0536,-0.9950,0.1041,-0.1157,-0.0072,0.0174,-0.0078,0.0050,0.0051,-3.1064,1.4574,2.7563
2024-10-11T14:23:37.615Z,0.0538,-0.9943,0.1066,-0.1157,-0.0072,0.0174,-0.0078,0.0121,0.0109,-3.1064,1.4574,2.7563
2024-10-11T14:23:37.625Z,0.0511,-0.9949,0.1086,-0.1157,-0.0072,0.0174,-0.0075,0.0134,0.0123,-3.1064,1.4574,2.7563
2024-10-11T14:23:37.635Z,0.0500,-0.9947,0.1020,-0.0708,0.0132,0.0160,-0.0040,0.0148,0.0147,-3.1088,1.4577,2.7589
2024-10-11T14:23:37.646Z,0.0474,-0.9967,0.0987,-0.0708,0.0132,0.0160,-0.0055,0.0212,0.0194,-3.1088,1.4577,2.7589
2024-10-11T14:23:37.654Z,0.0490,-0.9942,0.0967,-0.0708,0.0132,0.0160,-0.0032,0.0222,0.0185,-3.1088,1.4577,2.7589
2024-10-11T14:23:37.665Z,0.0420,-0.9925,0.0952,-0.0534,0.0108,0.1008,-0.0017,0.0239,0.0207,-3.1130,1.4580,2.7634
2024-10-11T14:23:37.675Z,0.0374,-0.9895,0.1016,-0.0534,0.0108,0.1008,-0.0040,0.0263,0.0209,-3.1130,1.4580,2.7634
2024-10-11T14:23:37.685Z,0.0406,-0.9867,0.1053,-0.0534,0.0108,0.1008,-0.0012,0.0308,0.0242,-3.1130,1.4580,2.7634
2024-10-11T14:23:37.697Z,0.0469,-0.9858,0.1098,-0.0182,-0.0864,-0.0435,-0.0010,0.0341,0.0244,-3.1183,1.4583,2.7693
2024-10-11T14:23:37.704Z,0.0488,-0.9863,0.0969,-0.0182,-0.0864,-0.0435,-0.0011,0.0322,0.0259,-3.1183,1.4583,2.7693
2024-10-11T14:23:37.715Z,0.0407,-0.9870,0.0986,-0.0182,-0.0864,-0.0435,0.0005,0.0395,0.0290,-3.1183,1.4583,2.7693
2024-10-11T14:23:37.725Z,0.0407,-0.9837,0.1023,0.0162,-0.0890,0.0345,-0.0010,0.0410,0.0299,-3.1251,1.4587,2.7769
2024-10-11T14:23:37.735Z,0.0411,-0.9832,0.1014,0.0162,-0.0890,0.0345,0.0008,0.0472,0.0323,-3.1251,1.4587,2.7769
2024-10-11T14:23:37.745Z,0.0374,-0.9821,0.1023,0.0162,-0.0890,0.0345,0.0034,0.0455,0.0322,-3.1251,1.4587,2.7769
2024-10-11T14:23:37.754Z,0.0392,-0.9826,0.1059,0.0046,-0.1141,-0.0004,0.0028,0.0483,0.0335,-3.1330,1.4590,2.7859
2024-10-11T14:23:37.764Z,0.0371,-0.9849,0.1104,0.0046,-0.1141,-0.0004,0.0016,0.0461,0.0335,-3.1330,1.4590,2.7859
2024-10-11T14:23:37.775Z,0.0367,-0.9847,0.1121,0.0046,-0.1141,-0.0004,0.0017,0.0492,0.0328,-3.1330,1.4590,2.7859
2024-10-11T14:23:37.785Z,0.0265,-0.9897,0.1158,0.0403,-0.0713,-0.0870,-0.0012,0.0486,0.0332,3.1416,1.4593,2.7956
2024-10-11T14:23:37.797Z,0.0255,-0.9897,0.1187,0.0403,-0.0713,-0.0870,-0.0016,0.0409,0.0313,3.1416,1.4593,2.7956
2024-10-11T14:23:37.804Z,0.0265,-0.9894,0.1212,0.0403,-0.0713,-0.0870,-0.0031,0.0451,0.0298,3.1416,1.4593,2.7956
2024-10-11T14:23:37.814Z,0.0338,-0.9892,0.1218,0.0872,-0.0382,-0.1606,-0.0033,0.0447,0.0329,3.1339,1.4597,2.8044
2024-10-11T14:23:37.825Z,0.0333,-0.9893,0.1202,0.0872,-0.0382,-0.1606,-0.0058,0.0422,0.0308,3.1339,1.4597,2.8044
2024-10-11T14:23:37.835Z,0.0272,-0.9926,0.1181,0.0872,-0.0382,-0.1606,-0.0069,0.0407,0.0297,3.1339,1.4597,2.8044
2024-10-11T14:23:37.846Z,0.0284,-0.9937,0.1187,0.0678,0.0001,-0.1613,-0.0057,0.0448,0.0264,3.1268,1.4601,2.8126
2024-10-11T14:23:37.854Z,0.0292,-0.9946,0.1151,0.0678,0.0001,-0.1613,-0.0090,0.0447,0.0270,3.1268,1.4601,2.8126
2024-10-11T14:23:37.865Z,0.0306,-0.9940,0.1146,0.0678,0.0001,-0.1613,-0.0086,0.0444,0.0260,3.1268,1.4601,2.8126
2024-10-11T14:23:37.875Z,0.0281,-0.9954,0.1214,0.0576,0.0038,-0.1475,-0.0089,0.0425,0.0253,3.1202,1.4606,2.8202
2024-10-11T14:23:37.885Z,0.0283,-0.9953,0.1238,0.0576,0.0038,-0.1475,-0.0117,0.0431,0.0237,3.1202,1.4606,2.8202
2024-10-11T14:23:37.896Z,0.0297,-0.9991,0.1234,0.0576,0.0038,-0.1475,-0.0124,0.0439,0.0251,3.1202,1.4606,2.8202
2024-10-11T14:23:37.905Z,0.0342,-0.9994,0.1153,0.0133,0.0592,-0.1413,-0.0145,0.0448,0.0218,3.1144,1.4611,2.8271
2024-10-11T14:23:37.916Z,0.0311,-1.0036,0.1166,0.0133,0.0592,-0.1413,-0.0162,0.0441,0.0227,3.1144,1.4611,2.8271
2024-10-11T14:23:37.925Z,0.0282,-1.0057,0.1095,0.0133,0.0592,-0.1413,-0.0184,0.0436,0.0203,3.1144,1.4611,2.8271
2024-10-11T14:23:37.935Z,0.0190,-1.0024,0.0994,0.0911,0.1025,-0.0026,-0.0141,0.0412,0.0185,3.1096,1.4617,2.8329
2024-10-11T14:23:37.946Z,0.0172,-1.0011,0.0972,0.0911,0.1025,-0.0026,-0.0144,0.0348,0.0160,3.1096,1.4617,2.8329
2024-10-11T14:23:37.954Z,0.0166,-0.9998,0.0942,0.0911,0.1025,-0.0026,-0.0116,0.0309,0.0132,3.1096,1.4617,2.8329
2024-10-11T14:23:37.965Z,0.0148,-0.9963,0.0938,0.1862,0.0392,0.1208,-0.0081,0.0250,0.0078,3.1066,1.4621,2.8366
2024-10-11T14:23:37.975Z,0.0176,-0.9922,0.0899,0.1862,0.0392,0.1208,-0.0093,0.0269,0.0056,3.1066,1.4621,2.8366
2024-10-11T14:23:37.985Z,0.0187,-0.9894,0.1014,0.1862,0.0392,0.1208,-0.0108,0.0248,0.0024,3.1066,1.4621,2.8366
2024-10-11T14:23:37.995Z,0.0219,-0.9875,0.1064,0.1224,-0.0691,-0.0008,-0.0107,0.0215,0.0011,3.1059,1.4623,2.8377
2024-10-11T14:23:38.004Z,0.0160,-0.9927,0.1009,0.1224,-0.0691,-0.0008,-0.0099,0.0234,-0.0026,3.1059,1.4623,2.8377
2024-10-11T14:23:38.015Z,0.0168,-0.9976,0.0961,0.1224,-0.0691,-0.0008,-0.0064,0.0182,-0.0029,3.1059,1.4623,2.8377
2024-10-11T14:23:38.025Z,0.0201,-1.0018,0.0963,0.1276,0.0550,0.0822,-0.0045,0.0190,-0.0068,3.1069,1.4625,2.8370
2024-10-11T14:23:38.035Z,0.0182,-1.0033,0.1050,0.1276,0.0550,0.0822,-0.0067,0.0147,-0.0072,3.1069,1.4625,2.8370
2024-10-11T14:23:38.045Z,0.0228,-1.0059,0.1057,0.1276,0.0550,0.0822,-0.0069,0.0173,-0.0091,3.1069,1.4625,2.8370
2024-10-11T14:23:38.055Z,0.0222,-1.0056,0.1090,0.0926,0.1086,-0.0278,-0.0068,0.0140,-0.0111,3.1095,1.4627,2.8347
2024-10-11T14:23:38.065Z,0.0218,-1.0013,0.1178,0.0926,0.1086,-0.0278,-0.0080,0.0133,-0.0131,3.1095,1.4627,2.8347
2024-10-11T14:23:38.075Z,0.0205,-0.9986,0.1228,0.0926,0.1086,-0.0278,-0.0130,0.0150,-0.0129,3.1095,1.4627,2.8347
2024-10-11T14:23:38.085Z,0.0261,-0.9974,0.1183,0.1104,0.0448,-0.1934,-0.0129,0.0174,-0.0119,3.1136,1.4629,2.8309
2024-10-11T14:23:38.095Z,0.0345,-0.9944,0.1189,0.1104,0.0448,-0.1934,-0.0160,0.0164,-0.0157,3.1136,1.4629,2.8309
2024-10-11T14:23:38.104Z,0.0357,-0.9947,0.1140,0.1104,0.0448,-0.1934,-0.0169,0.0175,-0.0165,3.1136,1.4629,2.8309
2024-10-11T14:23:38.115Z,0.0319,-0.9998,0.1059,-0.0006,0.0319,-0.1266,-0.0163,0.0174,-0.0161,3.1184,1.4632,2.8264
2024-10-11T14:23:38.125Z,0.0377,-1.0011,0.0953,-0.0006,0.0319,-0.1266,-0.0120,0.0215,-0.0148,3.1184,1.4632,2.8264
2024-10-11T14:23:38.136Z,0.0449,-0.9965,0.0882,-0.0006,0.0319,-0.1266,-0.0118,0.0216,-0.0147,3.1184,1.4632,2.8264
2024-10-11T14:23:38.145Z,0.0426,-0.9926,0.0926,-0.1227,0.0018,0.1164,-0.0093,0.0215,-0.0134,3.1227,1.4633,2.8224
2024-10-11T14:23:38.154Z,0.0364,-0.9897,0.1006,-0.1227,0.0018,0.1164,-0.0105,0.0217,-0.0137,3.1227,1.4633,2.8224
2024-10-11T14:23:38.164Z,0.0410,-0.9844,0.1048,-0.1227,0.0018,0.1164,-0.0102,0.0206,-0.0153,3.1227,1.4633,2.8224
2024-10-11T14:23:38.175Z,0.0477,-0.9873,0.0997,-0.1058,-0.0803,-0.0104,-0.0099,0.0218,-0.0085,3.1261,1.4634,2.8194
2024-10-11T14:23:38.185Z,0.0530,-0.9876,0.1011,-0.1058,-0.0803,-0.0104,-0.0105,0.0256,-0.0100,3.1261,1.4634,2.8194
2024-10-11T14:23:38.195Z,0.0504,-0.9851,0.1017,-0.1058,-0.0803,-0.0104,-0.0082,0.0295,-0.0062,3.1261,1.4634,2.8194
2024-10-11T14:23:38.204Z,0.0526,-0.9813,0.1006,-0.1581,-0.1139,-0.0089,-0.0049,0.0342,0.0006,3.1280,1.4635,2.8181
2024-10-11T14:23:38.214Z,0.0562,-0.9815,0.0947,-0.1581,-0.1139,-0.0089,-0.0073,0.0338,-0.0021,3.1280,1.4635,2.8181
2024-10-11T14:23:38.225Z,0.0528,-0.9811,0.0961,-0.1581,-0.1139,-0.0089,-0.0022,0.0298,-0.0002,3.1280,1.4635,2.8181
2024-10-11T14:23:38.235Z,0.0475,-0.9782,0.0983,-0.1589,-0.1391,0.0804,-0.0024,0.0340,0.0042,3.1283,1.4636,2.8187
2024-10-11T14:23:38.245Z,0.0445,-0.9797,0.0957,-0.1589,-0.1391,0.0804,0.0013,0.0357,0.0065,3.1283,1.4636,2.8187
2024-10-11T14:23:38.254Z,0.0493,-0.9824,0.1030,-0.1589,-0.1391,0.0804,0.0012,0.0400,0.0087,3.1283,1.4636,2.8187
2024-10-11T14:23:38.264Z,0.0439,-0.9820,0.1062,-0.1232,-0.1144,-0.0093,0.0004,0.0393,0.0115,3.1265,1.4637,2.8213
2024-10-11T14:23:38.275Z,0.0412,-0.9812,0.1113,-0.1232,-0.1144,-0.0093,0.0011,0.0364,0.0110,3.1265,1.4637,2.8213
2024-10-11T14:23:38.285Z,0.0399,-0.9841,0.1082,-0.1232,-0.1144,-0.0093,-0.0006,0.0373,0.0095,3.1265,1.4637,2.8213
2024-10-11T14:23:38.295Z,0.0403,-0.9845,0.1119,-0.0588,-0.0967,-0.0687,-0.0005,0.0381,0.0105,3.1245,1.4637,2.8242
2024-10-11T14:23:38.304Z,0.0394,-0.9874,0.1118,-0.0588,-0.0967,-0.0687,0.0014,0.0429,0.0122,3.1245,1.4637,2.8242
2024-10-11T14:23:38.314Z,0.0394,-0.9822,0.1034,-0.0588,-0.0967,-0.0687,0.0017,0.0399,0.0113,3.1245,1.4637,2.8242
2024-10-11T14:23:38.325Z,0.0355,-0.9751,0.1029,-0.0504,-0.1619,-0.0058,0.0002,0.0425,0.0107,3.1220,1.4638,2.8277
2024-10-11T14:23:38.335Z,0.0343,-0.9696,0.1016,-0.0504,-0.1619,-0.0058,0.0016,0.0369,0.0105,3.1220,1.4638,2.8277
2024-10-11T14:23:38.345Z,0.0378,-0.9653,0.1058,-0.0504,-0.1619,-0.0058,-0.0012,0.0367,0.0140,3.1220,1.4638,2.8277
2024-10-11T14:23:38.355Z,0.0340,-0.9618,0.1108,-0.0218,-0.2998,-0.0898,0.0014,0.0275,0.0115,3.1186,1.4638,2.8318
2024-10-11T14:23:38.364Z,0.0378,-0.9572,0.1206,-0.0218,-0.2998,-0.0898,-0.0016,0.0267,0.0114,3.1186,1.4638,2.8318
2024-10-11T14:23:38.375Z,0.0342,-0.9563,0.1213,-0.0218,-0.2998,-0.0898,-0.0009,0.0243,0.0145,3.1186,1.4638,2.8318
2024-10-11T14:23:38.384Z,0.0327,-0.9560,0.1237,-0.0209,-0.3653,-0.2298,-0.0019,0.0250,0.0110,3.1151,1.4640,2.8359
2024-10-11T14:23:38.395Z,0.0170,-0.9536,0.1220,-0.0209,-0.3653,-0.2298,-0.0008,0.0220,0.0080,3.1151,1.4640,2.8359
2024-10-11T14:23:38.404Z,0.0096,-0.9557,0.1187,-0.0209,-0.3653,-0.2298,0.0004,0.0179,0.0021,3.1151,1.4640,2.8359
2024-10-11T14:23:38.414Z,0.0101,-0.9574,0.1200,0.2071,-0.3707,-0.1680,0.0016,0.0157,0.0000,3.1139,1.4640,2.8373
2024-10-11T14:23:38.425Z,0.0089,-0.9643,0.1176,0.2071,-0.3707,-0.1680,0.0012,0.0115,-0.0081,3.1139,1.4640,2.8373
2024-10-11T14:23:38.435Z,0.0073,-0.9698,0.1081,0.2071,-0.3707,-0.1680,0.0041,0.0133,-0.0127,3.1139,1.4640,2.8373
2024-10-11T14:23:38.445Z,0.0086,-0.9769,0.1011,0.2466,-0.2030,-0.0133,0.0025,0.0209,-0.0197,3.1166,1.4638,2.8348
2024-10-11T14:23:38.455Z,0.0073,-0.9789,0.1035,0.2466,-0.2030,-0.0133,0.0051,0.0227,-0.0248,3.1166,1.4638,2.8348
2024-10-11T14:23:38.464Z,0.0108,-0.9812,0.0975,0.2466,-0.2030,-0.0133,0.0047,0.0223,-0.0275,3.1166,1.4638,2.8348
2024-10-11T14:23:38.475Z,0.0119,-0.9840,0.0870,0.1986,-0.1133,0.0911,0.0025,0.0278,-0.0354,3.1234,1.4633,2.8286
2024-10-11T14:23:38.485Z,0.0128,-0.9909,0.0776,0.1986,-0.1133,0.0911,0.0025,0.0352,-0.0396,3.1234,1.4633,2.8286
2024-10-11T14:23:38.496Z,0.0193,-0.9924,0.0831,0.1986,-0.1133,0.0911,0.0029,0.0417,-0.0477,3.1234,1.4633,2.8286
