time,gFx,gFy,gFz,ax,ay,az,wx,wy,wz,yaw,pitch,roll
2024-10-11T12:56:53.301Z,-0.0169,-0.9630,0.2166,0.0861,-0.1168,0.0554,-0.0019,-0.0025,0.0086,-2.4794,1.3465,-3.1051
2024-10-11T12:56:53.308Z,-0.0129,-0.9635,0.2166,0.0861,-0.1168,0.0554,-0.0024,0.0011,0.0043,-2.4794,1.3465,-3.1051
2024-10-11T12:56:53.318Z,-0.0130,-0.9634,0.2175,0.0464,-0.1131,0.0461,0.0025,-0.0003,0.0060,-2.4806,1.3466,-3.1042
2024-10-11T12:56:53.329Z,-0.0102,-0.9638,0.2157,0.0464,-0.1131,0.0461,0.0018,0.0029,0.0050,-2.4806,1.3466,-3.1042
2024-10-11T12:56:53.338Z,-0.0108,-0.9668,0.2141,0.0464,-0.1131,0.0461,0.0029,0.0046,0.0051,-2.4806,1.3466,-3.1042
2024-10-11T12:56:53.349Z,-0.0081,-0.9669,0.2133,-0.0044,-0.0791,0.0871,0.0025,0.0041,0.0048,-2.4818,1.3466,-3.1032
2024-10-11T12:56:53.358Z,-0.0092,-0.9686,0.2120,-0.0044,-0.0791,0.0871,0.0021,0.0048,0.0057,-2.4818,1.3466,-3.1032
2024-10-11T12:56:53.368Z,-0.0104,-0.9690,0.2129,-0.0044,-0.0791,0.0871,0.0020,0.0032,0.0067,-2.4818,1.3466,-3.1032
2024-10-11T12:56:53.379Z,-0.0078,-0.9702,0.2148,-0.0094,-0.0464,0.0731,0.0043,0.0047,0.0063,-2.4830,1.3465,-3.1021
2024-10-11T12:56:53.389Z,-0.0022,-0.9711,0.2196,-0.0094,-0.0464,0.0731,0.0054,0.0055,0.0038,-2.4830,1.3465,-3.1021
2024-10-11T12:56:53.399Z,-0.0056,-0.9731,0.2215,-0.0094,-0.0464,0.0731,0.0031,0.0050,0.0066,-2.4830,1.3465,-3.1021
2024-10-11T12:56:53.408Z,-0.0051,-0.9769,0.2245,-0.0386,0.0194,-0.0206,0.0060,0.0060,0.0065,-2.4841,1.3463,-3.1012
2024-10-11T12:56:53.418Z,-0.0077,-0.9776,0.2290,-0.0386,0.0194,-0.0206,0.0065,0.0063,0.0066,-2.4841,1.3463,-3.1012
2024-10-11T12:56:53.429Z,-0.0089,-0.9783,0.2325,-0.0386,0.0194,-0.0206,0.0068,0.0063,0.0067,-2.4841,1.3463,-3.1012
2024-10-11T12:56:53.439Z,-0.0103,-0.9773,0.2321,0.0110,0.0240,-0.0939,0.0048,0.0073,0.0053,-2.4849,1.3462,-3.1004
2024-10-11T12:56:53.449Z,-0.0135,-0.9776,0.2326,0.0110,0.0240,-0.0939,0.0047,0.0062,0.0043,-2.4849,1.3462,-3.1004
2024-10-11T12:56:53.458Z,-0.0124,-0.9769,0.2342,0.0110,0.0240,-0.0939,0.0071,0.0074,0.0035,-2.4849,1.3462,-3.1004
2024-10-11T12:56:53.468Z,-0.0115,-0.9767,0.2345,0.0217,0.0186,-0.1154,0.0069,0.0086,0.0034,-2.4855,1.3460,-3.0999
2024-10-11T12:56:53.479Z,-0.0105,-0.9774,0.2316,0.0217,0.0186,-0.1154,0.0013,0.0071,0.0018,-2.4855,1.3460,-3.0999
2024-10-11T12:56:53.490Z,-0.0100,-0.9771,0.2281,0.0217,0.0186,-0.1154,0.0062,0.0090,0.0006,-2.4855,1.3460,-3.0999
2024-10-11T12:56:53.499Z,-0.0111,-0.9755,0.2271,0.0175,0.0068,-0.0415,0.0057,0.0060,0.0019,-2.4858,1.3458,-3.0997
2024-10-11T12:56:53.508Z,-0.0083,-0.9767,0.2278,0.0175,0.0068,-0.0415,0.0058,0.0043,0.0045,-2.4858,1.3458,-3.0997
2024-10-11T12:56:53.518Z,-0.0089,-0.9764,0.2276,0.0175,0.0068,-0.0415,0.0020,0.0052,0.0021,-2.4858,1.3458,-3.0997
2024-10-11T12:56:53.529Z,-0.0093,-0.9758,0.2261,-0.0009,0.0104,-0.0304,0.0017,0.0018,0.0020,-2.4862,1.3457,-3.0994
2024-10-11T12:56:53.539Z,-0.0060,-0.9747,0.2253,-0.0009,0.0104,-0.0304,0.0019,0.0049,0.0031,-2.4862,1.3457,-3.0994
2024-10-11T12:56:53.549Z,-0.0075,-0.9747,0.2278,-0.0009,0.0104,-0.0304,0.0015,0.0064,0.0010,-2.4862,1.3457,-3.0994
2024-10-11T12:56:53.559Z,-0.0077,-0.9748,0.2288,-0.0175,0.0009,-0.0550,0.0016,0.0037,0.0038,-2.4867,1.3455,-3.0990
2024-10-11T12:56:53.568Z,-0.0062,-0.9746,0.2291,-0.0175,0.0009,-0.0550,0.0010,0.0037,0.0032,-2.4867,1.3455,-3.0990
2024-10-11T12:56:53.579Z,-0.0084,-0.9745,0.2302,-0.0175,0.0009,-0.0550,-0.0014,0.0045,0.0003,-2.4867,1.3455,-3.0990
2024-10-11T12:56:53.589Z,-0.0077,-0.9764,0.2304,-0.0184,0.0170,-0.0689,-0.0009,0.0020,0.0034,-2.4871,1.3453,-3.0988
2024-10-11T12:56:53.599Z,-0.0096,-0.9758,0.2287,-0.0184,0.0170,-0.0689,-0.0024,-0.0016,0.0018,-2.4871,1.3453,-3.0988
2024-10-11T12:56:53.609Z,-0.0117,-0.9757,0.2270,-0.0184,0.0170,-0.0689,0.0007,0.0005,0.0036,-2.4871,1.3453,-3.0988
2024-10-11T12:56:53.618Z,-0.0085,-0.9768,0.2280,-0.0098,0.0206,-0.0450,-0.0015,-0.0015,0.0017,-2.4871,1.3453,-3.0990
2024-10-11T12:56:53.629Z,-0.0059,-0.9751,0.2268,-0.0098,0.0206,-0.0450,-0.0003,-0.0052,0.0025,-2.4871,1.3453,-3.0990
2024-10-11T12:56:53.639Z,-0.0060,-0.9741,0.2269,-0.0098,0.0206,-0.0450,-0.0006,-0.0054,0.0021,-2.4871,1.3453,-3.0990
2024-10-11T12:56:53.649Z,-0.0048,-0.9752,0.2260,-0.0436,0.0061,-0.0194,-0.0032,-0.0058,0.0019,-2.4862,1.3447,-3.1003
2024-10-11T12:56:53.659Z,-0.0064,-0.9753,0.2262,-0.0436,0.0061,-0.0194,-0.0034,-0.0065,0.0012,-2.4862,1.3447,-3.1003
2024-10-11T12:56:53.668Z,-0.0074,-0.9759,0.2249,-0.0436,0.0061,-0.0194,-0.0035,-0.0077,0.0045,-2.4862,1.3447,-3.1003
2024-10-11T12:56:53.678Z,-0.0090,-0.9768,0.2241,-0.0015,0.0230,0.0048,-0.0036,-0.0099,0.0052,-2.4863,1.3441,-3.1007
2024-10-11T12:56:53.689Z,-0.0086,-0.9742,0.2230,-0.0015,0.0230,0.0048,-0.0002,-0.0124,0.0047,-2.4863,1.3441,-3.1007
2024-10-11T12:56:53.699Z,-0.0126,-0.9726,0.2235,-0.0015,0.0230,0.0048,-0.0014,-0.0132,0.0023,-2.4863,1.3441,-3.1007
2024-10-11T12:56:53.709Z,-0.0173,-0.9727,0.2260,0.0797,-0.0172,-0.0136,-0.0017,-0.0133,0.0061,-2.4870,1.3441,-3.1006
2024-10-11T12:56:53.718Z,-0.0162,-0.9739,0.2290,0.0797,-0.0172,-0.0136,-0.0007,-0.0126,-0.0000,-2.4870,1.3441,-3.1006
2024-10-11T12:56:53.729Z,-0.0177,-0.9741,0.2285,0.0797,-0.0172,-0.0136,-0.0006,-0.0183,0.0027,-2.4870,1.3441,-3.1006
2024-10-11T12:56:53.740Z,-0.0139,-0.9769,0.2300,0.0474,0.0248,-0.0531,-0.0031,-0.0175,0.0024,-2.4872,1.3441,-3.1012
2024-10-11T12:56:53.749Z,-0.0123,-0.9764,0.2291,0.0474,0.0248,-0.0531,-0.0034,-0.0154,0.0007,-2.4872,1.3441,-3.1012
2024-10-11T12:56:53.759Z,-0.0123,-0.9761,0.2282,0.0474,0.0248,-0.0531,-0.0046,-0.0161,0.0018,-2.4872,1.3441,-3.1012
2024-10-11T12:56:53.769Z,-0.0105,-0.9764,0.2289,0.0147,0.0194,-0.0422,-0.0041,-0.0166,0.0021,-2.4876,1.3441,-3.1015
2024-10-11T12:56:53.779Z,-0.0112,-0.9765,0.2298,0.0147,0.0194,-0.0422,-0.0056,-0.0143,0.0022,-2.4876,1.3441,-3.1015
2024-10-11T12:56:53.789Z,-0.0103,-0.9756,0.2267,0.0147,0.0194,-0.0422,-0.0055,-0.0115,0.0020,-2.4876,1.3441,-3.1015
2024-10-11T12:56:53.799Z,-0.0100,-0.9769,0.2261,0.0096,0.0238,-0.0160,-0.0057,-0.0078,0.0028,-2.4882,1.3442,-3.1015
2024-10-11T12:56:53.809Z,-0.0132,-0.9771,0.2265,0.0096,0.0238,-0.0160,-0.0062,-0.0085,0.0043,-2.4882,1.3442,-3.1015
2024-10-11T12:56:53.818Z,-0.0140,-0.9782,0.2248,0.0096,0.0238,-0.0160,-0.0067,-0.0073,0.0047,-2.4882,1.3442,-3.1015
2024-10-11T12:56:53.829Z,-0.0154,-0.9793,0.2246,0.0625,0.0479,-0.0019,-0.0063,-0.0082,0.0031,-2.4890,1.3443,-3.1012
2024-10-11T12:56:53.839Z,-0.0138,-0.9799,0.2223,0.0625,0.0479,-0.0019,-0.0105,-0.0051,0.0035,-2.4890,1.3443,-3.1012
2024-10-11T12:56:53.849Z,-0.0111,-0.9793,0.2251,0.0625,0.0479,-0.0019,-0.0070,-0.0059,0.0031,-2.4890,1.3443,-3.1012
2024-10-11T12:56:53.859Z,-0.0080,-0.9782,0.2239,-0.0113,0.0363,0.0040,-0.0068,-0.0040,-0.0005,-2.4897,1.3444,-3.1010
2024-10-11T12:56:53.868Z,-0.0092,-0.9778,0.2233,-0.0113,0.0363,0.0040,-0.0039,-0.0028,0.0043,-2.4897,1.3444,-3.1010
2024-10-11T12:56:53.879Z,-0.0083,-0.9749,0.2225,-0.0113,0.0363,0.0040,-0.0074,-0.0002,0.0044,-2.4897,1.3444,-3.1010
2024-10-11T12:56:53.890Z,-0.0091,-0.9720,0.2215,-0.0014,-0.0250,0.0256,-0.0056,0.0001,0.0017,-2.4905,1.3445,-3.1005
2024-10-11T12:56:53.899Z,-0.0109,-0.9725,0.2218,-0.0014,-0.0250,0.0256,-0.0064,-0.0010,0.0006,-2.4905,1.3445,-3.1005
2024-10-11T12:56:53.910Z,-0.0121,-0.9705,0.2237,-0.0014,-0.0250,0.0256,-0.0095,0.0001,0.0023,-2.4905,1.3445,-3.1005
2024-10-11T12:56:53.919Z,-0.0121,-0.9705,0.2237,0.0265,-0.0402,0.0019,-0.0105,0.0012,0.0004,-2.4916,1.3448,-3.0997
2024-10-11T12:56:53.929Z,-0.0155,-0.9706,0.2237,0.0265,-0.0402,0.0019,-0.0091,-0.0008,-0.0002,-2.4916,1.3448,-3.0997
2024-10-11T12:56:53.942Z,-0.0141,-0.9716,0.2247,0.0341,-0.0266,-0.0208,-0.0093,0.0009,-0.0001,-2.4919,1.3451,-3.0996
2024-10-11T12:56:53.948Z,-0.0129,-0.9719,0.2257,0.0341,-0.0266,-0.0208,-0.0101,0.0001,-0.0016,-2.4919,1.3451,-3.0996
2024-10-11T12:56:53.959Z,-0.0134,-0.9717,0.2265,0.0341,-0.0266,-0.0208,-0.0099,0.0007,0.0002,-2.4919,1.3451,-3.0996
2024-10-11T12:56:53.968Z,-0.0117,-0.9725,0.2299,0.0341,-0.0266,-0.0208,-0.0114,0.0005,-0.0007,-2.4919,1.3451,-3.0996
2024-10-11T12:56:53.980Z,-0.0114,-0.9768,0.2271,0.0303,-0.0069,-0.0497,-0.0142,-0.0001,-0.0010,-2.4920,1.3454,-3.0998
2024-10-11T12:56:53.990Z,-0.0114,-0.9768,0.2271,0.0303,-0.0069,-0.0497,-0.0120,0.0024,-0.0020,-2.4920,1.3454,-3.0998
2024-10-11T12:56:54.000Z,-0.0077,-0.9798,0.2265,0.0303,-0.0069,-0.0497,-0.0139,0.0012,-0.0025,-2.4920,1.3454,-3.0998
2024-10-11T12:56:54.010Z,-0.0057,-0.9785,0.2236,-0.0156,0.0493,-0.0354,-0.0137,0.0001,-0.0023,-2.4922,1.3458,-3.0998
2024-10-11T12:56:54.018Z,-0.0057,-0.9785,0.2236,-0.0156,0.0493,-0.0354,-0.0121,0.0001,-0.0009,-2.4922,1.3458,-3.0998
2024-10-11T12:56:54.028Z,-0.0058,-0.9800,0.2245,-0.0156,0.0493,-0.0354,-0.0118,0.0002,-0.0022,-2.4922,1.3458,-3.0998
2024-10-11T12:56:54.040Z,-0.0024,-0.9784,0.2256,-0.0676,0.0345,-0.0289,-0.0137,0.0025,-0.0035,-2.4925,1.3461,-3.0998
2024-10-11T12:56:54.050Z,-0.0032,-0.9821,0.2233,-0.0676,0.0345,-0.0289,-0.0135,0.0000,-0.0011,-2.4925,1.3461,-3.0998
2024-10-11T12:56:54.060Z,-0.0065,-0.9812,0.2225,-0.0676,0.0345,-0.0289,-0.0125,0.0045,-0.0009,-2.4925,1.3461,-3.0998
2024-10-11T12:56:54.069Z,-0.0082,-0.9818,0.2219,-0.0277,0.0614,-0.0020,-0.0124,0.0021,0.0007,-2.4928,1.3465,-3.0996
2024-10-11T12:56:54.079Z,-0.0087,-0.9802,0.2198,-0.0277,0.0614,-0.0020,-0.0116,0.0045,0.0035,-2.4928,1.3465,-3.0996
2024-10-11T12:56:54.093Z,-0.0121,-0.9809,0.2159,0.0270,0.0577,0.0588,-0.0141,0.0071,-0.0006,-2.4931,1.3468,-3.0995
2024-10-11T12:56:54.100Z,-0.0121,-0.9791,0.2145,0.0270,0.0577,0.0588,-0.0118,0.0064,-0.0016,-2.4931,1.3468,-3.0995
2024-10-11T12:56:54.109Z,-0.0146,-0.9768,0.2140,0.0270,0.0577,0.0588,-0.0117,0.0045,-0.0008,-2.4931,1.3468,-3.0995
2024-10-11T12:56:54.118Z,-0.0146,-0.9768,0.2140,0.0270,0.0577,0.0588,-0.0110,0.0035,-0.0031,-2.4931,1.3468,-3.0995
2024-10-11T12:56:54.129Z,-0.0184,-0.9736,0.2130,0.0690,0.0008,0.0923,-0.0122,0.0016,-0.0014,-2.4930,1.3471,-3.0997
2024-10-11T12:56:54.140Z,-0.0184,-0.9736,0.2130,0.0690,0.0008,0.0923,-0.0110,0.0045,-0.0033,-2.4930,1.3471,-3.0997
2024-10-11T12:56:54.148Z,-0.0173,-0.9715,0.2123,0.0690,0.0008,0.0923,-0.0086,0.0051,-0.0050,-2.4930,1.3471,-3.0997
2024-10-11T12:56:54.160Z,-0.0159,-0.9714,0.2127,0.0565,-0.0449,0.0684,-0.0084,0.0040,-0.0043,-2.4925,1.3474,-3.1003
2024-10-11T12:56:54.168Z,-0.0159,-0.9714,0.2127,0.0565,-0.0449,0.0684,-0.0077,0.0038,-0.0074,-2.4925,1.3474,-3.1003
2024-10-11T12:56:54.179Z,-0.0169,-0.9707,0.2158,0.0565,-0.0449,0.0684,-0.0081,0.0069,-0.0075,-2.4925,1.3474,-3.1003
2024-10-11T12:56:54.191Z,-0.0159,-0.9694,0.2171,0.0784,-0.0439,0.0517,-0.0084,0.0060,-0.0062,-2.4917,1.3477,-3.1012
2024-10-11T12:56:54.198Z,-0.0159,-0.9694,0.2171,0.0784,-0.0439,0.0517,-0.0082,0.0053,-0.0069,-2.4917,1.3477,-3.1012
2024-10-11T12:56:54.210Z,-0.0121,-0.9702,0.2146,0.0784,-0.0439,0.0517,-0.0076,0.0087,-0.0087,-2.4917,1.3477,-3.1012
2024-10-11T12:56:54.219Z,-0.0132,-0.9705,0.2148,0.0332,-0.0494,0.0613,-0.0077,0.0094,-0.0074,-2.4910,1.3479,-3.1019
2024-10-11T12:56:54.228Z,-0.0132,-0.9705,0.2148,0.0332,-0.0494,0.0613,-0.0068,0.0080,-0.0089,-2.4910,1.3479,-3.1019
2024-10-11T12:56:54.243Z,-0.0105,-0.9756,0.2098,0.0177,0.0029,0.1060,-0.0039,0.0100,-0.0059,-2.4905,1.3482,-3.1024
2024-10-11T12:56:54.249Z,-0.0110,-0.9765,0.2078,0.0177,0.0029,0.1060,-0.0012,0.0072,-0.0075,-2.4905,1.3482,-3.1024
2024-10-11T12:56:54.260Z,-0.0100,-0.9754,0.2045,0.0177,0.0029,0.1060,-0.0008,0.0097,-0.0083,-2.4905,1.3482,-3.1024
2024-10-11T12:56:54.269Z,-0.0109,-0.9753,0.2046,0.0177,0.0029,0.1060,0.0010,0.0086,-0.0060,-2.4905,1.3482,-3.1024
2024-10-11T12:56:54.279Z,-0.0092,-0.9745,0.2042,0.0230,-0.0006,0.1570,-0.0004,0.0070,-0.0071,-2.4903,1.3482,-3.1026
2024-10-11T12:56:54.290Z,-0.0087,-0.9728,0.2034,0.0230,-0.0006,0.1570,0.0022,0.0107,-0.0075,-2.4903,1.3482,-3.1026
2024-10-11T12:56:54.299Z,-0.0060,-0.9729,0.2065,0.0230,-0.0006,0.1570,0.0055,0.0106,-0.0037,-2.4903,1.3482,-3.1026
2024-10-11T12:56:54.309Z,-0.0057,-0.9701,0.2095,-0.0242,-0.0239,0.1387,0.0080,0.0123,-0.0041,-2.4896,1.3481,-3.1032
2024-10-11T12:56:54.319Z,-0.0086,-0.9716,0.2099,-0.0242,-0.0239,0.1387,0.0028,0.0159,-0.0074,-2.4896,1.3481,-3.1032
2024-10-11T12:56:54.330Z,-0.0083,-0.9686,0.2130,-0.0013,-0.0657,0.0762,0.0074,0.0149,-0.0027,-2.4893,1.3480,-3.1034
2024-10-11T12:56:54.340Z,-0.0110,-0.9710,0.2147,-0.0013,-0.0657,0.0762,0.0078,0.0183,-0.0019,-2.4893,1.3480,-3.1034
2024-10-11T12:56:54.350Z,-0.0137,-0.9706,0.2186,-0.0013,-0.0657,0.0762,0.0081,0.0159,-0.0024,-2.4893,1.3480,-3.1034
2024-10-11T12:56:54.360Z,-0.0161,-0.9714,0.2201,-0.0013,-0.0657,0.0762,0.0056,0.0184,-0.0009,-2.4893,1.3480,-3.1034
2024-10-11T12:56:54.369Z,-0.0194,-0.9723,0.2237,0.0753,-0.0383,0.0082,0.0039,0.0170,-0.0021,-2.4891,1.3479,-3.1033
2024-10-11T12:56:54.379Z,-0.0179,-0.9722,0.2248,0.0753,-0.0383,0.0082,0.0018,0.0183,-0.0047,-2.4891,1.3479,-3.1033
2024-10-11T12:56:54.389Z,-0.0205,-0.9733,0.2250,0.0753,-0.0383,0.0082,0.0018,0.0209,-0.0038,-2.4891,1.3479,-3.1033
2024-10-11T12:56:54.399Z,-0.0231,-0.9743,0.2253,0.1183,-0.0189,-0.0399,-0.0013,0.0221,-0.0050,-2.4885,1.3479,-3.1034
2024-10-11T12:56:54.409Z,-0.0220,-0.9763,0.2245,0.1183,-0.0189,-0.0399,-0.0020,0.0222,-0.0070,-2.4885,1.3479,-3.1034
2024-10-11T12:56:54.419Z,-0.0206,-0.9776,0.2226,0.1183,-0.0189,-0.0399,-0.0026,0.0234,-0.0061,-2.4885,1.3479,-3.1034
2024-10-11T12:56:54.429Z,-0.0171,-0.9788,0.2258,0.1196,0.0231,-0.0170,-0.0020,0.0297,-0.0054,-2.4878,1.3479,-3.1037
2024-10-11T12:56:54.439Z,-0.0164,-0.9807,0.2280,0.1196,0.0231,-0.0170,-0.0058,0.0319,-0.0051,-2.4878,1.3479,-3.1037
2024-10-11T12:56:54.450Z,-0.0164,-0.9812,0.2253,0.0781,0.0583,-0.0442,-0.0037,0.0338,-0.0060,-2.4871,1.3480,-3.1036
2024-10-11T12:56:54.459Z,-0.0138,-0.9819,0.2232,0.0781,0.0583,-0.0442,-0.0034,0.0338,-0.0055,-2.4871,1.3480,-3.1036
2024-10-11T12:56:54.469Z,-0.0168,-0.9806,0.2217,0.0781,0.0583,-0.0442,-0.0049,0.0388,-0.0062,-2.4871,1.3480,-3.1036
2024-10-11T12:56:54.478Z,-0.0159,-0.9796,0.2241,0.0781,0.0583,-0.0442,-0.0052,0.0387,-0.0077,-2.4871,1.3480,-3.1036
2024-10-11T12:56:54.489Z,-0.0112,-0.9784,0.2208,0.0726,0.0416,-0.0334,-0.0069,0.0390,-0.0077,-2.4866,1.3481,-3.1032
2024-10-11T12:56:54.499Z,-0.0113,-0.9780,0.2200,0.0726,0.0416,-0.0334,-0.0076,0.0404,-0.0041,-2.4866,1.3481,-3.1032
2024-10-11T12:56:54.509Z,-0.0085,-0.9763,0.2176,0.0726,0.0416,-0.0334,-0.0054,0.0401,-0.0057,-2.4866,1.3481,-3.1032
2024-10-11T12:56:54.519Z,-0.0068,-0.9756,0.2161,-0.0008,0.0096,0.0291,-0.0050,0.0429,-0.0076,-2.4862,1.3483,-3.1026
2024-10-11T12:56:54.528Z,-0.0078,-0.9730,0.2154,-0.0008,0.0096,0.0291,-0.0044,0.0451,-0.0057,-2.4862,1.3483,-3.1026
2024-10-11T12:56:54.540Z,-0.0054,-0.9740,0.2152,-0.0329,-0.0132,0.0511,-0.0074,0.0443,-0.0057,-2.4858,1.3484,-3.1019
2024-10-11T12:56:54.549Z,-0.0054,-0.9736,0.2149,-0.0329,-0.0132,0.0511,-0.0051,0.0440,-0.0027,-2.4858,1.3484,-3.1019
2024-10-11T12:56:54.560Z,-0.0052,-0.9722,0.2157,-0.0329,-0.0132,0.0511,-0.0016,0.0454,-0.0058,-2.4858,1.3484,-3.1019
2024-10-11T12:56:54.570Z,-0.0084,-0.9719,0.2160,-0.0052,-0.0345,0.0421,-0.0041,0.0453,-0.0047,-2.4854,1.3485,-3.1012
2024-10-11T12:56:54.579Z,-0.0061,-0.9741,0.2165,-0.0052,-0.0345,0.0421,-0.0016,0.0451,-0.0048,-2.4854,1.3485,-3.1012
2024-10-11T12:56:54.589Z,-0.0082,-0.9746,0.2141,-0.0052,-0.0345,0.0421,-0.0008,0.0432,-0.0043,-2.4854,1.3485,-3.1012
2024-10-11T12:56:54.600Z,-0.0079,-0.9749,0.2162,-0.0111,-0.0049,0.0395,-0.0009,0.0435,-0.0054,-2.4849,1.3485,-3.1006
2024-10-11T12:56:54.609Z,-0.0096,-0.9772,0.2187,-0.0111,-0.0049,0.0395,0.0014,0.0409,-0.0050,-2.4849,1.3485,-3.1006
2024-10-11T12:56:54.619Z,-0.0107,-0.9793,0.2201,-0.0111,-0.0049,0.0395,0.0005,0.0418,-0.0064,-2.4849,1.3485,-3.1006
2024-10-11T12:56:54.629Z,-0.0100,-0.9781,0.2243,-0.0111,-0.0049,0.0395,0.0017,0.0380,-0.0059,-2.4849,1.3485,-3.1006
2024-10-11T12:56:54.639Z,-0.0053,-0.9788,0.2258,0.0098,0.0265,-0.0409,0.0010,0.0370,-0.0088,-2.4839,1.3486,-3.1006
2024-10-11T12:56:54.649Z,-0.0042,-0.9776,0.2233,0.0098,0.0265,-0.0409,-0.0007,0.0359,-0.0080,-2.4839,1.3486,-3.1006
2024-10-11T12:56:54.659Z,-0.0049,-0.9796,0.2220,0.0098,0.0265,-0.0409,-0.0022,0.0331,-0.0094,-2.4839,1.3486,-3.1006
2024-10-11T12:56:54.669Z,-0.0034,-0.9798,0.2248,-0.0402,0.0413,-0.0189,-0.0001,0.0320,-0.0097,-2.4829,1.3487,-3.1009
2024-10-11T12:56:54.678Z,-0.0039,-0.9785,0.2240,-0.0402,0.0413,-0.0189,-0.0023,0.0292,-0.0096,-2.4829,1.3487,-3.1009
2024-10-11T12:56:54.690Z,-0.0043,-0.9783,0.2224,-0.0453,0.0275,-0.0232,-0.0021,0.0266,-0.0076,-2.4819,1.3488,-3.1012
2024-10-11T12:56:54.699Z,-0.0035,-0.9789,0.2194,-0.0453,0.0275,-0.0232,-0.0032,0.0255,-0.0112,-2.4819,1.3488,-3.1012
2024-10-11T12:56:54.708Z,-0.0027,-0.9767,0.2181,-0.0453,0.0275,-0.0232,-0.0029,0.0250,-0.0063,-2.4819,1.3488,-3.1012
2024-10-11T12:56:54.720Z,-0.0003,-0.9727,0.2149,-0.0835,-0.0271,0.0496,-0.0023,0.0280,-0.0084,-2.4809,1.3488,-3.1017
2024-10-11T12:56:54.728Z,0.0050,-0.9720,0.2177,-0.0835,-0.0271,0.0496,-0.0008,0.0240,-0.0041,-2.4809,1.3488,-3.1017
2024-10-11T12:56:54.738Z,0.0029,-0.9734,0.2176,-0.0835,-0.0271,0.0496,-0.0037,0.0243,-0.0044,-2.4809,1.3488,-3.1017
2024-10-11T12:56:54.749Z,0.0049,-0.9741,0.2164,-0.1342,-0.0135,0.0351,0.0000,0.0226,-0.0028,-2.4804,1.3488,-3.1017
2024-10-11T12:56:54.760Z,0.0033,-0.9758,0.2176,-0.1342,-0.0135,0.0351,-0.0030,0.0226,-0.0025,-2.4804,1.3488,-3.1017
2024-10-11T12:56:54.769Z,0.0033,-0.9753,0.2169,-0.1342,-0.0135,0.0351,-0.0009,0.0227,0.0003,-2.4804,1.3488,-3.1017
2024-10-11T12:56:54.778Z,0.0014,-0.9772,0.2177,-0.1342,-0.0135,0.0351,-0.0003,0.0193,0.0001,-2.4804,1.3488,-3.1017
2024-10-11T12:56:54.790Z,-0.0014,-0.9773,0.2185,-0.1001,0.0171,0.0223,-0.0008,0.0209,0.0015,-2.4802,1.3488,-3.1015
2024-10-11T12:56:54.799Z,-0.0017,-0.9747,0.2194,-0.1001,0.0171,0.0223,-0.0047,0.0185,-0.0002,-2.4802,1.3488,-3.1015
2024-10-11T12:56:54.810Z,-0.0017,-0.9747,0.2194,-0.0496,0.0077,-0.0065,-0.0021,0.0137,0.0007,-2.4796,1.3489,-3.1018
2024-10-11T12:56:54.819Z,-0.0024,-0.9774,0.2207,-0.0496,0.0077,-0.0065,-0.0033,0.0109,-0.0014,-2.4796,1.3489,-3.1018
2024-10-11T12:56:54.828Z,-0.0024,-0.9780,0.2182,-0.0496,0.0077,-0.0065,-0.0029,0.0074,0.0005,-2.4796,1.3489,-3.1018
2024-10-11T12:56:54.839Z,0.0005,-0.9774,0.2160,-0.0887,0.0189,0.0368,-0.0036,0.0083,-0.0007,-2.4788,1.3491,-3.1027
2024-10-11T12:56:54.849Z,0.0017,-0.9749,0.2167,-0.0887,0.0189,0.0368,-0.0020,0.0038,-0.0005,-2.4788,1.3491,-3.1027
2024-10-11T12:56:54.859Z,0.0011,-0.9765,0.2180,-0.0887,0.0189,0.0368,-0.0052,0.0034,0.0011,-2.4788,1.3491,-3.1027
2024-10-11T12:56:54.869Z,0.0021,-0.9755,0.2186,-0.1021,-0.0001,0.0103,-0.0021,0.0004,-0.0007,-2.4779,1.3492,-3.1038
2024-10-11T12:56:54.878Z,-0.0018,-0.9730,0.2206,-0.1021,-0.0001,0.0103,-0.0052,0.0001,0.0009,-2.4779,1.3492,-3.1038
2024-10-11T12:56:54.889Z,-0.0031,-0.9721,0.2202,-0.1021,-0.0001,0.0103,-0.0031,-0.0041,-0.0007,-2.4779,1.3492,-3.1038
2024-10-11T12:56:54.899Z,-0.0039,-0.9720,0.2177,-0.0413,-0.0346,0.0180,-0.0028,-0.0030,-0.0015,-2.4774,1.3493,-3.1046
2024-10-11T12:56:54.909Z,-0.0054,-0.9712,0.2178,-0.0413,-0.0346,0.0180,-0.0027,-0.0064,0.0003,-2.4774,1.3493,-3.1046
2024-10-11T12:56:54.918Z,-0.0028,-0.9697,0.2178,-0.0413,-0.0346,0.0180,-0.0033,-0.0078,-0.0027,-2.4774,1.3493,-3.1046
2024-10-11T12:56:54.929Z,-0.0011,-0.9718,0.2170,-0.0660,-0.0373,0.0237,-0.0026,-0.0079,-0.0001,-2.4765,1.3495,-3.1060
2024-10-11T12:56:54.939Z,0.0015,-0.9707,0.2170,-0.0660,-0.0373,0.0237,-0.0016,-0.0070,0.0010,-2.4765,1.3495,-3.1060
2024-10-11T12:56:54.949Z,0.0045,-0.9715,0.2156,-0.0660,-0.0373,0.0237,-0.0009,-0.0073,0.0021,-2.4765,1.3495,-3.1060
2024-10-11T12:56:54.959Z,0.0043,-0.9716,0.2141,-0.1172,-0.0394,0.0510,-0.0008,-0.0070,0.0030,-2.4760,1.3495,-3.1070
2024-10-11T12:56:54.968Z,0.0016,-0.9707,0.2147,-0.1172,-0.0394,0.0510,-0.0011,-0.0068,0.0028,-2.4760,1.3495,-3.1070
2024-10-11T12:56:54.979Z,0.0010,-0.9708,0.2146,-0.1172,-0.0394,0.0510,-0.0017,-0.0049,0.0068,-2.4760,1.3495,-3.1070
2024-10-11T12:56:54.989Z,-0.0004,-0.9741,0.2146,-0.0705,-0.0152,0.0460,0.0019,-0.0075,0.0056,-2.4764,1.3495,-3.1070
2024-10-11T12:56:54.999Z,-0.0057,-0.9739,0.2151,-0.0705,-0.0152,0.0460,-0.0014,-0.0016,0.0029,-2.4764,1.3495,-3.1070
2024-10-11T12:56:55.010Z,-0.0073,-0.9759,0.2151,-0.0705,-0.0152,0.0460,0.0000,-0.0060,0.0050,-2.4764,1.3495,-3.1070
2024-10-11T12:56:55.019Z,-0.0081,-0.9785,0.2143,0.0047,0.0287,0.0503,0.0024,-0.0047,0.0044,-2.4768,1.3495,-3.1070
2024-10-11T12:56:55.029Z,-0.0081,-0.9794,0.2134,0.0047,0.0287,0.0503,0.0034,-0.0067,0.0036,-2.4768,1.3495,-3.1070
2024-10-11T12:56:55.040Z,-0.0082,-0.9798,0.2142,0.0047,0.0287,0.0503,0.0006,-0.0030,0.0040,-2.4768,1.3495,-3.1070
2024-10-11T12:56:55.049Z,-0.0070,-0.9783,0.2159,-0.0058,0.0266,0.0349,0.0045,-0.0054,0.0043,-2.4771,1.3494,-3.1072
2024-10-11T12:56:55.059Z,-0.0079,-0.9796,0.2194,-0.0058,0.0266,0.0349,0.0031,-0.0042,0.0045,-2.4771,1.3494,-3.1072
2024-10-11T12:56:55.069Z,-0.0105,-0.9806,0.2184,-0.0058,0.0266,0.0349,0.0047,-0.0037,0.0041,-2.4771,1.3494,-3.1072
2024-10-11T12:56:55.079Z,-0.0128,-0.9779,0.2198,0.0516,0.0231,-0.0018,0.0026,-0.0019,0.0026,-2.4773,1.3493,-3.1073
2024-10-11T12:56:55.089Z,-0.0144,-0.9785,0.2218,0.0516,0.0231,-0.0018,0.0024,0.0005,0.0007,-2.4773,1.3493,-3.1073
2024-10-11T12:56:55.099Z,-0.0135,-0.9762,0.2202,0.0516,0.0231,-0.0018,0.0046,-0.0019,0.0005,-2.4773,1.3493,-3.1073
2024-10-11T12:56:55.111Z,-0.0112,-0.9745,0.2193,0.0370,-0.0101,0.0034,0.0031,-0.0013,0.0001,-2.4773,1.3492,-3.1076
2024-10-11T12:56:55.119Z,-0.0108,-0.9743,0.2203,0.0370,-0.0101,0.0034,0.0028,-0.0034,-0.0003,-2.4773,1.3492,-3.1076
2024-10-11T12:56:55.129Z,-0.0105,-0.9731,0.2187,0.0370,-0.0101,0.0034,0.0022,-0.0025,-0.0004,-2.4773,1.3492,-3.1076
2024-10-11T12:56:55.139Z,-0.0100,-0.9722,0.2168,0.0252,-0.0328,0.0288,0.0037,-0.0041,-0.0000,-2.4774,1.3492,-3.1078
2024-10-11T12:56:55.149Z,-0.0108,-0.9713,0.2136,0.0252,-0.0328,0.0288,0.0044,-0.0021,-0.0006,-2.4774,1.3492,-3.1078
2024-10-11T12:56:55.159Z,-0.0105,-0.9717,0.2105,0.0252,-0.0328,0.0288,0.0028,-0.0024,-0.0021,-2.4774,1.3492,-3.1078
2024-10-11T12:56:55.169Z,-0.0122,-0.9720,0.2092,0.0471,-0.0349,0.1043,0.0046,-0.0015,-0.0042,-2.4777,1.3490,-3.1078
2024-10-11T12:56:55.179Z,-0.0135,-0.9742,0.2085,0.0471,-0.0349,0.1043,0.0058,-0.0022,-0.0047,-2.4777,1.3490,-3.1078
2024-10-11T12:56:55.189Z,-0.0105,-0.9741,0.2066,0.0471,-0.0349,0.1043,0.0085,-0.0032,-0.0026,-2.4777,1.3490,-3.1078
2024-10-11T12:56:55.199Z,-0.0096,-0.9738,0.2094,0.0218,-0.0168,0.1049,0.0071,-0.0025,-0.0040,-2.4775,1.3488,-3.1083
2024-10-11T12:56:55.209Z,-0.0074,-0.9722,0.2093,0.0218,-0.0168,0.1049,0.0107,-0.0010,-0.0019,-2.4775,1.3488,-3.1083
2024-10-11T12:56:55.218Z,-0.0059,-0.9718,0.2074,0.0218,-0.0168,0.1049,0.0105,-0.0012,-0.0025,-2.4775,1.3488,-3.1083
2024-10-11T12:56:55.229Z,-0.0063,-0.9699,0.2090,-0.0096,-0.0541,0.1112,0.0131,-0.0002,-0.0005,-2.4773,1.3485,-3.1088
2024-10-11T12:56:55.239Z,-0.0036,-0.9707,0.2134,-0.0096,-0.0541,0.1112,0.0106,-0.0004,-0.0015,-2.4773,1.3485,-3.1088
2024-10-11T12:56:55.249Z,-0.0027,-0.9714,0.2153,-0.0096,-0.0541,0.1112,0.0120,0.0036,-0.0007,-2.4773,1.3485,-3.1088
2024-10-11T12:56:55.261Z,-0.0007,-0.9709,0.2166,-0.0645,-0.0433,0.0397,0.0119,0.0016,-0.0006,-2.4773,1.3482,-3.1089
2024-10-11T12:56:55.269Z,0.0030,-0.9714,0.2167,-0.0645,-0.0433,0.0397,0.0119,-0.0010,0.0025,-2.4773,1.3482,-3.1089
2024-10-11T12:56:55.279Z,-0.0042,-0.9746,0.2174,-0.0645,-0.0433,0.0397,0.0144,-0.0025,0.0005,-2.4773,1.3482,-3.1089
2024-10-11T12:56:55.289Z,-0.0018,-0.9722,0.2172,-0.0530,-0.0297,0.0373,0.0147,-0.0054,0.0027,-2.4776,1.3478,-3.1089
2024-10-11T12:56:55.299Z,-0.0037,-0.9724,0.2180,-0.0530,-0.0297,0.0373,0.0145,-0.0036,0.0006,-2.4776,1.3478,-3.1089
2024-10-11T12:56:55.309Z,-0.0079,-0.9729,0.2189,-0.0530,-0.0297,0.0373,0.0174,-0.0072,0.0009,-2.4776,1.3478,-3.1089
2024-10-11T12:56:55.318Z,-0.0052,-0.9734,0.2211,-0.0194,-0.0173,0.0030,0.0162,-0.0094,0.0026,-2.4778,1.3474,-3.1092
2024-10-11T12:56:55.329Z,-0.0075,-0.9720,0.2229,-0.0194,-0.0173,0.0030,0.0121,-0.0087,0.0014,-2.4778,1.3474,-3.1092
2024-10-11T12:56:55.339Z,-0.0070,-0.9716,0.2223,-0.0194,-0.0173,0.0030,0.0136,-0.0083,0.0011,-2.4778,1.3474,-3.1092
2024-10-11T12:56:55.349Z,-0.0112,-0.9751,0.2215,0.0402,0.0006,0.0027,0.0132,-0.0097,0.0000,-2.4779,1.3470,-3.1096
2024-10-11T12:56:55.359Z,-0.0112,-0.9756,0.2214,0.0402,0.0006,0.0027,0.0124,-0.0062,0.0020,-2.4779,1.3470,-3.1096
2024-10-11T12:56:55.368Z,-0.0119,-0.9764,0.2216,0.0402,0.0006,0.0027,0.0116,-0.0088,0.0023,-2.4779,1.3470,-3.1096
2024-10-11T12:56:55.379Z,-0.0134,-0.9782,0.2228,0.0624,0.0311,-0.0070,0.0110,-0.0049,-0.0014,-2.4779,1.3467,-3.1100
2024-10-11T12:56:55.389Z,-0.0121,-0.9778,0.2238,0.0624,0.0311,-0.0070,0.0088,-0.0059,-0.0001,-2.4779,1.3467,-3.1100
2024-10-11T12:56:55.399Z,-0.0130,-0.9800,0.2220,0.0624,0.0311,-0.0070,0.0116,-0.0058,-0.0001,-2.4779,1.3467,-3.1100
2024-10-11T12:56:55.409Z,-0.0127,-0.9799,0.2237,0.0560,0.0493,-0.0126,0.0087,-0.0063,-0.0013,-2.4781,1.3464,-3.1102
2024-10-11T12:56:55.419Z,-0.0129,-0.9825,0.2253,0.0560,0.0493,-0.0126,0.0083,-0.0039,-0.0016,-2.4781,1.3464,-3.1102
2024-10-11T12:56:55.429Z,-0.0146,-0.9841,0.2237,0.0560,0.0493,-0.0126,0.0084,-0.0043,-0.0035,-2.4781,1.3464,-3.1102
2024-10-11T12:56:55.439Z,-0.0130,-0.9829,0.2236,0.0591,0.0786,-0.0091,0.0091,-0.0025,-0.0002,-2.4782,1.3461,-3.1105
2024-10-11T12:56:55.449Z,-0.0128,-0.9835,0.2229,0.0591,0.0786,-0.0091,0.0089,-0.0005,-0.0013,-2.4782,1.3461,-3.1105
2024-10-11T12:56:55.459Z,-0.0138,-0.9828,0.2215,0.0591,0.0786,-0.0091,0.0096,0.0027,-0.0010,-2.4782,1.3461,-3.1105
2024-10-11T12:56:55.469Z,-0.0102,-0.9810,0.2234,0.0320,0.0607,-0.0038,0.0118,0.0026,-0.0017,-2.4783,1.3458,-3.1106
2024-10-11T12:56:55.478Z,-0.0099,-0.9803,0.2254,0.0320,0.0607,-0.0038,0.0065,0.0037,-0.0003,-2.4783,1.3458,-3.1106
2024-10-11T12:56:55.489Z,-0.0081,-0.9796,0.2244,0.0320,0.0607,-0.0038,0.0073,0.0041,0.0001,-2.4783,1.3458,-3.1106
2024-10-11T12:56:55.499Z,-0.0101,-0.9781,0.2281,0.0304,0.0327,-0.0486,0.0070,0.0024,0.0031,-2.4789,1.3456,-3.1101
2024-10-11T12:56:55.509Z,-0.0110,-0.9782,0.2267,0.0304,0.0327,-0.0486,0.0065,0.0035,-0.0000,-2.4789,1.3456,-3.1101
2024-10-11T12:56:55.518Z,-0.0103,-0.9770,0.2276,0.0304,0.0327,-0.0486,0.0025,0.0044,-0.0003,-2.4789,1.3456,-3.1101
2024-10-11T12:56:55.528Z,-0.0082,-0.9761,0.2271,0.0091,0.0131,-0.0382,0.0030,0.0061,0.0019,-2.4802,1.3456,-3.1089
2024-10-11T12:56:55.538Z,-0.0076,-0.9763,0.2281,0.0091,0.0131,-0.0382,0.0030,0.0050,0.0022,-2.4802,1.3456,-3.1089
2024-10-11T12:56:55.548Z,-0.0079,-0.9747,0.2299,0.0091,0.0131,-0.0382,0.0008,0.0050,0.0024,-2.4802,1.3456,-3.1089
2024-10-11T12:56:55.559Z,-0.0100,-0.9745,0.2267,0.0251,-0.0024,-0.0340,-0.0006,0.0032,0.0026,-2.4809,1.3456,-3.1084
2024-10-11T12:56:55.569Z,-0.0093,-0.9722,0.2268,0.0251,-0.0024,-0.0340,0.0015,0.0021,0.0018,-2.4809,1.3456,-3.1084
2024-10-11T12:56:55.578Z,-0.0094,-0.9722,0.2257,0.0251,-0.0024,-0.0340,-0.0025,0.0016,0.0014,-2.4809,1.3456,-3.1084
2024-10-11T12:56:55.589Z,-0.0108,-0.9732,0.2265,0.0332,-0.0154,-0.0326,-0.0022,0.0023,0.0008,-2.4813,1.3456,-3.1082
2024-10-11T12:56:55.599Z,-0.0088,-0.9723,0.2252,0.0332,-0.0154,-0.0326,-0.0014,-0.0005,0.0031,-2.4813,1.3456,-3.1082
2024-10-11T12:56:55.609Z,-0.0050,-0.9750,0.2219,0.0332,-0.0154,-0.0326,-0.0037,0.0001,0.0011,-2.4813,1.3456,-3.1082
2024-10-11T12:56:55.619Z,-0.0050,-0.9758,0.2198,-0.0250,0.0099,0.0329,-0.0047,0.0006,0.0018,-2.4818,1.3456,-3.1079
2024-10-11T12:56:55.629Z,-0.0085,-0.9763,0.2190,-0.0250,0.0099,0.0329,-0.0023,0.0030,-0.0003,-2.4818,1.3456,-3.1079
2024-10-11T12:56:55.639Z,-0.0080,-0.9778,0.2188,-0.0250,0.0099,0.0329,-0.0012,0.0011,0.0018,-2.4818,1.3456,-3.1079
2024-10-11T12:56:55.649Z,-0.0074,-0.9759,0.2186,-0.0016,0.0116,0.0452,-0.0042,0.0033,0.0019,-2.4823,1.3455,-3.1076
2024-10-11T12:56:55.659Z,-0.0075,-0.9769,0.2225,-0.0016,0.0116,0.0452,-0.0045,0.0027,0.0031,-2.4823,1.3455,-3.1076
2024-10-11T12:56:55.668Z,-0.0072,-0.9776,0.2231,-0.0016,0.0116,0.0452,0.0002,0.0031,0.0055,-2.4823,1.3455,-3.1076
2024-10-11T12:56:55.680Z,-0.0088,-0.9809,0.2195,0.0106,0.0605,0.0366,0.0010,0.0038,0.0026,-2.4829,1.3455,-3.1072
2024-10-11T12:56:55.689Z,-0.0107,-0.9804,0.2205,0.0106,0.0605,0.0366,-0.0010,0.0059,0.0043,-2.4829,1.3455,-3.1072
2024-10-11T12:56:55.700Z,-0.0119,-0.9795,0.2213,0.0106,0.0605,0.0366,-0.0009,0.0058,0.0061,-2.4829,1.3455,-3.1072
2024-10-11T12:56:55.710Z,-0.0149,-0.9795,0.2234,0.0702,0.0463,-0.0021,0.0009,0.0069,0.0057,-2.4834,1.3455,-3.1067
2024-10-11T12:56:55.719Z,-0.0146,-0.9775,0.2247,0.0702,0.0463,-0.0021,-0.0007,0.0072,0.0047,-2.4834,1.3455,-3.1067
2024-10-11T12:56:55.728Z,-0.0140,-0.9742,0.2273,0.0702,0.0463,-0.0021,-0.0024,0.0081,0.0001,-2.4834,1.3455,-3.1067
2024-10-11T12:56:55.739Z,-0.0141,-0.9736,0.2262,0.0606,-0.0115,-0.0296,-0.0013,0.0121,0.0030,-2.4839,1.3456,-3.1062
2024-10-11T12:56:55.749Z,-0.0124,-0.9716,0.2256,0.0606,-0.0115,-0.0296,-0.0001,0.0108,0.0023,-2.4839,1.3456,-3.1062
2024-10-11T12:56:55.759Z,-0.0062,-0.9718,0.2239,0.0606,-0.0115,-0.0296,-0.0050,0.0117,0.0032,-2.4839,1.3456,-3.1062
2024-10-11T12:56:55.769Z,-0.0064,-0.9706,0.2234,-0.0155,-0.0410,-0.0039,-0.0025,0.0117,0.0005,-2.4842,1.3457,-3.1058
2024-10-11T12:56:55.778Z,-0.0059,-0.9703,0.2257,-0.0155,-0.0410,-0.0039,-0.0050,0.0118,0.0036,-2.4842,1.3457,-3.1058
2024-10-11T12:56:55.789Z,-0.0056,-0.9711,0.2235,-0.0155,-0.0410,-0.0039,-0.0017,0.0120,0.0028,-2.4842,1.3457,-3.1058
2024-10-11T12:56:55.799Z,-0.0076,-0.9718,0.2229,-0.0057,-0.0295,0.0004,-0.0003,0.0129,0.0028,-2.4851,1.3458,-3.1049
2024-10-11T12:56:55.809Z,-0.0067,-0.9716,0.2217,-0.0057,-0.0295,0.0004,-0.0018,0.0135,0.0035,-2.4851,1.3458,-3.1049
2024-10-11T12:56:55.819Z,-0.0067,-0.9719,0.2201,-0.0057,-0.0295,0.0004,-0.0010,0.0141,0.0021,-2.4851,1.3458,-3.1049
2024-10-11T12:56:55.828Z,-0.0051,-0.9711,0.2198,-0.0322,-0.0363,0.0305,-0.0038,0.0119,0.0013,-2.4856,1.3458,-3.1042
2024-10-11T12:56:55.839Z,-0.0021,-0.9725,0.2227,-0.0322,-0.0363,0.0305,-0.0017,0.0095,0.0045,-2.4856,1.3458,-3.1042
2024-10-11T12:56:55.849Z,-0.0027,-0.9725,0.2213,-0.0322,-0.0363,0.0305,-0.0034,0.0102,0.0024,-2.4856,1.3458,-3.1042
2024-10-11T12:56:55.859Z,-0.0021,-0.9723,0.2202,-0.0624,-0.0251,0.0260,-0.0031,0.0121,0.0011,-2.4860,1.3459,-3.1038
2024-10-11T12:56:55.869Z,-0.0018,-0.9743,0.2185,-0.0624,-0.0251,0.0260,-0.0026,0.0095,0.0029,-2.4860,1.3459,-3.1038
2024-10-11T12:56:55.878Z,-0.0020,-0.9746,0.2184,-0.0624,-0.0251,0.0260,-0.0013,0.0104,0.0032,-2.4860,1.3459,-3.1038
2024-10-11T12:56:55.889Z,-0.0022,-0.9768,0.2180,-0.0625,0.0194,0.0467,-0.0014,0.0059,0.0051,-2.4864,1.3459,-3.1033
2024-10-11T12:56:55.899Z,-0.0020,-0.9777,0.2178,-0.0625,0.0194,0.0467,-0.0005,0.0052,0.0031,-2.4864,1.3459,-3.1033
2024-10-11T12:56:55.910Z,-0.0028,-0.9776,0.2186,-0.0625,0.0194,0.0467,0.0015,0.0020,0.0036,-2.4864,1.3459,-3.1033
2024-10-11T12:56:55.920Z,-0.0047,-0.9776,0.2187,-0.0377,0.0274,0.0402,0.0019,0.0032,0.0036,-2.4865,1.3459,-3.1034
2024-10-11T12:56:55.928Z,-0.0056,-0.9790,0.2173,-0.0377,0.0274,0.0402,0.0002,0.0022,0.0028,-2.4865,1.3459,-3.1034
2024-10-11T12:56:55.939Z,-0.0042,-0.9775,0.2168,-0.0377,0.0274,0.0402,0.0025,-0.0032,0.0021,-2.4865,1.3459,-3.1034
2024-10-11T12:56:55.949Z,-0.0039,-0.9759,0.2149,-0.0441,0.0102,0.0776,0.0018,-0.0021,0.0042,-2.4863,1.3459,-3.1040
2024-10-11T12:56:55.959Z,-0.0038,-0.9733,0.2178,-0.0441,0.0102,0.0776,0.0038,-0.0011,0.0022,-2.4863,1.3459,-3.1040
2024-10-11T12:56:55.969Z,-0.0077,-0.9731,0.2191,-0.0441,0.0102,0.0776,0.0061,-0.0028,0.0038,-2.4863,1.3459,-3.1040
2024-10-11T12:56:55.978Z,-0.0090,-0.9716,0.2209,0.0077,-0.0319,0.0183,0.0046,-0.0053,0.0012,-2.4860,1.3459,-3.1047
2024-10-11T12:56:55.989Z,-0.0086,-0.9700,0.2246,0.0077,-0.0319,0.0183,0.0063,-0.0050,0.0026,-2.4860,1.3459,-3.1047
2024-10-11T12:56:55.998Z,-0.0087,-0.9705,0.2264,0.0077,-0.0319,0.0183,0.0047,-0.0031,-0.0004,-2.4860,1.3459,-3.1047
2024-10-11T12:56:56.009Z,-0.0106,-0.9715,0.2286,0.0246,-0.0324,-0.0560,0.0044,-0.0048,0.0009,-2.4858,1.3459,-3.1052
2024-10-11T12:56:56.019Z,-0.0102,-0.9726,0.2297,0.0246,-0.0324,-0.0560,0.0043,-0.0038,0.0017,-2.4858,1.3459,-3.1052
2024-10-11T12:56:56.029Z,-0.0085,-0.9731,0.2320,0.0246,-0.0324,-0.0560,0.0028,-0.0041,-0.0005,-2.4858,1.3459,-3.1052
2024-10-11T12:56:56.039Z,-0.0085,-0.9761,0.2333,0.0049,0.0131,-0.1016,0.0027,-0.0069,-0.0007,-2.4858,1.3458,-3.1056
2024-10-11T12:56:56.049Z,-0.0072,-0.9760,0.2320,0.0049,0.0131,-0.1016,0.0034,-0.0046,-0.0019,-2.4858,1.3458,-3.1056
2024-10-11T12:56:56.059Z,-0.0075,-0.9774,0.2312,0.0049,0.0131,-0.1016,0.0028,-0.0061,-0.0002,-2.4858,1.3458,-3.1056
2024-10-11T12:56:56.069Z,-0.0072,-0.9775,0.2308,-0.0077,0.0264,-0.0760,0.0014,-0.0062,0.0013,-2.4860,1.3457,-3.1059
2024-10-11T12:56:56.079Z,-0.0113,-0.9788,0.2277,-0.0077,0.0264,-0.0760,0.0020,-0.0066,0.0010,-2.4860,1.3457,-3.1059
2024-10-11T12:56:56.090Z,-0.0108,-0.9787,0.2257,-0.0077,0.0264,-0.0760,0.0035,-0.0056,-0.0008,-2.4860,1.3457,-3.1059
2024-10-11T12:56:56.100Z,-0.0115,-0.9790,0.2255,0.0350,0.0422,-0.0230,0.0020,-0.0061,-0.0017,-2.4861,1.3456,-3.1062
2024-10-11T12:56:56.109Z,-0.0134,-0.9790,0.2247,0.0350,0.0422,-0.0230,0.0020,-0.0061,-0.0017,-2.4861,1.3456,-3.1062
2024-10-11T12:56:56.120Z,-0.0098,-0.9794,0.2233,0.0350,0.0422,-0.0230,0.0010,-0.0040,-0.0011,-2.4861,1.3456,-3.1062
2024-10-11T12:56:56.129Z,-0.0100,-0.9788,0.2228,0.0214,0.0396,0.0046,0.0010,-0.0040,-0.0011,-2.4859,1.3455,-3.1068
2024-10-11T12:56:56.138Z,-0.0087,-0.9801,0.2220,0.0214,0.0396,0.0046,0.0009,-0.0048,-0.0046,-2.4859,1.3455,-3.1068
2024-10-11T12:56:56.150Z,-0.0069,-0.9785,0.2232,0.0214,0.0396,0.0046,0.0015,-0.0046,-0.0026,-2.4859,1.3455,-3.1068
2024-10-11T12:56:56.160Z,-0.0068,-0.9785,0.2247,-0.0088,0.0373,-0.0132,0.0015,-0.0046,-0.0026,-2.4857,1.3454,-3.1073
2024-10-11T12:56:56.170Z,-0.0067,-0.9767,0.2249,-0.0088,0.0373,-0.0132,0.0006,-0.0047,-0.0013,-2.4857,1.3454,-3.1073
2024-10-11T12:56:56.178Z,-0.0088,-0.9780,0.2225,-0.0088,0.0373,-0.0132,0.0006,-0.0047,-0.0013,-2.4857,1.3454,-3.1073
2024-10-11T12:56:56.190Z,-0.0075,-0.9777,0.2232,-0.0011,0.0292,0.0022,0.0035,-0.0004,-0.0014,-2.4859,1.3453,-3.1074
2024-10-11T12:56:56.199Z,-0.0079,-0.9776,0.2223,-0.0011,0.0292,0.0022,0.0008,-0.0015,-0.0003,-2.4859,1.3453,-3.1074
2024-10-11T12:56:56.209Z,-0.0078,-0.9769,0.2238,-0.0011,0.0292,0.0022,0.0008,-0.0015,-0.0003,-2.4859,1.3453,-3.1074
2024-10-11T12:56:56.220Z,-0.0102,-0.9742,0.2252,0.0244,-0.0050,-0.0174,0.0002,-0.0003,0.0020,-2.4863,1.3453,-3.1073
2024-10-11T12:56:56.228Z,-0.0126,-0.9743,0.2259,0.0244,-0.0050,-0.0174,0.0002,-0.0003,0.0020,-2.4863,1.3453,-3.1073
2024-10-11T12:56:56.240Z,-0.0132,-0.9747,0.2245,0.0244,-0.0050,-0.0174,0.0006,0.0055,0.0026,-2.4863,1.3453,-3.1073
2024-10-11T12:56:56.249Z,-0.0148,-0.9735,0.2263,0.0694,-0.0113,-0.0272,0.0004,0.0051,0.0033,-2.4865,1.3453,-3.1072
2024-10-11T12:56:56.260Z,-0.0141,-0.9759,0.2272,0.0694,-0.0113,-0.0272,0.0004,0.0051,0.0033,-2.4865,1.3453,-3.1072
2024-10-11T12:56:56.269Z,-0.0155,-0.9790,0.2280,0.0694,-0.0113,-0.0272,-0.0012,0.0136,0.0018,-2.4865,1.3453,-3.1072
2024-10-11T12:56:56.278Z,-0.0169,-0.9807,0.2249,0.0894,0.0591,-0.0140,-0.0012,0.0136,0.0018,-2.4871,1.3453,-3.1066
2024-10-11T12:56:56.289Z,-0.0178,-0.9815,0.2245,0.0894,0.0591,-0.0140,-0.0016,0.0171,0.0018,-2.4871,1.3453,-3.1066
2024-10-11T12:56:56.300Z,-0.0170,-0.9824,0.2236,0.0894,0.0591,-0.0140,-0.0020,0.0195,0.0058,-2.4871,1.3453,-3.1066
2024-10-11T12:56:56.312Z,-0.0172,-0.9827,0.2217,0.0901,0.0785,0.0177,-0.0028,0.0195,0.0028,-2.4877,1.3453,-3.1058
2024-10-11T12:56:56.319Z,-0.0142,-0.9809,0.2237,0.0901,0.0785,0.0177,-0.0029,0.0189,0.0067,-2.4877,1.3453,-3.1058
2024-10-11T12:56:56.329Z,-0.0131,-0.9799,0.2240,0.0901,0.0785,0.0177,-0.0029,0.0189,0.0067,-2.4877,1.3453,-3.1058
2024-10-11T12:56:56.339Z,-0.0158,-0.9771,0.2251,0.0735,0.0239,-0.0171,-0.0069,0.0234,0.0078,-2.4889,1.3454,-3.1042
2024-10-11T12:56:56.350Z,-0.0172,-0.9746,0.2248,0.0735,0.0239,-0.0171,-0.0096,0.0265,0.0059,-2.4889,1.3454,-3.1042
2024-10-11T12:56:56.362Z,-0.0197,-0.9733,0.2243,0.0735,0.0239,-0.0171,-0.0079,0.0261,0.0045,-2.4889,1.3454,-3.1042
2024-10-11T12:56:56.369Z,-0.0224,-0.9704,0.2233,0.1338,-0.0423,-0.0013,-0.0112,0.0296,0.0037,-2.4902,1.3456,-3.1024
2024-10-11T12:56:56.380Z,-0.0232,-0.9701,0.2224,0.1338,-0.0423,-0.0013,-0.0106,0.0278,0.0026,-2.4902,1.3456,-3.1024
2024-10-11T12:56:56.389Z,-0.0226,-0.9689,0.2238,0.1338,-0.0423,-0.0013,-0.0113,0.0310,0.0034,-2.4902,1.3456,-3.1024
2024-10-11T12:56:56.399Z,-0.0194,-0.9671,0.2238,0.1013,-0.0754,-0.0093,-0.0133,0.0303,0.0023,-2.4909,1.3459,-3.1010
2024-10-11T12:56:56.412Z,-0.0185,-0.9661,0.2254,0.1013,-0.0754,-0.0093,-0.0130,0.0312,-0.0006,-2.4909,1.3459,-3.1010
2024-10-11T12:56:56.418Z,-0.0215,-0.9677,0.2248,0.1013,-0.0754,-0.0093,-0.0130,0.0312,-0.0006,-2.4909,1.3459,-3.1010
2024-10-11T12:56:56.429Z,-0.0224,-0.9667,0.2262,0.1281,-0.0805,-0.0370,-0.0149,0.0361,-0.0007,-2.4914,1.3463,-3.0998
2024-10-11T12:56:56.439Z,-0.0243,-0.9690,0.2272,0.1281,-0.0805,-0.0370,-0.0137,0.0374,-0.0008,-2.4914,1.3463,-3.0998
2024-10-11T12:56:56.450Z,-0.0229,-0.9706,0.2290,0.1281,-0.0805,-0.0370,-0.0157,0.0401,-0.0042,-2.4914,1.3463,-3.0998
2024-10-11T12:56:56.461Z,-0.0218,-0.9711,0.2262,0.1208,-0.0385,-0.0423,-0.0131,0.0414,-0.0055,-2.4914,1.3468,-3.0988
2024-10-11T12:56:56.469Z,-0.0201,-0.9727,0.2243,0.1208,-0.0385,-0.0423,-0.0154,0.0411,-0.0081,-2.4914,1.3468,-3.0988
2024-10-11T12:56:56.480Z,-0.0197,-0.9717,0.2255,0.1208,-0.0385,-0.0423,-0.0142,0.0445,-0.0072,-2.4914,1.3468,-3.0988
2024-10-11T12:56:56.489Z,-0.0198,-0.9714,0.2231,0.0994,-0.0367,-0.0150,-0.0115,0.0467,-0.0121,-2.4912,1.3472,-3.0980
2024-10-11T12:56:56.499Z,-0.0208,-0.9739,0.2208,0.0994,-0.0367,-0.0150,-0.0119,0.0468,-0.0089,-2.4912,1.3472,-3.0980
2024-10-11T12:56:56.509Z,-0.0165,-0.9751,0.2196,0.0994,-0.0367,-0.0150,-0.0113,0.0463,-0.0114,-2.4912,1.3472,-3.0980
2024-10-11T12:56:56.519Z,-0.0131,-0.9776,0.2168,0.0304,0.0238,0.0444,-0.0098,0.0499,-0.0132,-2.4913,1.3473,-3.0966
2024-10-11T12:56:56.530Z,-0.0087,-0.9761,0.2164,0.0304,0.0238,0.0444,-0.0084,0.0557,-0.0127,-2.4913,1.3473,-3.0966
2024-10-11T12:56:56.539Z,-0.0078,-0.9787,0.2152,0.0304,0.0238,0.0444,-0.0025,0.0544,-0.0117,-2.4913,1.3473,-3.0966
2024-10-11T12:56:56.549Z,-0.0061,-0.9789,0.2119,-0.0380,0.0362,0.0913,-0.0021,0.0530,-0.0121,-2.4901,1.3475,-3.0965
2024-10-11T12:56:56.562Z,-0.0072,-0.9776,0.2125,-0.0380,0.0362,0.0913,-0.0008,0.0523,-0.0127,-2.4901,1.3475,-3.0965
2024-10-11T12:56:56.569Z,-0.0083,-0.9760,0.2118,-0.0380,0.0362,0.0913,0.0015,0.0524,-0.0128,-2.4901,1.3475,-3.0965
2024-10-11T12:56:56.579Z,-0.0075,-0.9741,0.2122,-0.0241,-0.0103,0.0884,0.0032,0.0514,-0.0095,-2.4887,1.3475,-3.0966
2024-10-11T12:56:56.589Z,-0.0072,-0.9710,0.2138,-0.0241,-0.0103,0.0884,0.0031,0.0519,-0.0119,-2.4887,1.3475,-3.0966
2024-10-11T12:56:56.599Z,-0.0058,-0.9705,0.2190,-0.0241,-0.0103,0.0884,0.0050,0.0534,-0.0127,-2.4887,1.3475,-3.0966
2024-10-11T12:56:56.610Z,-0.0083,-0.9704,0.2227,-0.0156,-0.0470,-0.0142,0.0046,0.0519,-0.0114,-2.4872,1.3474,-3.0967
2024-10-11T12:56:56.619Z,-0.0122,-0.9687,0.2205,-0.0156,-0.0470,-0.0142,0.0047,0.0534,-0.0154,-2.4872,1.3474,-3.0967
2024-10-11T12:56:56.629Z,-0.0170,-0.9672,0.2218,-0.0156,-0.0470,-0.0142,0.0035,0.0498,-0.0172,-2.4872,1.3474,-3.0967
2024-10-11T12:56:56.639Z,-0.0171,-0.9673,0.2233,0.0712,-0.0771,-0.0189,0.0040,0.0501,-0.0173,-2.4852,1.3473,-3.0973
2024-10-11T12:56:56.649Z,-0.0128,-0.9689,0.2266,0.0712,-0.0771,-0.0189,0.0019,0.0508,-0.0156,-2.4852,1.3473,-3.0973
2024-10-11T12:56:56.660Z,-0.0107,-0.9667,0.2278,0.0712,-0.0771,-0.0189,0.0007,0.0472,-0.0172,-2.4852,1.3473,-3.0973
2024-10-11T12:56:56.669Z,-0.0085,-0.9657,0.2284,-0.0106,-0.0925,-0.0681,0.0014,0.0463,-0.0173,-2.4829,1.3472,-3.0984
2024-10-11T12:56:56.679Z,-0.0083,-0.9666,0.2310,-0.0106,-0.0925,-0.0681,0.0002,0.0439,-0.0180,-2.4829,1.3472,-3.0984
2024-10-11T12:56:56.689Z,-0.0078,-0.9658,0.2297,-0.0106,-0.0925,-0.0681,0.0002,0.0435,-0.0155,-2.4829,1.3472,-3.0984
2024-10-11T12:56:56.700Z,-0.0096,-0.9670,0.2272,0.0027,-0.0795,-0.0553,0.0014,0.0428,-0.0137,-2.4807,1.3472,-3.0995
2024-10-11T12:56:56.709Z,-0.0104,-0.9686,0.2305,0.0027,-0.0795,-0.0553,0.0009,0.0445,-0.0165,-2.4807,1.3472,-3.0995
2024-10-11T12:56:56.719Z,-0.0104,-0.9844,0.2398,0.0027,-0.0795,-0.0553,0.0033,0.0446,-0.0157,-2.4807,1.3472,-3.0995
2024-10-11T12:56:56.730Z,-0.0079,-1.0060,0.2356,-0.0123,0.3034,-0.1367,0.0008,0.0480,-0.0134,-2.4787,1.3471,-3.1003
2024-10-11T12:56:56.739Z,-0.0054,-1.0150,0.2348,-0.0123,0.3034,-0.1367,0.0027,0.0473,-0.0137,-2.4787,1.3471,-3.1003
2024-10-11T12:56:56.749Z,-0.0069,-1.0078,0.2395,-0.0123,0.3034,-0.1367,-0.0025,0.0515,-0.0133,-2.4787,1.3471,-3.1003
2024-10-11T12:56:56.759Z,-0.0055,-1.0040,0.2407,-0.0349,0.2834,-0.1869,-0.0011,0.0521,-0.0121,-2.4772,1.3471,-3.1006
2024-10-11T12:56:56.769Z,-0.0038,-1.0015,0.2392,-0.0349,0.2834,-0.1869,-0.0030,0.0527,-0.0099,-2.4772,1.3471,-3.1006
2024-10-11T12:56:56.779Z,-0.0074,-0.9953,0.2284,-0.0349,0.2834,-0.1869,-0.0049,0.0526,-0.0104,-2.4772,1.3471,-3.1006
2024-10-11T12:56:56.790Z,-0.0013,-0.9891,0.2343,-0.0763,0.1373,-0.1247,-0.0072,0.0533,-0.0097,-2.4759,1.3471,-3.1006
2024-10-11T12:56:56.799Z,-0.0012,-0.9848,0.2449,-0.0763,0.1373,-0.1247,-0.0100,0.0515,-0.0124,-2.4759,1.3471,-3.1006
2024-10-11T12:56:56.809Z,-0.0032,-0.9816,0.2469,-0.0763,0.1373,-0.1247,-0.0140,0.0506,-0.0083,-2.4759,1.3471,-3.1006
2024-10-11T12:56:56.819Z,-0.0064,-0.9803,0.2402,-0.0265,0.0509,-0.1854,-0.0141,0.0484,-0.0104,-2.4745,1.3474,-3.1006
2024-10-11T12:56:56.829Z,-0.0134,-0.9782,0.2306,-0.0265,0.0509,-0.1854,-0.0128,0.0475,-0.0086,-2.4745,1.3474,-3.1006
2024-10-11T12:56:56.839Z,-0.0015,-0.9814,0.2263,-0.0265,0.0509,-0.1854,-0.0130,0.0420,-0.0088,-2.4745,1.3474,-3.1006
2024-10-11T12:56:56.849Z,0.0000,-0.9951,0.2232,-0.0893,0.1948,-0.0225,-0.0150,0.0415,-0.0078,-2.4734,1.3478,-3.1006
2024-10-11T12:56:56.859Z,0.0022,-0.9928,0.2214,-0.0893,0.1948,-0.0225,-0.0140,0.0414,-0.0070,-2.4734,1.3478,-3.1006
2024-10-11T12:56:56.869Z,-0.0023,-0.9709,0.2243,-0.0893,0.1948,-0.0225,-0.0183,0.0405,-0.0070,-2.4734,1.3478,-3.1006
2024-10-11T12:56:56.879Z,-0.0010,-0.9574,0.2381,-0.0790,-0.1764,-0.1727,-0.0209,0.0381,-0.0063,-2.4724,1.3483,-3.1006
2024-10-11T12:56:56.889Z,-0.0027,-0.9612,0.2301,-0.0790,-0.1764,-0.1727,-0.0244,0.0354,-0.0055,-2.4724,1.3483,-3.1006
2024-10-11T12:56:56.899Z,-0.0039,-0.9628,0.2278,-0.0790,-0.1764,-0.1727,-0.0253,0.0302,-0.0081,-2.4724,1.3483,-3.1006
2024-10-11T12:56:56.909Z,-0.0034,-0.9597,0.2284,-0.0557,-0.1548,-0.0839,-0.0252,0.0295,-0.0087,-2.4717,1.3490,-3.1005
2024-10-11T12:56:56.919Z,-0.0120,-0.9625,0.2231,-0.0557,-0.1548,-0.0839,-0.0291,0.0243,-0.0104,-2.4717,1.3490,-3.1005
2024-10-11T12:56:56.928Z,-0.0152,-0.9640,0.2243,-0.0557,-0.1548,-0.0839,-0.0293,0.0218,-0.0121,-2.4717,1.3490,-3.1005
2024-10-11T12:56:56.939Z,-0.0088,-0.9622,0.2256,-0.0006,-0.1318,-0.0642,-0.0263,0.0219,-0.0135,-2.4705,1.3498,-3.1013
2024-10-11T12:56:56.949Z,-0.0047,-0.9628,0.2216,-0.0006,-0.1318,-0.0642,-0.0274,0.0245,-0.0121,-2.4705,1.3498,-3.1013
2024-10-11T12:56:56.959Z,0.0054,-0.9666,0.2279,-0.0006,-0.1318,-0.0642,-0.0337,0.0234,-0.0066,-2.4705,1.3498,-3.1013
2024-10-11T12:56:56.969Z,0.0116,-0.9717,0.2421,-0.1986,-0.0408,-0.2336,-0.0357,0.0226,-0.0052,-2.4693,1.3506,-3.1020
2024-10-11T12:56:56.979Z,0.0068,-0.9807,0.2349,-0.1986,-0.0408,-0.2336,-0.0360,0.0221,-0.0049,-2.4693,1.3506,-3.1020
2024-10-11T12:56:56.989Z,0.0057,-0.9754,0.2365,-0.1986,-0.0408,-0.2336,-0.0365,0.0245,-0.0048,-2.4693,1.3506,-3.1020
2024-10-11T12:56:56.999Z,0.0089,-0.9637,0.2320,-0.1713,-0.1214,-0.1441,-0.0387,0.0210,-0.0046,-2.4686,1.3516,-3.1022
2024-10-11T12:56:57.009Z,0.0037,-0.9670,0.2238,-0.1713,-0.1214,-0.1441,-0.0357,0.0191,-0.0020,-2.4686,1.3516,-3.1022
2024-10-11T12:56:57.020Z,-0.0013,-0.9698,0.2106,-0.1713,-0.1214,-0.1441,-0.0356,0.0184,-0.0056,-2.4686,1.3516,-3.1022
2024-10-11T12:56:57.029Z,-0.0004,-0.9660,0.2158,-0.0797,-0.1013,0.0044,-0.0370,0.0159,-0.0047,-2.4682,1.3527,-3.1022
2024-10-11T12:56:57.039Z,-0.0102,-0.9675,0.2153,-0.0797,-0.1013,0.0044,-0.0332,0.0107,-0.0093,-2.4682,1.3527,-3.1022
2024-10-11T12:56:57.049Z,-0.0087,-0.9695,0.2138,-0.0797,-0.1013,0.0044,-0.0336,0.0128,-0.0085,-2.4682,1.3527,-3.1022
2024-10-11T12:56:57.059Z,-0.0036,-0.9688,0.2072,-0.0453,-0.0754,0.0803,-0.0304,0.0077,-0.0063,-2.4671,1.3536,-3.1032
2024-10-11T12:56:57.069Z,0.0026,-0.9693,0.2011,-0.0453,-0.0754,0.0803,-0.0269,0.0067,-0.0081,-2.4671,1.3536,-3.1032
2024-10-11T12:56:57.079Z,0.0024,-0.9734,0.1971,-0.0453,-0.0754,0.0803,-0.0245,0.0052,-0.0020,-2.4671,1.3536,-3.1032
2024-10-11T12:56:57.089Z,0.0094,-0.9763,0.2010,-0.1710,-0.0035,0.1338,-0.0239,0.0069,-0.0028,-2.4662,1.3543,-3.1041
2024-10-11T12:56:57.099Z,0.0135,-0.9790,0.2038,-0.1710,-0.0035,0.1338,-0.0211,0.0049,-0.0030,-2.4662,1.3543,-3.1041
2024-10-11T12:56:57.109Z,0.0095,-0.9905,0.2000,-0.1710,-0.0035,0.1338,-0.0207,0.0033,-0.0032,-2.4662,1.3543,-3.1041
2024-10-11T12:56:57.119Z,-0.0094,-0.9893,0.2115,0.0141,0.1223,0.0252,-0.0166,0.0030,-0.0042,-2.4660,1.3549,-3.1045
2024-10-11T12:56:57.130Z,-0.0066,-0.9833,0.2123,0.0141,0.1223,0.0252,-0.0169,-0.0021,-0.0011,-2.4660,1.3549,-3.1045
2024-10-11T12:56:57.139Z,0.0007,-0.9886,0.2099,0.0141,0.1223,0.0252,-0.0173,-0.0007,-0.0024,-2.4660,1.3549,-3.1045
2024-10-11T12:56:57.149Z,-0.0049,-0.9984,0.2201,-0.0288,0.2111,-0.0648,-0.0175,-0.0057,-0.0015,-2.4657,1.3555,-3.1051
2024-10-11T12:56:57.159Z,0.0029,-1.0013,0.2226,-0.0288,0.2111,-0.0648,-0.0165,-0.0037,-0.0006,-2.4657,1.3555,-3.1051
2024-10-11T12:56:57.169Z,0.0049,-0.9989,0.2193,-0.0288,0.2111,-0.0648,-0.0187,-0.0028,0.0003,-2.4657,1.3555,-3.1051
2024-10-11T12:56:57.178Z,0.0074,-0.9944,0.2236,-0.1477,0.1707,-0.1038,-0.0187,-0.0028,0.0003,-2.4657,1.3560,-3.1055
2024-10-11T12:56:57.189Z,0.0061,-0.9920,0.2260,-0.1477,0.1707,-0.1038,-0.0202,-0.0038,0.0006,-2.4657,1.3560,-3.1055
2024-10-11T12:56:57.199Z,0.0017,-0.9914,0.2281,-0.1477,0.1707,-0.1038,-0.0186,-0.0085,0.0009,-2.4657,1.3560,-3.1055
2024-10-11T12:56:57.209Z,-0.0063,-0.9895,0.2295,-0.0133,0.1214,-0.1673,-0.0232,-0.0081,0.0032,-2.4661,1.3566,-3.1055
2024-10-11T12:56:57.219Z,-0.0011,-0.9870,0.2262,-0.0133,0.1214,-0.1673,-0.0255,-0.0086,0.0006,-2.4661,1.3566,-3.1055
2024-10-11T12:56:57.229Z,-0.0035,-0.9915,0.2184,-0.0133,0.1214,-0.1673,-0.0294,-0.0109,0.0015,-2.4661,1.3566,-3.1055
2024-10-11T12:56:57.240Z,-0.0045,-0.9972,0.2186,-0.0303,0.1956,-0.0678,-0.0255,-0.0126,0.0002,-2.4664,1.3573,-3.1058
2024-10-11T12:56:57.249Z,-0.0061,-0.9942,0.2219,-0.0303,0.1956,-0.0678,-0.0291,-0.0175,-0.0016,-2.4664,1.3573,-3.1058
2024-10-11T12:56:57.258Z,-0.0027,-0.9951,0.2163,-0.0303,0.1956,-0.0678,-0.0295,-0.0194,0.0011,-2.4664,1.3573,-3.1058
2024-10-11T12:56:57.269Z,-0.0011,-0.9966,0.2191,-0.0624,0.1873,-0.0801,-0.0302,-0.0233,0.0030,-2.4665,1.3581,-3.1064
2024-10-11T12:56:57.278Z,0.0005,-0.9889,0.2123,-0.0624,0.1873,-0.0801,-0.0287,-0.0222,0.0035,-2.4665,1.3581,-3.1064
2024-10-11T12:56:57.289Z,0.0013,-0.9770,0.2043,-0.0624,0.1873,-0.0801,-0.0327,-0.0236,0.0012,-2.4665,1.3581,-3.1064
2024-10-11T12:56:57.299Z,-0.0036,-0.9681,0.2050,-0.0361,-0.0940,0.0500,-0.0339,-0.0254,0.0030,-2.4671,1.3590,-3.1068
2024-10-11T12:56:57.309Z,-0.0096,-0.9683,0.2024,-0.0361,-0.0940,0.0500,-0.0338,-0.0273,-0.0007,-2.4671,1.3590,-3.1068
2024-10-11T12:56:57.319Z,-0.0162,-0.9690,0.1986,-0.0361,-0.0940,0.0500,-0.0332,-0.0289,-0.0011,-2.4671,1.3590,-3.1068
2024-10-11T12:56:57.328Z,-0.0201,-0.9689,0.1967,0.1278,-0.0875,0.1220,-0.0320,-0.0303,-0.0032,-2.4674,1.3600,-3.1076
2024-10-11T12:56:57.339Z,-0.0166,-0.9699,0.1956,0.1278,-0.0875,0.1220,-0.0294,-0.0327,-0.0035,-2.4674,1.3600,-3.1076
2024-10-11T12:56:57.348Z,-0.0170,-0.9693,0.2036,0.1278,-0.0875,0.1220,-0.0310,-0.0319,-0.0067,-2.4674,1.3600,-3.1076
2024-10-11T12:56:57.359Z,-0.0157,-0.9755,0.2053,0.0877,-0.0250,0.0296,-0.0309,-0.0294,-0.0047,-2.4671,1.3609,-3.1091
2024-10-11T12:56:57.369Z,-0.0134,-0.9830,0.2039,0.0877,-0.0250,0.0296,-0.0282,-0.0276,-0.0064,-2.4671,1.3609,-3.1091
2024-10-11T12:56:57.379Z,-0.0092,-0.9825,0.2003,0.0877,-0.0250,0.0296,-0.0262,-0.0242,-0.0068,-2.4671,1.3609,-3.1091
2024-10-11T12:56:57.389Z,-0.0133,-0.9794,0.1937,0.0673,0.0114,0.1347,-0.0264,-0.0237,-0.0081,-2.4665,1.3617,-3.1107
2024-10-11T12:56:57.399Z,-0.0093,-0.9696,0.2038,0.0673,0.0114,0.1347,-0.0266,-0.0271,-0.0075,-2.4665,1.3617,-3.1107
2024-10-11T12:56:57.409Z,-0.0114,-0.9585,0.1955,0.0673,0.0114,0.1347,-0.0267,-0.0239,-0.0087,-2.4665,1.3617,-3.1107
2024-10-11T12:56:57.418Z,-0.0134,-0.9627,0.2019,0.0719,-0.1540,0.0466,-0.0252,-0.0261,-0.0087,-2.4657,1.3626,-3.1125
2024-10-11T12:56:57.430Z,-0.0074,-0.9614,0.1996,0.0719,-0.1540,0.0466,-0.0254,-0.0204,-0.0102,-2.4657,1.3626,-3.1125
2024-10-11T12:56:57.439Z,-0.0041,-0.9614,0.1920,0.0719,-0.1540,0.0466,-0.0241,-0.0189,-0.0081,-2.4657,1.3626,-3.1125
2024-10-11T12:56:57.449Z,-0.0073,-0.9559,0.1985,0.0166,-0.2221,0.0723,-0.0247,-0.0173,-0.0075,-2.4649,1.3633,-3.1141
2024-10-11T12:56:57.459Z,-0.0017,-0.9560,0.1927,0.0166,-0.2221,0.0723,-0.0225,-0.0157,-0.0051,-2.4649,1.3633,-3.1141
2024-10-11T12:56:57.469Z,-0.0089,-0.9523,0.1949,0.0166,-0.2221,0.0723,-0.0208,-0.0142,-0.0043,-2.4649,1.3633,-3.1141
2024-10-11T12:56:57.478Z,-0.0075,-0.9555,0.1946,0.0208,-0.2275,0.1041,-0.0206,-0.0089,-0.0056,-2.4642,1.3640,-3.1155
2024-10-11T12:56:57.489Z,-0.0083,-0.9667,0.1888,0.0208,-0.2275,0.1041,-0.0151,-0.0079,-0.0042,-2.4642,1.3640,-3.1155
2024-10-11T12:56:57.499Z,-0.0019,-0.9747,0.1902,0.0208,-0.2275,0.1041,-0.0102,-0.0061,-0.0033,-2.4642,1.3640,-3.1155
2024-10-11T12:56:57.509Z,-0.0012,-0.9742,0.1887,-0.0392,-0.0451,0.1580,-0.0129,-0.0035,0.0005,-2.4640,1.3645,-3.1162
2024-10-11T12:56:57.519Z,-0.0043,-0.9682,0.1847,-0.0392,-0.0451,0.1580,-0.0081,0.0002,0.0032,-2.4640,1.3645,-3.1162
2024-10-11T12:56:57.529Z,-0.0005,-0.9644,0.1946,-0.0392,-0.0451,0.1580,-0.0083,0.0076,0.0046,-2.4640,1.3645,-3.1162
2024-10-11T12:56:57.539Z,-0.0039,-0.9646,0.1934,-0.0131,-0.1400,0.1090,-0.0094,0.0085,0.0030,-2.4645,1.3648,-3.1159
2024-10-11T12:56:57.549Z,-0.0118,-0.9696,0.1918,-0.0131,-0.1400,0.1090,-0.0049,0.0113,0.0036,-2.4645,1.3648,-3.1159
2024-10-11T12:56:57.559Z,-0.0221,-0.9709,0.1942,-0.0131,-0.1400,0.1090,-0.0034,0.0180,0.0036,-2.4645,1.3648,-3.1159
2024-10-11T12:56:57.569Z,-0.0258,-0.9732,0.1988,0.2001,-0.0563,0.0539,-0.0020,0.0177,0.0010,-2.4651,1.3650,-3.1151
2024-10-11T12:56:57.579Z,-0.0192,-0.9809,0.2009,0.2001,-0.0563,0.0539,-0.0045,0.0213,0.0003,-2.4651,1.3650,-3.1151
2024-10-11T12:56:57.589Z,-0.0202,-0.9864,0.2008,0.2001,-0.0563,0.0539,-0.0011,0.0234,0.0022,-2.4651,1.3650,-3.1151
2024-10-11T12:56:57.599Z,-0.0158,-0.9798,0.2104,0.1005,0.0087,-0.0610,-0.0032,0.0305,0.0009,-2.4656,1.3651,-3.1142
2024-10-11T12:56:57.609Z,-0.0220,-0.9886,0.2148,0.1005,0.0087,-0.0610,-0.0047,0.0294,0.0031,-2.4656,1.3651,-3.1142
2024-10-11T12:56:57.618Z,-0.0131,-0.9894,0.2241,0.1005,0.0087,-0.0610,-0.0071,0.0328,0.0056,-2.4656,1.3651,-3.1142
2024-10-11T12:56:57.629Z,-0.0031,-0.9892,0.2309,-0.0267,0.1004,-0.2634,-0.0096,0.0356,0.0039,-2.4662,1.3652,-3.1130
2024-10-11T12:56:57.639Z,-0.0136,-0.9853,0.2268,-0.0267,0.1004,-0.2634,-0.0115,0.0374,0.0047,-2.4662,1.3652,-3.1130
2024-10-11T12:56:57.649Z,-0.0119,-0.9785,0.2297,-0.0267,0.1004,-0.2634,-0.0159,0.0373,0.0023,-2.4662,1.3652,-3.1130
2024-10-11T12:56:57.659Z,-0.0159,-0.9816,0.2288,0.0951,0.0256,-0.2466,-0.0130,0.0352,0.0035,-2.4673,1.3656,-3.1110
2024-10-11T12:56:57.668Z,-0.0161,-0.9827,0.2254,0.0951,0.0256,-0.2466,-0.0167,0.0350,0.0027,-2.4673,1.3656,-3.1110
2024-10-11T12:56:57.680Z,-0.0159,-0.9842,0.2223,0.0951,0.0256,-0.2466,-0.0184,0.0355,0.0013,-2.4673,1.3656,-3.1110
2024-10-11T12:56:57.689Z,-0.0166,-0.9845,0.2262,0.0992,0.0527,-0.2262,-0.0188,0.0346,0.0023,-2.4679,1.3661,-3.1096
2024-10-11T12:56:57.698Z,-0.0138,-0.9823,0.2302,0.0992,0.0527,-0.2262,-0.0190,0.0311,0.0034,-2.4679,1.3661,-3.1096
2024-10-11T12:56:57.709Z,-0.0005,-0.9752,0.2243,0.0992,0.0527,-0.2262,-0.0249,0.0317,-0.0000,-2.4679,1.3661,-3.1096
2024-10-11T12:56:57.719Z,-0.0026,-0.9686,0.2271,-0.0401,-0.1042,-0.2400,-0.0227,0.0296,0.0018,-2.4683,1.3666,-3.1085
2024-10-11T12:56:57.728Z,-0.0006,-0.9701,0.2208,-0.0401,-0.1042,-0.2400,-0.0219,0.0302,0.0022,-2.4683,1.3666,-3.1085
2024-10-11T12:56:57.739Z,-0.0027,-0.9777,0.2084,-0.0401,-0.1042,-0.2400,-0.0213,0.0260,0.0033,-2.4683,1.3666,-3.1085
2024-10-11T12:56:57.748Z,-0.0011,-0.9822,0.2109,-0.0573,0.0284,-0.0863,-0.0210,0.0260,0.0029,-2.4690,1.3672,-3.1072
2024-10-11T12:56:57.759Z,-0.0058,-0.9849,0.2018,-0.0573,0.0284,-0.0863,-0.0218,0.0267,0.0031,-2.4690,1.3672,-3.1072
2024-10-11T12:56:57.768Z,-0.0049,-0.9900,0.1982,-0.0573,0.0284,-0.0863,-0.0183,0.0266,0.0020,-2.4690,1.3672,-3.1072
2024-10-11T12:56:57.779Z,-0.0044,-0.9859,0.2099,-0.0267,0.0638,-0.0814,-0.0197,0.0230,0.0009,-2.4696,1.3677,-3.1061
2024-10-11T12:56:57.789Z,-0.0022,-0.9880,0.2031,-0.0267,0.0638,-0.0814,-0.0169,0.0218,0.0024,-2.4696,1.3677,-3.1061
2024-10-11T12:56:57.798Z,0.0001,-0.9873,0.1961,-0.0267,0.0638,-0.0814,-0.0150,0.0155,0.0018,-2.4696,1.3677,-3.1061
2024-10-11T12:56:57.809Z,-0.0068,-0.9832,0.1963,-0.0051,0.0356,0.0479,-0.0167,0.0159,0.0008,-2.4700,1.3681,-3.1053
2024-10-11T12:56:57.818Z,-0.0109,-0.9720,0.1965,-0.0051,0.0356,0.0479,-0.0159,0.0154,0.0007,-2.4700,1.3681,-3.1053
2024-10-11T12:56:57.829Z,-0.0015,-0.9663,0.2021,-0.0051,0.0356,0.0479,-0.0186,0.0168,-0.0004,-2.4700,1.3681,-3.1053
2024-10-11T12:56:57.839Z,-0.0034,-0.9672,0.2044,-0.0394,-0.1221,-0.0360,-0.0164,0.0157,0.0010,-2.4702,1.3686,-3.1049
2024-10-11T12:56:57.848Z,-0.0055,-0.9709,0.2076,-0.0394,-0.1221,-0.0360,-0.0147,0.0159,0.0018,-2.4702,1.3686,-3.1049
2024-10-11T12:56:57.859Z,-0.0044,-0.9786,0.2053,-0.0394,-0.1221,-0.0360,-0.0131,0.0171,0.0011,-2.4702,1.3686,-3.1049
2024-10-11T12:56:57.868Z,-0.0047,-0.9785,0.2096,-0.0268,-0.0121,-0.0912,-0.0157,0.0137,0.0001,-2.4706,1.3690,-3.1043
2024-10-11T12:56:57.880Z,-0.0026,-0.9768,0.2151,-0.0268,-0.0121,-0.0912,-0.0131,0.0151,0.0029,-2.4706,1.3690,-3.1043
2024-10-11T12:56:57.889Z,-0.0090,-0.9823,0.2048,-0.0268,-0.0121,-0.0912,-0.0119,0.0176,0.0008,-2.4706,1.3690,-3.1043
2024-10-11T12:56:57.898Z,-0.0074,-0.9826,0.1969,-0.0021,0.0280,0.0297,-0.0112,0.0173,0.0015,-2.4709,1.3694,-3.1037
2024-10-11T12:56:57.909Z,-0.0041,-0.9787,0.1923,-0.0021,0.0280,0.0297,-0.0094,0.0193,0.0012,-2.4709,1.3694,-3.1037
2024-10-11T12:56:57.918Z,-0.0014,-0.9789,0.1873,-0.0021,0.0280,0.0297,-0.0079,0.0178,0.0030,-2.4709,1.3694,-3.1037
2024-10-11T12:56:57.929Z,-0.0003,-0.9768,0.1789,-0.0722,-0.0299,0.2037,-0.0061,0.0227,0.0003,-2.4712,1.3696,-3.1032
2024-10-11T12:56:57.939Z,-0.0051,-0.9705,0.1892,-0.0722,-0.0299,0.2037,-0.0047,0.0217,-0.0000,-2.4712,1.3696,-3.1032
2024-10-11T12:56:57.948Z,-0.0043,-0.9680,0.1831,-0.0722,-0.0299,0.2037,-0.0013,0.0248,0.0008,-2.4712,1.3696,-3.1032
2024-10-11T12:56:57.959Z,-0.0021,-0.9730,0.1798,-0.0561,-0.0667,0.1947,-0.0002,0.0243,0.0027,-2.4713,1.3696,-3.1026
2024-10-11T12:56:57.968Z,-0.0028,-0.9752,0.1790,-0.0561,-0.0667,0.1947,0.0033,0.0259,0.0002,-2.4713,1.3696,-3.1026
2024-10-11T12:56:57.979Z,-0.0045,-0.9747,0.1754,-0.0561,-0.0667,0.1947,0.0047,0.0281,0.0034,-2.4713,1.3696,-3.1026
2024-10-11T12:56:57.989Z,-0.0090,-0.9772,0.1813,0.0104,-0.0259,0.1807,0.0080,0.0295,0.0010,-2.4716,1.3695,-3.1018
2024-10-11T12:56:57.998Z,-0.0087,-0.9807,0.1847,0.0104,-0.0259,0.1807,0.0099,0.0242,0.0019,-2.4716,1.3695,-3.1018
2024-10-11T12:56:58.009Z,-0.0102,-0.9861,0.1845,0.0104,-0.0259,0.1807,0.0151,0.0242,0.0017,-2.4716,1.3695,-3.1018
2024-10-11T12:56:58.018Z,-0.0152,-0.9941,0.1801,0.0702,0.1403,0.1950,0.0156,0.0254,0.0012,-2.4716,1.3693,-3.1013
2024-10-11T12:56:58.029Z,-0.0093,-0.9908,0.1886,0.0702,0.1403,0.1950,0.0174,0.0247,-0.0002,-2.4716,1.3693,-3.1013
2024-10-11T12:56:58.039Z,-0.0047,-0.9795,0.1944,0.0702,0.1403,0.1950,0.0153,0.0320,0.0038,-2.4716,1.3693,-3.1013
2024-10-11T12:56:58.048Z,-0.0035,-0.9706,0.2027,-0.0469,-0.0890,-0.0229,0.0143,0.0382,0.0049,-2.4718,1.3689,-3.1004
2024-10-11T12:56:58.058Z,-0.0021,-0.9660,0.2024,-0.0469,-0.0890,-0.0229,0.0104,0.0376,0.0027,-2.4718,1.3689,-3.1004
2024-10-11T12:56:58.069Z,-0.0081,-0.9655,0.2095,-0.0469,-0.0890,-0.0229,0.0086,0.0354,0.0022,-2.4718,1.3689,-3.1004
2024-10-11T12:56:58.079Z,-0.0132,-0.9694,0.2073,0.0454,-0.1005,-0.0658,0.0135,0.0291,-0.0014,-2.4724,1.3686,-3.0991
2024-10-11T12:56:58.089Z,-0.0168,-0.9735,0.2062,0.0454,-0.1005,-0.0658,0.0102,0.0266,-0.0006,-2.4724,1.3686,-3.0991
2024-10-11T12:56:58.099Z,-0.0181,-0.9724,0.2081,0.0454,-0.1005,-0.0658,0.0100,0.0240,-0.0035,-2.4724,1.3686,-3.0991
2024-10-11T12:56:58.109Z,-0.0159,-0.9787,0.2088,0.0715,-0.0086,-0.0785,0.0093,0.0235,-0.0040,-2.4722,1.3684,-3.0988
2024-10-11T12:56:58.120Z,-0.0177,-0.9811,0.2065,0.0715,-0.0086,-0.0785,0.0061,0.0238,-0.0046,-2.4722,1.3684,-3.0988
2024-10-11T12:56:58.129Z,-0.0117,-0.9777,0.2025,0.0715,-0.0086,-0.0785,0.0043,0.0254,-0.0052,-2.4722,1.3684,-3.0988
2024-10-11T12:56:58.139Z,-0.0084,-0.9783,0.2091,-0.0008,-0.0126,-0.0796,0.0067,0.0245,-0.0060,-2.4713,1.3682,-3.0992
2024-10-11T12:56:58.149Z,-0.0060,-0.9839,0.2056,-0.0008,-0.0126,-0.0796,0.0015,0.0236,-0.0065,-2.4713,1.3682,-3.0992
2024-10-11T12:56:58.159Z,-0.0041,-0.9831,0.2084,-0.0008,-0.0126,-0.0796,0.0023,0.0207,-0.0030,-2.4713,1.3682,-3.0992
2024-10-11T12:56:58.169Z,-0.0043,-0.9758,0.2072,-0.0412,-0.0371,-0.0598,0.0001,0.0223,-0.0052,-2.4708,1.3681,-3.0992
2024-10-11T12:56:58.179Z,-0.0085,-0.9813,0.1999,-0.0412,-0.0371,-0.0598,-0.0030,0.0197,-0.0027,-2.4708,1.3681,-3.0992
2024-10-11T12:56:58.189Z,-0.0166,-0.9908,0.1996,-0.0412,-0.0371,-0.0598,-0.0033,0.0209,-0.0035,-2.4708,1.3681,-3.0992
2024-10-11T12:56:58.199Z,-0.0174,-0.9970,0.1991,0.0865,0.1713,0.0200,-0.0080,0.0199,-0.0077,-2.4705,1.3681,-3.0991
2024-10-11T12:56:58.209Z,-0.0238,-0.9957,0.2033,0.0865,0.1713,0.0200,-0.0091,0.0206,-0.0077,-2.4705,1.3681,-3.0991
2024-10-11T12:56:58.219Z,-0.0225,-0.9935,0.2001,0.0865,0.1713,0.0200,-0.0084,0.0193,-0.0099,-2.4705,1.3681,-3.0991
2024-10-11T12:56:58.230Z,-0.0112,-0.9921,0.2017,0.0278,0.1230,-0.0073,-0.0095,0.0203,-0.0119,-2.4693,1.3683,-3.1000
2024-10-11T12:56:58.239Z,-0.0200,-0.9843,0.2041,0.0278,0.1230,-0.0073,-0.0116,0.0179,-0.0092,-2.4693,1.3683,-3.1000
2024-10-11T12:56:58.249Z,-0.0063,-0.9808,0.1995,0.0278,0.1230,-0.0073,-0.0143,0.0205,-0.0066,-2.4693,1.3683,-3.1000
2024-10-11T12:56:58.259Z,-0.0068,-0.9797,0.2048,-0.0137,0.0002,-0.0418,-0.0128,0.0227,-0.0093,-2.4680,1.3687,-3.1009
2024-10-11T12:56:58.269Z,-0.0103,-0.9892,0.2029,-0.0137,0.0002,-0.0418,-0.0142,0.0241,-0.0072,-2.4680,1.3687,-3.1009
2024-10-11T12:56:58.279Z,-0.0140,-0.9963,0.1947,-0.0137,0.0002,-0.0418,-0.0175,0.0258,-0.0112,-2.4680,1.3687,-3.1009
2024-10-11T12:56:58.289Z,-0.0127,-0.9854,0.1978,0.0450,0.0558,0.0229,-0.0207,0.0274,-0.0098,-2.4673,1.3691,-3.1012
2024-10-11T12:56:58.299Z,-0.0117,-0.9802,0.2020,0.0450,0.0558,0.0229,-0.0162,0.0249,-0.0084,-2.4673,1.3691,-3.1012
2024-10-11T12:56:58.310Z,-0.0169,-0.9812,0.1964,0.0450,0.0558,0.0229,-0.0151,0.0222,-0.0101,-2.4673,1.3691,-3.1012
2024-10-11T12:56:58.319Z,-0.0169,-0.9812,0.1964,0.0870,0.0130,0.0323,-0.0124,0.0253,-0.0081,-2.4664,1.3696,-3.1015
2024-10-11T12:56:58.331Z,-0.0175,-0.9766,0.1899,0.0870,0.0130,0.0323,-0.0136,0.0271,-0.0079,-2.4664,1.3696,-3.1015
2024-10-11T12:56:58.339Z,-0.0080,-0.9755,0.1884,0.0870,0.0130,0.0323,-0.0121,0.0314,-0.0061,-2.4664,1.3696,-3.1015
2024-10-11T12:56:58.349Z,-0.0064,-0.9740,0.1862,-0.0148,-0.0575,0.1287,-0.0111,0.0355,-0.0047,-2.4653,1.3700,-3.1020
2024-10-11T12:56:58.359Z,0.0002,-0.9710,0.1851,-0.0148,-0.0575,0.1287,-0.0098,0.0369,-0.0024,-2.4653,1.3700,-3.1020
2024-10-11T12:56:58.370Z,-0.0015,-0.9813,0.1810,-0.0148,-0.0575,0.1287,-0.0050,0.0327,-0.0019,-2.4653,1.3700,-3.1020
2024-10-11T12:56:58.380Z,-0.0015,-0.9813,0.1810,-0.0640,0.0130,0.1769,-0.0015,0.0318,0.0013,-2.4652,1.3702,-3.1014
2024-10-11T12:56:58.390Z,-0.0052,-0.9955,0.1712,-0.0640,0.0130,0.1769,-0.0012,0.0314,0.0016,-2.4652,1.3702,-3.1014
2024-10-11T12:56:58.399Z,-0.0052,-0.9955,0.1712,-0.0640,0.0130,0.1769,0.0024,0.0342,0.0007,-2.4652,1.3702,-3.1014
2024-10-11T12:56:58.410Z,-0.0069,-0.9865,0.1852,0.0291,0.1212,0.1873,0.0028,0.0321,0.0034,-2.4657,1.3702,-3.1001
2024-10-11T12:56:58.420Z,-0.0088,-0.9895,0.1810,0.0291,0.1212,0.1873,0.0032,0.0314,0.0037,-2.4657,1.3702,-3.1001
2024-10-11T12:56:58.431Z,-0.0088,-0.9895,0.1810,0.0265,0.1086,0.1233,0.0037,0.0305,0.0033,-2.4660,1.3701,-3.0992
2024-10-11T12:56:58.439Z,-0.0074,-0.9893,0.1848,0.0265,0.1086,0.1233,0.0051,0.0237,0.0017,-2.4660,1.3701,-3.0992
2024-10-11T12:56:58.450Z,-0.0075,-0.9823,0.1940,0.0265,0.1086,0.1233,0.0053,0.0206,0.0034,-2.4660,1.3701,-3.0992
2024-10-11T12:56:58.459Z,-0.0063,-0.9796,0.1928,0.0265,0.1086,0.1233,0.0033,0.0158,0.0033,-2.4660,1.3701,-3.0992
2024-10-11T12:56:58.468Z,-0.0063,-0.9796,0.1928,-0.0227,-0.0029,0.0629,0.0036,0.0130,0.0041,-2.4666,1.3700,-3.0983
2024-10-11T12:56:58.480Z,-0.0071,-0.9756,0.1989,-0.0227,-0.0029,0.0629,0.0030,0.0102,0.0058,-2.4666,1.3700,-3.0983
2024-10-11T12:56:58.490Z,-0.0110,-0.9834,0.1995,-0.0227,-0.0029,0.0629,-0.0010,0.0128,0.0050,-2.4666,1.3700,-3.0983
2024-10-11T12:56:58.500Z,-0.0187,-0.9870,0.2017,0.0220,0.0336,-0.0038,-0.0021,0.0109,0.0014,-2.4673,1.3701,-3.0975
2024-10-11T12:56:58.509Z,-0.0203,-0.9891,0.2023,0.0220,0.0336,-0.0038,0.0012,0.0068,0.0000,-2.4673,1.3701,-3.0975
2024-10-11T12:56:58.519Z,-0.0232,-0.9876,0.2014,0.0220,0.0336,-0.0038,-0.0037,0.0059,-0.0037,-2.4673,1.3701,-3.0975
2024-10-11T12:56:58.530Z,-0.0232,-0.9876,0.2014,0.1416,0.0748,-0.0229,-0.0032,0.0014,-0.0043,-2.4674,1.3702,-3.0975
2024-10-11T12:56:58.539Z,-0.0200,-0.9872,0.2128,0.1416,0.0748,-0.0229,-0.0050,-0.0044,-0.0058,-2.4674,1.3702,-3.0975
2024-10-11T12:56:58.550Z,-0.0130,-0.9841,0.2087,0.1416,0.0748,-0.0229,-0.0079,-0.0032,-0.0041,-2.4674,1.3702,-3.0975
2024-10-11T12:56:58.560Z,-0.0172,-0.9764,0.2232,0.0433,0.0399,-0.0971,-0.0123,0.0002,-0.0041,-2.4668,1.3704,-3.0983
2024-10-11T12:56:58.569Z,-0.0189,-0.9778,0.2153,0.0433,0.0399,-0.0971,-0.0172,0.0033,-0.0062,-2.4668,1.3704,-3.0983
2024-10-11T12:56:58.582Z,-0.0202,-0.9759,0.2241,0.1165,-0.0415,-0.2521,-0.0197,0.0001,-0.0097,-2.4659,1.3709,-3.0995
2024-10-11T12:56:58.590Z,-0.0257,-0.9805,0.2168,0.1165,-0.0415,-0.2521,-0.0206,-0.0012,-0.0109,-2.4659,1.3709,-3.0995
2024-10-11T12:56:58.598Z,-0.0257,-0.9805,0.2168,0.1165,-0.0415,-0.2521,-0.0214,-0.0024,-0.0138,-2.4659,1.3709,-3.0995
2024-10-11T12:56:58.608Z,-0.0215,-0.9872,0.2175,0.1165,-0.0415,-0.2521,-0.0212,-0.0037,-0.0143,-2.4659,1.3709,-3.0995
2024-10-11T12:56:58.619Z,-0.0123,-0.9908,0.2106,0.0641,0.1085,-0.1911,-0.0249,-0.0032,-0.0127,-2.4644,1.3716,-3.1013
2024-10-11T12:56:58.630Z,-0.0154,-0.9849,0.2159,0.0641,0.1085,-0.1911,-0.0295,-0.0017,-0.0146,-2.4644,1.3716,-3.1013
2024-10-11T12:56:58.639Z,-0.0101,-0.9843,0.2100,0.0641,0.1085,-0.1911,-0.0331,-0.0021,-0.0144,-2.4644,1.3716,-3.1013
2024-10-11T12:56:58.650Z,-0.0034,-0.9822,0.2109,0.0254,0.0379,-0.1284,-0.0347,0.0075,-0.0127,-2.4624,1.3724,-3.1035
2024-10-11T12:56:58.659Z,-0.0008,-0.9839,0.2086,0.0254,0.0379,-0.1284,-0.0373,0.0044,-0.0138,-2.4624,1.3724,-3.1035
2024-10-11T12:56:58.669Z,-0.0067,-0.9874,0.2044,0.0254,0.0379,-0.1284,-0.0384,0.0068,-0.0135,-2.4624,1.3724,-3.1035
2024-10-11T12:56:58.680Z,-0.0071,-0.9866,0.1938,-0.0048,0.0669,-0.0827,-0.0340,0.0038,-0.0095,-2.4610,1.3734,-3.1050
2024-10-11T12:56:58.689Z,-0.0066,-0.9879,0.1996,-0.0048,0.0669,-0.0827,-0.0378,0.0074,-0.0073,-2.4610,1.3734,-3.1050
2024-10-11T12:56:58.700Z,-0.0028,-0.9841,0.1929,-0.0048,0.0669,-0.0827,-0.0367,0.0112,-0.0099,-2.4610,1.3734,-3.1050
2024-10-11T12:56:58.709Z,-0.0027,-0.9827,0.1931,-0.0412,0.0328,0.0195,-0.0360,0.0147,-0.0058,-2.4600,1.3745,-3.1059
2024-10-11T12:56:58.719Z,-0.0075,-0.9779,0.1947,-0.0412,0.0328,0.0195,-0.0377,0.0143,-0.0083,-2.4600,1.3745,-3.1059
2024-10-11T12:56:58.733Z,-0.0061,-0.9737,0.1943,-0.0076,-0.0716,-0.0032,-0.0378,0.0172,-0.0056,-2.4593,1.3755,-3.1064
2024-10-11T12:56:58.739Z,-0.0040,-0.9731,0.1966,-0.0076,-0.0716,-0.0032,-0.0389,0.0142,-0.0043,-2.4593,1.3755,-3.1064
2024-10-11T12:56:58.750Z,-0.0085,-0.9715,0.1980,-0.0076,-0.0716,-0.0032,-0.0366,0.0119,-0.0055,-2.4593,1.3755,-3.1064
2024-10-11T12:56:58.759Z,-0.0026,-0.9748,0.1939,-0.0076,-0.0716,-0.0032,-0.0374,0.0116,-0.0043,-2.4593,1.3755,-3.1064
2024-10-11T12:56:58.769Z,0.0021,-0.9798,0.1932,-0.0410,-0.0628,-0.0107,-0.0410,0.0158,-0.0027,-2.4589,1.3766,-3.1066
2024-10-11T12:56:58.782Z,0.0055,-0.9809,0.1991,-0.0410,-0.0628,-0.0107,-0.0375,0.0202,-0.0012,-2.4589,1.3766,-3.1066
2024-10-11T12:56:58.789Z,-0.0014,-0.9873,0.1887,-0.0410,-0.0628,-0.0107,-0.0385,0.0230,-0.0005,-2.4589,1.3766,-3.1066
2024-10-11T12:56:58.799Z,-0.0037,-0.9872,0.1855,-0.0529,0.0574,0.0293,-0.0372,0.0262,-0.0017,-2.4590,1.3778,-3.1061
2024-10-11T12:56:58.809Z,-0.0006,-0.9787,0.1855,-0.0529,0.0574,0.0293,-0.0347,0.0207,0.0015,-2.4590,1.3778,-3.1061
2024-10-11T12:56:58.819Z,-0.0032,-0.9721,0.1918,-0.0529,0.0574,0.0293,-0.0344,0.0184,0.0001,-2.4590,1.3778,-3.1061
2024-10-11T12:56:58.830Z,-0.0101,-0.9697,0.1867,-0.0362,-0.0935,-0.0103,-0.0300,0.0189,-0.0011,-2.4592,1.3787,-3.1055
2024-10-11T12:56:58.839Z,-0.0101,-0.9758,0.1772,-0.0362,-0.0935,-0.0103,-0.0272,0.0143,-0.0018,-2.4592,1.3787,-3.1055
2024-10-11T12:56:58.849Z,-0.0116,-0.9754,0.1805,-0.0362,-0.0935,-0.0103,-0.0252,0.0161,-0.0047,-2.4592,1.3787,-3.1055
2024-10-11T12:56:58.859Z,-0.0063,-0.9739,0.1815,0.0461,-0.0622,0.0935,-0.0250,0.0165,-0.0044,-2.4590,1.3795,-3.1054
2024-10-11T12:56:58.869Z,-0.0027,-0.9725,0.1802,0.0461,-0.0622,0.0935,-0.0219,0.0150,-0.0049,-2.4590,1.3795,-3.1054
2024-10-11T12:56:58.881Z,0.0035,-0.9697,0.1820,-0.1011,-0.1193,0.0720,-0.0192,0.0124,-0.0021,-2.4586,1.3802,-3.1056
2024-10-11T12:56:58.889Z,0.0040,-0.9701,0.1864,-0.1011,-0.1193,0.0720,-0.0191,0.0177,-0.0018,-2.4586,1.3802,-3.1056
2024-10-11T12:56:58.899Z,0.0057,-0.9733,0.1865,-0.1011,-0.1193,0.0720,-0.0205,0.0189,0.0018,-2.4586,1.3802,-3.1056
2024-10-11T12:56:58.910Z,0.0012,-0.9791,0.1840,-0.0789,-0.0284,0.0469,-0.0179,0.0151,-0.0006,-2.4587,1.3807,-3.1053
2024-10-11T12:56:58.919Z,-0.0043,-0.9853,0.1806,-0.0789,-0.0284,0.0469,-0.0185,0.0179,-0.0011,-2.4587,1.3807,-3.1053
2024-10-11T12:56:58.929Z,-0.0087,-0.9809,0.1782,-0.0789,-0.0284,0.0469,-0.0182,0.0204,0.0005,-2.4587,1.3807,-3.1053
2024-10-11T12:56:58.940Z,-0.0097,-0.9733,0.1863,0.0269,-0.0859,0.0202,-0.0145,0.0160,0.0004,-2.4590,1.3812,-3.1048
2024-10-11T12:56:58.949Z,-0.0139,-0.9737,0.1920,0.0269,-0.0859,0.0202,-0.0154,0.0129,-0.0035,-2.4590,1.3812,-3.1048
2024-10-11T12:56:58.959Z,-0.0124,-0.9807,0.1869,0.0269,-0.0859,0.0202,-0.0126,0.0132,-0.0053,-2.4590,1.3812,-3.1048
2024-10-11T12:56:58.969Z,-0.0104,-0.9784,0.1956,0.0269,-0.0859,0.0202,-0.0137,0.0128,-0.0069,-2.4590,1.3812,-3.1048
2024-10-11T12:56:58.980Z,-0.0019,-0.9755,0.1964,0.0347,-0.0368,-0.0753,-0.0152,0.0095,-0.0066,-2.4583,1.3816,-3.1053
2024-10-11T12:56:58.989Z,-0.0042,-0.9784,0.1952,0.0347,-0.0368,-0.0753,-0.0160,0.0149,-0.0055,-2.4583,1.3816,-3.1053
2024-10-11T12:56:58.999Z,-0.0042,-0.9815,0.1942,0.0347,-0.0368,-0.0753,-0.0151,0.0171,-0.0050,-2.4583,1.3816,-3.1053
2024-10-11T12:56:59.009Z,-0.0069,-0.9904,0.1989,-0.0247,-0.0072,-0.0664,-0.0184,0.0165,-0.0050,-2.4575,1.3821,-3.1059
2024-10-11T12:56:59.019Z,-0.0045,-0.9981,0.2000,-0.0247,-0.0072,-0.0664,-0.0169,0.0193,-0.0051,-2.4575,1.3821,-3.1059
2024-10-11T12:56:59.029Z,-0.0078,-1.0001,0.1958,-0.0247,-0.0072,-0.0664,-0.0179,0.0196,-0.0070,-2.4575,1.3821,-3.1059
2024-10-11T12:56:59.039Z,-0.0112,-1.0008,0.1970,0.0117,0.1737,-0.0869,-0.0182,0.0150,-0.0090,-2.4568,1.3826,-3.1062
2024-10-11T12:56:59.049Z,-0.0169,-0.9956,0.1983,0.0117,0.1737,-0.0869,-0.0185,0.0157,-0.0088,-2.4568,1.3826,-3.1062
2024-10-11T12:56:59.060Z,-0.0160,-0.9851,0.1906,0.0935,0.0262,-0.0417,-0.0229,0.0185,-0.0088,-2.4559,1.3832,-3.1069
2024-10-11T12:56:59.069Z,-0.0064,-0.9785,0.1987,0.0935,0.0262,-0.0417,-0.0221,0.0195,-0.0082,-2.4559,1.3832,-3.1069
2024-10-11T12:56:59.078Z,-0.0046,-0.9772,0.1967,0.0935,0.0262,-0.0417,-0.0245,0.0142,-0.0107,-2.4559,1.3832,-3.1069
2024-10-11T12:56:59.090Z,-0.0022,-0.9766,0.1906,-0.0394,-0.0585,-0.0473,-0.0231,0.0179,-0.0108,-2.4544,1.3838,-3.1081
2024-10-11T12:56:59.099Z,-0.0021,-0.9674,0.1984,-0.0394,-0.0585,-0.0473,-0.0232,0.0214,-0.0100,-2.4544,1.3838,-3.1081
2024-10-11T12:56:59.109Z,-0.0046,-0.9689,0.1897,-0.0394,-0.0585,-0.0473,-0.0262,0.0199,-0.0100,-2.4544,1.3838,-3.1081
2024-10-11T12:56:59.118Z,-0.0053,-0.9696,0.1891,-0.0394,-0.0585,-0.0473,-0.0267,0.0189,-0.0109,-2.4544,1.3838,-3.1081
2024-10-11T12:56:59.128Z,-0.0010,-0.9689,0.1913,-0.0068,-0.1283,-0.0404,-0.0295,0.0218,-0.0098,-2.4531,1.3846,-3.1090
2024-10-11T12:56:59.138Z,0.0032,-0.9682,0.1882,-0.0068,-0.1283,-0.0404,-0.0256,0.0230,-0.0062,-2.4531,1.3846,-3.1090
2024-10-11T12:56:59.150Z,0.0032,-0.9682,0.1882,-0.1012,-0.1691,-0.0353,-0.0249,0.0208,-0.0083,-2.4520,1.3853,-3.1097
2024-10-11T12:56:59.159Z,-0.0002,-0.9634,0.1911,-0.1012,-0.1691,-0.0353,-0.0259,0.0254,-0.0083,-2.4520,1.3853,-3.1097
2024-10-11T12:56:59.169Z,0.0032,-0.9673,0.1901,-0.1012,-0.1691,-0.0353,-0.0256,0.0261,-0.0061,-2.4520,1.3853,-3.1097
2024-10-11T12:56:59.178Z,0.0080,-0.9730,0.1810,-0.1012,-0.1691,-0.0353,-0.0237,0.0234,-0.0049,-2.4520,1.3853,-3.1097
2024-10-11T12:56:59.189Z,0.0081,-0.9755,0.1817,-0.1350,-0.0979,0.0273,-0.0179,0.0238,-0.0043,-2.4511,1.3859,-3.1101
2024-10-11T12:56:59.199Z,0.0125,-0.9761,0.1834,-0.1350,-0.0979,0.0273,-0.0183,0.0243,-0.0014,-2.4511,1.3859,-3.1101
2024-10-11T12:56:59.210Z,0.0127,-0.9804,0.1696,-0.1816,-0.0263,0.1342,-0.0155,0.0267,-0.0014,-2.4510,1.3864,-3.1097
2024-10-11T12:56:59.218Z,0.0111,-0.9809,0.1673,-0.1816,-0.0263,0.1342,-0.0100,0.0257,0.0021,-2.4510,1.3864,-3.1097
2024-10-11T12:56:59.228Z,0.0058,-0.9776,0.1717,-0.1816,-0.0263,0.1342,-0.0100,0.0266,0.0015,-2.4510,1.3864,-3.1097
2024-10-11T12:56:59.240Z,-0.0047,-0.9786,0.1714,-0.0128,-0.0443,0.1141,-0.0081,0.0275,0.0014,-2.4512,1.3866,-3.1090
2024-10-11T12:56:59.249Z,-0.0053,-0.9786,0.1726,-0.0128,-0.0443,0.1141,-0.0052,0.0249,-0.0011,-2.4512,1.3866,-3.1090
2024-10-11T12:56:59.259Z,-0.0013,-0.9822,0.1714,-0.0128,-0.0443,0.1141,-0.0056,0.0262,-0.0012,-2.4512,1.3866,-3.1090
2024-10-11T12:56:59.268Z,0.0014,-0.9852,0.1667,-0.0128,-0.0443,0.1141,-0.0028,0.0300,0.0006,-2.4512,1.3866,-3.1090
2024-10-11T12:56:59.278Z,-0.0043,-0.9854,0.1705,-0.0729,0.0211,0.1600,-0.0002,0.0259,0.0002,-2.4510,1.3867,-3.1087
2024-10-11T12:56:59.289Z,-0.0049,-0.9890,0.1739,-0.0729,0.0211,0.1600,0.0030,0.0223,-0.0003,-2.4510,1.3867,-3.1087
2024-10-11T12:56:59.299Z,-0.0049,-0.9890,0.1739,-0.0463,0.1052,0.0887,0.0053,0.0237,0.0014,-2.4505,1.3867,-3.1086
2024-10-11T12:56:59.309Z,-0.0034,-0.9933,0.1781,-0.0463,0.1052,0.0887,0.0046,0.0280,0.0012,-2.4505,1.3867,-3.1086
2024-10-11T12:56:59.318Z,-0.0037,-0.9867,0.1877,-0.0463,0.1052,0.0887,0.0031,0.0232,-0.0017,-2.4505,1.3867,-3.1086
2024-10-11T12:56:59.329Z,-0.0054,-0.9848,0.1838,-0.0070,0.0170,-0.0078,0.0037,0.0278,-0.0022,-2.4503,1.3866,-3.1084
2024-10-11T12:56:59.339Z,-0.0084,-0.9820,0.1767,-0.0070,0.0170,-0.0078,0.0026,0.0271,-0.0008,-2.4503,1.3866,-3.1084
2024-10-11T12:56:59.349Z,-0.0101,-0.9733,0.1840,-0.0070,0.0170,-0.0078,0.0050,0.0222,0.0010,-2.4503,1.3866,-3.1084
2024-10-11T12:56:59.359Z,-0.0118,-0.9739,0.1830,0.0560,-0.0899,0.0005,0.0042,0.0236,-0.0051,-2.4497,1.3866,-3.1085
2024-10-11T12:56:59.369Z,-0.0115,-0.9778,0.1842,0.0560,-0.0899,0.0005,0.0039,0.0229,-0.0055,-2.4497,1.3866,-3.1085
2024-10-11T12:56:59.378Z,-0.0080,-0.9825,0.1854,0.0560,-0.0899,0.0005,0.0033,0.0175,-0.0039,-2.4497,1.3866,-3.1085
2024-10-11T12:56:59.389Z,-0.0064,-0.9844,0.1873,0.0046,0.0131,-0.0411,0.0033,0.0154,-0.0060,-2.4488,1.3865,-3.1090
2024-10-11T12:56:59.399Z,-0.0023,-0.9833,0.1960,0.0046,0.0131,-0.0411,0.0005,0.0199,-0.0068,-2.4488,1.3865,-3.1090
2024-10-11T12:56:59.409Z,-0.0053,-0.9817,0.1958,0.0046,0.0131,-0.0411,0.0008,0.0170,-0.0060,-2.4488,1.3865,-3.1090
2024-10-11T12:56:59.419Z,-0.0081,-0.9845,0.1976,0.0221,0.0141,-0.1409,0.0015,0.0110,-0.0075,-2.4478,1.3865,-3.1098
2024-10-11T12:56:59.429Z,-0.0076,-0.9902,0.1988,0.0221,0.0141,-0.1409,-0.0007,0.0091,-0.0076,-2.4478,1.3865,-3.1098
2024-10-11T12:56:59.440Z,-0.0110,-0.9947,0.1987,0.0221,0.0141,-0.1409,-0.0025,0.0140,-0.0077,-2.4478,1.3865,-3.1098
2024-10-11T12:56:59.449Z,-0.0110,-0.9947,0.1987,0.0596,0.1305,-0.1650,-0.0040,0.0078,-0.0084,-2.4467,1.3866,-3.1108
2024-10-11T12:56:59.459Z,-0.0101,-0.9909,0.1970,0.0596,0.1305,-0.1650,-0.0061,0.0080,-0.0113,-2.4467,1.3866,-3.1108
2024-10-11T12:56:59.468Z,-0.0041,-0.9833,0.1927,0.0596,0.1305,-0.1650,-0.0129,0.0132,-0.0122,-2.4467,1.3866,-3.1108
2024-10-11T12:56:59.479Z,-0.0053,-0.9804,0.1972,0.0002,-0.0269,-0.1415,-0.0142,0.0096,-0.0100,-2.4448,1.3870,-3.1126
2024-10-11T12:56:59.489Z,-0.0040,-0.9844,0.1891,0.0002,-0.0269,-0.1415,-0.0154,0.0108,-0.0103,-2.4448,1.3870,-3.1126
2024-10-11T12:56:59.499Z,0.0030,-0.9840,0.1797,0.0002,-0.0269,-0.1415,-0.0190,0.0114,-0.0093,-2.4448,1.3870,-3.1126
2024-10-11T12:56:59.509Z,0.0092,-0.9807,0.1801,-0.1397,-0.0249,0.0214,-0.0165,0.0141,-0.0098,-2.4433,1.3874,-3.1140
2024-10-11T12:56:59.519Z,0.0117,-0.9802,0.1734,-0.1397,-0.0249,0.0214,-0.0177,0.0101,-0.0076,-2.4433,1.3874,-3.1140
2024-10-11T12:56:59.528Z,0.0114,-0.9816,0.1807,-0.1397,-0.0249,0.0214,-0.0189,0.0165,-0.0063,-2.4433,1.3874,-3.1140
2024-10-11T12:56:59.539Z,0.0125,-0.9815,0.1761,-0.1716,-0.0176,0.0574,-0.0168,0.0152,-0.0025,-2.4429,1.3878,-3.1143
2024-10-11T12:56:59.549Z,0.0139,-0.9832,0.1713,-0.1716,-0.0176,0.0574,-0.0177,0.0111,-0.0013,-2.4429,1.3878,-3.1143
2024-10-11T12:56:59.559Z,0.0102,-0.9838,0.1764,-0.1716,-0.0176,0.0574,-0.0143,0.0076,-0.0003,-2.4429,1.3878,-3.1143
2024-10-11T12:56:59.569Z,0.0084,-0.9757,0.1760,-0.1320,-0.0750,0.0540,-0.0196,0.0114,0.0004,-2.4434,1.3882,-3.1137
2024-10-11T12:56:59.578Z,0.0050,-0.9665,0.1758,-0.1320,-0.0750,0.0540,-0.0147,0.0094,0.0044,-2.4434,1.3882,-3.1137
2024-10-11T12:56:59.589Z,0.0073,-0.9604,0.1749,-0.1320,-0.0750,0.0540,-0.0175,0.0088,0.0055,-2.4434,1.3882,-3.1137
2024-10-11T12:56:59.600Z,0.0128,-0.9633,0.1779,-0.1763,-0.1978,0.0296,-0.0170,0.0097,0.0060,-2.4439,1.3888,-3.1132
2024-10-11T12:56:59.609Z,0.0116,-0.9705,0.1770,-0.1763,-0.1978,0.0296,-0.0156,0.0101,0.0072,-2.4439,1.3888,-3.1132
2024-10-11T12:56:59.619Z,0.0113,-0.9716,0.1732,-0.1763,-0.1978,0.0296,-0.0151,0.0061,0.0099,-2.4439,1.3888,-3.1132
2024-10-11T12:56:59.629Z,0.0193,-0.9723,0.1726,-0.2418,-0.1106,0.0779,-0.0123,0.0057,0.0134,-2.4452,1.3892,-3.1121
2024-10-11T12:56:59.639Z,0.0180,-0.9766,0.1777,-0.2418,-0.1106,0.0779,-0.0102,0.0060,0.0136,-2.4452,1.3892,-3.1121
2024-10-11T12:56:59.650Z,0.0117,-0.9850,0.1733,-0.2418,-0.1106,0.0779,-0.0090,0.0058,0.0156,-2.4452,1.3892,-3.1121
2024-10-11T12:56:59.659Z,0.0056,-0.9844,0.1757,-0.1109,0.0082,0.0447,-0.0065,0.0027,0.0149,-2.4473,1.3894,-3.1101
2024-10-11T12:56:59.669Z,-0.0048,-0.9853,0.1693,-0.1109,0.0082,0.0447,-0.0058,0.0088,0.0128,-2.4473,1.3894,-3.1101
2024-10-11T12:56:59.678Z,-0.0067,-0.9894,0.1616,-0.1109,0.0082,0.0447,-0.0022,0.0074,0.0147,-2.4473,1.3894,-3.1101
2024-10-11T12:56:59.688Z,-0.0095,-0.9880,0.1630,0.0351,0.0435,0.1693,0.0017,-0.0017,0.0125,-2.4491,1.3894,-3.1085
2024-10-11T12:56:59.699Z,-0.0142,-0.9868,0.1597,0.0351,0.0435,0.1693,0.0064,0.0005,0.0109,-2.4491,1.3894,-3.1085
2024-10-11T12:56:59.709Z,-0.0155,-0.9858,0.1605,0.0351,0.0435,0.1693,0.0071,0.0007,0.0107,-2.4491,1.3894,-3.1085
2024-10-11T12:56:59.719Z,-0.0127,-0.9902,0.1662,0.0647,0.0651,0.1405,0.0123,-0.0022,0.0122,-2.4503,1.3892,-3.1076
2024-10-11T12:56:59.728Z,-0.0093,-0.9882,0.1725,0.0647,0.0651,0.1405,0.0101,0.0015,0.0094,-2.4503,1.3892,-3.1076
2024-10-11T12:56:59.739Z,-0.0045,-0.9851,0.1708,0.0647,0.0651,0.1405,0.0078,0.0043,0.0127,-2.4503,1.3892,-3.1076
2024-10-11T12:56:59.750Z,-0.0074,-0.9830,0.1707,0.0094,-0.0050,0.0985,0.0103,0.0066,0.0125,-2.4519,1.3889,-3.1062
2024-10-11T12:56:59.759Z,-0.0106,-0.9817,0.1743,0.0094,-0.0050,0.0985,0.0111,0.0046,0.0105,-2.4519,1.3889,-3.1062
2024-10-11T12:56:59.769Z,-0.0185,-0.9838,0.1736,0.0094,-0.0050,0.0985,0.0137,0.0041,0.0086,-2.4519,1.3889,-3.1062
2024-10-11T12:56:59.778Z,-0.0215,-0.9834,0.1815,0.1455,-0.0006,-0.0048,0.0105,0.0023,0.0072,-2.4536,1.3887,-3.1047
2024-10-11T12:56:59.789Z,-0.0242,-0.9827,0.1831,0.1455,-0.0006,-0.0048,0.0129,0.0032,0.0066,-2.4536,1.3887,-3.1047
2024-10-11T12:56:59.799Z,-0.0202,-0.9907,0.1820,0.1455,-0.0006,-0.0048,0.0127,-0.0003,0.0102,-2.4536,1.3887,-3.1047
2024-10-11T12:56:59.809Z,-0.0121,-0.9943,0.1810,0.0515,0.1066,0.0033,0.0107,0.0027,0.0089,-2.4549,1.3883,-3.1036
2024-10-11T12:56:59.819Z,-0.0138,-0.9920,0.1873,0.0515,0.1066,0.0033,0.0111,0.0010,0.0061,-2.4549,1.3883,-3.1036
2024-10-11T12:56:59.828Z,-0.0125,-0.9917,0.1886,0.0515,0.1066,0.0033,0.0121,0.0021,0.0056,-2.4549,1.3883,-3.1036
2024-10-11T12:56:59.839Z,-0.0122,-0.9930,0.1894,0.0512,0.0950,-0.0772,0.0082,0.0019,0.0055,-2.4557,1.3881,-3.1029
2024-10-11T12:56:59.850Z,-0.0141,-0.9917,0.1913,0.0512,0.0950,-0.0772,0.0058,0.0036,0.0041,-2.4557,1.3881,-3.1029
2024-10-11T12:56:59.859Z,-0.0138,-0.9903,0.1901,0.0512,0.0950,-0.0772,0.0086,-0.0001,0.0043,-2.4557,1.3881,-3.1029
2024-10-11T12:56:59.869Z,-0.0117,-0.9919,0.1900,0.0449,0.0838,-0.0814,0.0064,0.0028,0.0022,-2.4566,1.3879,-3.1022
2024-10-11T12:56:59.878Z,-0.0182,-0.9900,0.1934,0.0449,0.0838,-0.0814,0.0011,0.0035,0.0013,-2.4566,1.3879,-3.1022
2024-10-11T12:56:59.889Z,-0.0202,-0.9893,0.1972,0.0449,0.0838,-0.0814,0.0005,0.0035,0.0017,-2.4566,1.3879,-3.1022
2024-10-11T12:56:59.900Z,-0.0203,-0.9867,0.1906,0.1287,0.0334,-0.0870,-0.0003,0.0077,0.0003,-2.4570,1.3879,-3.1019
2024-10-11T12:56:59.909Z,-0.0145,-0.9841,0.1891,0.1287,0.0334,-0.0870,-0.0052,0.0098,-0.0008,-2.4570,1.3879,-3.1019
2024-10-11T12:56:59.918Z,-0.0139,-0.9827,0.1847,0.1287,0.0334,-0.0870,-0.0063,0.0108,0.0004,-2.4570,1.3879,-3.1019
2024-10-11T12:56:59.928Z,-0.0114,-0.9815,0.1808,0.0398,-0.0179,0.0073,-0.0058,0.0121,0.0015,-2.4573,1.3880,-3.1015
2024-10-11T12:56:59.939Z,-0.0130,-0.9795,0.1902,0.0398,-0.0179,0.0073,-0.0079,0.0162,-0.0026,-2.4573,1.3880,-3.1015
2024-10-11T12:56:59.949Z,-0.0129,-0.9774,0.1943,0.0398,-0.0179,0.0073,-0.0120,0.0168,-0.0001,-2.4573,1.3880,-3.1015
2024-10-11T12:56:59.958Z,-0.0179,-0.9826,0.1885,0.1029,-0.0073,-0.0701,-0.0071,0.0175,-0.0017,-2.4577,1.3882,-3.1009
2024-10-11T12:56:59.968Z,-0.0178,-0.9803,0.1882,0.1029,-0.0073,-0.0701,-0.0112,0.0145,-0.0043,-2.4577,1.3882,-3.1009
2024-10-11T12:56:59.979Z,-0.0149,-0.9713,0.1885,0.1029,-0.0073,-0.0701,-0.0103,0.0131,-0.0038,-2.4577,1.3882,-3.1009
2024-10-11T12:56:59.989Z,-0.0117,-0.9687,0.1864,0.0422,-0.1451,-0.0529,-0.0155,0.0151,-0.0051,-2.4575,1.3886,-3.1009
2024-10-11T12:56:59.999Z,-0.0086,-0.9654,0.1886,0.0422,-0.1451,-0.0529,-0.0153,0.0145,-0.0041,-2.4575,1.3886,-3.1009
2024-10-11T12:57:00.009Z,-0.0038,-0.9672,0.1933,0.0422,-0.1451,-0.0529,-0.0228,0.0186,-0.0033,-2.4575,1.3886,-3.1009
2024-10-11T12:57:00.018Z,-0.0038,-0.9672,0.1933,-0.0630,-0.0989,-0.0652,-0.0204,0.0211,-0.0004,-2.4574,1.3891,-3.1007
2024-10-11T12:57:00.028Z,-0.0003,-0.9826,0.1819,-0.0630,-0.0989,-0.0652,-0.0218,0.0204,0.0008,-2.4574,1.3891,-3.1007
2024-10-11T12:57:00.039Z,-0.0019,-0.9855,0.1820,-0.0630,-0.0989,-0.0652,-0.0164,0.0232,0.0016,-2.4574,1.3891,-3.1007
2024-10-11T12:57:00.049Z,0.0012,-0.9866,0.1776,-0.0862,0.0291,0.0256,-0.0162,0.0260,0.0016,-2.4582,1.3895,-3.0995
2024-10-11T12:57:00.059Z,0.0083,-0.9923,0.1717,-0.0862,0.0291,0.0256,-0.0137,0.0267,0.0035,-2.4582,1.3895,-3.0995
2024-10-11T12:57:00.068Z,0.0062,-0.9952,0.1745,-0.0862,0.0291,0.0256,-0.0116,0.0275,0.0057,-2.4582,1.3895,-3.0995
2024-10-11T12:57:00.078Z,0.0003,-0.9978,0.1652,-0.0811,0.1386,0.1441,-0.0089,0.0239,0.0085,-2.4597,1.3897,-3.0975
2024-10-11T12:57:00.089Z,-0.0113,-0.9948,0.1573,-0.0811,0.1386,0.1441,-0.0063,0.0240,0.0062,-2.4597,1.3897,-3.0975
2024-10-11T12:57:00.100Z,-0.0155,-0.9868,0.1659,-0.0811,0.1386,0.1441,-0.0039,0.0192,0.0066,-2.4597,1.3897,-3.0975
2024-10-11T12:57:00.109Z,-0.0066,-0.9790,0.1681,-0.0157,-0.0462,0.1149,-0.0043,0.0223,0.0061,-2.4607,1.3898,-3.0961
2024-10-11T12:57:00.118Z,-0.0135,-0.9780,0.1703,-0.0157,-0.0462,0.1149,-0.0036,0.0229,0.0080,-2.4607,1.3898,-3.0961
2024-10-11T12:57:00.128Z,-0.0112,-0.9791,0.1727,-0.0157,-0.0462,0.1149,-0.0050,0.0209,0.0062,-2.4607,1.3898,-3.0961
2024-10-11T12:57:00.138Z,-0.0114,-0.9856,0.1777,0.0294,0.0187,0.0193,-0.0047,0.0211,0.0068,-2.4615,1.3899,-3.0948
2024-10-11T12:57:00.149Z,-0.0135,-0.9865,0.1822,0.0294,0.0187,0.0193,-0.0042,0.0222,0.0063,-2.4615,1.3899,-3.0948
2024-10-11T12:57:00.159Z,-0.0117,-0.9827,0.1855,0.0294,0.0187,0.0193,-0.0056,0.0157,0.0028,-2.4615,1.3899,-3.0948
2024-10-11T12:57:00.169Z,-0.0183,-0.9797,0.1894,0.0955,-0.0398,-0.0978,-0.0035,0.0151,0.0056,-2.4623,1.3902,-3.0939
2024-10-11T12:57:00.178Z,-0.0146,-0.9808,0.1846,0.0955,-0.0398,-0.0978,-0.0039,0.0105,0.0042,-2.4623,1.3902,-3.0939
2024-10-11T12:57:00.189Z,-0.0190,-0.9819,0.1850,0.0955,-0.0398,-0.0978,-0.0047,0.0114,0.0011,-2.4623,1.3902,-3.0939
2024-10-11T12:57:00.199Z,-0.0228,-0.9830,0.1909,0.1391,-0.0076,-0.1143,-0.0049,0.0095,-0.0002,-2.4628,1.3903,-3.0934
2024-10-11T12:57:00.209Z,-0.0240,-0.9855,0.1863,0.1391,-0.0076,-0.1143,-0.0052,0.0034,-0.0016,-2.4628,1.3903,-3.0934
2024-10-11T12:57:00.218Z,-0.0247,-0.9859,0.1892,0.1391,-0.0076,-0.1143,-0.0061,-0.0020,-0.0020,-2.4628,1.3903,-3.0934
2024-10-11T12:57:00.228Z,-0.0174,-0.9833,0.1940,0.0871,-0.0045,-0.1460,-0.0049,-0.0023,-0.0067,-2.4624,1.3905,-3.0940
2024-10-11T12:57:00.239Z,-0.0131,-0.9855,0.1915,0.0871,-0.0045,-0.1460,-0.0051,-0.0028,-0.0052,-2.4624,1.3905,-3.0940
2024-10-11T12:57:00.249Z,-0.0120,-0.9899,0.1955,0.0871,-0.0045,-0.1460,-0.0074,0.0002,-0.0074,-2.4624,1.3905,-3.0940
2024-10-11T12:57:00.259Z,-0.0112,-0.9925,0.1950,0.0279,0.0854,-0.1576,-0.0099,-0.0037,-0.0060,-2.4617,1.3907,-3.0950
2024-10-11T12:57:00.268Z,-0.0129,-0.9914,0.1934,0.0279,0.0854,-0.1576,-0.0121,0.0026,-0.0050,-2.4617,1.3907,-3.0950
2024-10-11T12:57:00.278Z,-0.0136,-0.9915,0.1943,0.0279,0.0854,-0.1576,-0.0101,-0.0054,-0.0086,-2.4617,1.3907,-3.0950
2024-10-11T12:57:00.289Z,-0.0173,-0.9935,0.1903,0.0905,0.0947,-0.1143,-0.0104,-0.0065,-0.0103,-2.4607,1.3910,-3.0962
2024-10-11T12:57:00.300Z,-0.0153,-0.9949,0.1953,0.0905,0.0947,-0.1143,-0.0112,-0.0082,-0.0103,-2.4607,1.3910,-3.0962
2024-10-11T12:57:00.309Z,-0.0106,-0.9933,0.1935,0.0905,0.0947,-0.1143,-0.0112,-0.0043,-0.0099,-2.4607,1.3910,-3.0962
2024-10-11T12:57:00.318Z,-0.0057,-0.9898,0.1998,-0.0210,0.0576,-0.2105,-0.0160,-0.0078,-0.0122,-2.4597,1.3913,-3.0976
2024-10-11T12:57:00.328Z,-0.0028,-0.9882,0.1946,-0.0210,0.0576,-0.2105,-0.0153,-0.0035,-0.0072,-2.4597,1.3913,-3.0976
2024-10-11T12:57:00.339Z,-0.0005,-0.9873,0.1885,-0.0210,0.0576,-0.2105,-0.0182,-0.0009,-0.0095,-2.4597,1.3913,-3.0976
2024-10-11T12:57:00.349Z,-0.0030,-0.9798,0.1934,-0.0452,-0.0409,-0.1514,-0.0179,0.0010,-0.0075,-2.4585,1.3918,-3.0990
2024-10-11T12:57:00.359Z,0.0008,-0.9781,0.1934,-0.0452,-0.0409,-0.1514,-0.0171,0.0032,-0.0080,-2.4585,1.3918,-3.0990
2024-10-11T12:57:00.369Z,-0.0030,-0.9769,0.1912,-0.0452,-0.0409,-0.1514,-0.0207,0.0077,-0.0084,-2.4585,1.3918,-3.0990
2024-10-11T12:57:00.378Z,0.0031,-0.9793,0.1878,-0.1035,-0.0470,-0.1025,-0.0215,0.0069,-0.0070,-2.4576,1.3923,-3.0999
2024-10-11T12:57:00.389Z,0.0061,-0.9773,0.1866,-0.1035,-0.0470,-0.1025,-0.0210,0.0098,-0.0059,-2.4576,1.3923,-3.0999
2024-10-11T12:57:00.399Z,0.0047,-0.9756,0.1792,-0.1035,-0.0470,-0.1025,-0.0201,0.0102,-0.0044,-2.4576,1.3923,-3.0999
2024-10-11T12:57:00.409Z,0.0057,-0.9745,0.1816,-0.1275,-0.0954,-0.0467,-0.0191,0.0094,-0.0035,-2.4569,1.3929,-3.1006
2024-10-11T12:57:00.419Z,-0.0006,-0.9705,0.1844,-0.1275,-0.0954,-0.0467,-0.0180,0.0098,-0.0033,-2.4569,1.3929,-3.1006
2024-10-11T12:57:00.428Z,0.0020,-0.9661,0.1883,-0.1275,-0.0954,-0.0467,-0.0218,0.0091,-0.0043,-2.4569,1.3929,-3.1006
2024-10-11T12:57:00.439Z,0.0026,-0.9680,0.1859,-0.0956,-0.1594,-0.0936,-0.0199,0.0094,-0.0008,-2.4562,1.3934,-3.1013
2024-10-11T12:57:00.449Z,0.0016,-0.9744,0.1819,-0.0956,-0.1594,-0.0936,-0.0189,0.0047,-0.0027,-2.4562,1.3934,-3.1013
2024-10-11T12:57:00.459Z,0.0031,-0.9827,0.1783,-0.0956,-0.1594,-0.0936,-0.0171,-0.0005,-0.0027,-2.4562,1.3934,-3.1013
2024-10-11T12:57:00.469Z,0.0007,-0.9828,0.1730,-0.0748,-0.0153,0.0289,-0.0150,0.0052,-0.0024,-2.4556,1.3937,-3.1020
2024-10-11T12:57:00.478Z,0.0091,-0.9811,0.1735,-0.0748,-0.0153,0.0289,-0.0138,0.0080,0.0004,-2.4556,1.3937,-3.1020
2024-10-11T12:57:00.488Z,0.0074,-0.9846,0.1629,-0.0748,-0.0153,0.0289,-0.0097,0.0078,0.0014,-2.4556,1.3937,-3.1020
2024-10-11T12:57:00.499Z,0.0029,-0.9849,0.1596,-0.0964,0.0047,0.1582,-0.0101,0.0081,0.0019,-2.4556,1.3940,-3.1020
2024-10-11T12:57:00.510Z,-0.0007,-0.9761,0.1590,-0.0964,0.0047,0.1582,-0.0045,0.0083,0.0016,-2.4556,1.3940,-3.1020
2024-10-11T12:57:00.519Z,-0.0061,-0.9727,0.1678,-0.0964,0.0047,0.1582,-0.0045,0.0083,0.0016,-2.4556,1.3940,-3.1020
2024-10-11T12:57:00.529Z,-0.0060,-0.9726,0.1704,-0.0093,-0.1160,0.0520,-0.0040,0.0074,0.0026,-2.4558,1.3941,-3.1019
2024-10-11T12:57:00.540Z,-0.0131,-0.9765,0.1737,-0.0093,-0.1160,0.0520,-0.0059,0.0041,0.0015,-2.4558,1.3941,-3.1019
2024-10-11T12:57:00.549Z,-0.0124,-0.9779,0.1753,-0.0093,-0.1160,0.0520,-0.0041,0.0028,0.0013,-2.4558,1.3941,-3.1019
2024-10-11T12:57:00.559Z,-0.0090,-0.9847,0.1709,0.0209,0.0025,0.0459,-0.0035,0.0020,0.0001,-2.4554,1.3942,-3.1025
2024-10-11T12:57:00.569Z,-0.0113,-0.9869,0.1758,0.0209,0.0025,0.0459,-0.0018,0.0024,0.0001,-2.4554,1.3942,-3.1025
2024-10-11T12:57:00.578Z,-0.0069,-0.9877,0.1721,0.0209,0.0025,0.0459,0.0003,-0.0010,-0.0002,-2.4554,1.3942,-3.1025
2024-10-11T12:57:00.590Z,-0.0097,-0.9859,0.1789,0.0289,0.0142,-0.0339,-0.0036,-0.0028,-0.0022,-2.4548,1.3943,-3.1033
2024-10-11T12:57:00.600Z,-0.0158,-0.9806,0.1790,0.0289,0.0142,-0.0339,-0.0036,-0.0028,-0.0022,-2.4548,1.3943,-3.1033
2024-10-11T12:57:00.608Z,-0.0164,-0.9818,0.1751,0.0289,0.0142,-0.0339,-0.0011,-0.0036,-0.0038,-2.4548,1.3943,-3.1033
2024-10-11T12:57:00.620Z,-0.0206,-0.9806,0.1720,0.1371,-0.0384,0.0331,-0.0056,0.0006,-0.0098,-2.4545,1.3944,-3.1040
2024-10-11T12:57:00.628Z,-0.0224,-0.9764,0.1793,0.1371,-0.0384,0.0331,-0.0056,0.0006,-0.0098,-2.4545,1.3944,-3.1040
2024-10-11T12:57:00.640Z,-0.0233,-0.9747,0.1899,0.1371,-0.0384,0.0331,-0.0036,-0.0010,-0.0072,-2.4545,1.3944,-3.1040
2024-10-11T12:57:00.650Z,-0.0160,-0.9829,0.1875,0.0948,-0.0157,-0.1200,-0.0036,-0.0010,-0.0072,-2.4533,1.3945,-3.1056
2024-10-11T12:57:00.660Z,-0.0141,-0.9919,0.1925,0.0948,-0.0157,-0.1200,-0.0031,-0.0084,-0.0090,-2.4533,1.3945,-3.1056
2024-10-11T12:57:00.670Z,-0.0158,-0.9955,0.1878,0.0948,-0.0157,-0.1200,-0.0086,-0.0059,-0.0100,-2.4533,1.3945,-3.1056
2024-10-11T12:57:00.678Z,-0.0167,-0.9988,0.1858,0.1053,0.1403,-0.1041,-0.0086,-0.0059,-0.0100,-2.4519,1.3946,-3.1073
2024-10-11T12:57:00.689Z,-0.0171,-0.9935,0.1850,0.1053,0.1403,-0.1041,-0.0068,-0.0040,-0.0112,-2.4519,1.3946,-3.1073
2024-10-11T12:57:00.700Z,-0.0168,-0.9916,0.1867,0.1053,0.1403,-0.1041,-0.0068,-0.0040,-0.0112,-2.4519,1.3946,-3.1073
2024-10-11T12:57:00.709Z,-0.0215,-0.9958,0.1906,0.1545,0.1103,-0.1540,-0.0127,-0.0013,-0.0118,-2.4507,1.3949,-3.1089
2024-10-11T12:57:00.720Z,-0.0153,-0.9980,0.1933,0.1545,0.1103,-0.1540,-0.0133,0.0010,-0.0145,-2.4507,1.3949,-3.1089
2024-10-11T12:57:00.730Z,-0.0149,-0.9966,0.1868,0.1545,0.1103,-0.1540,-0.0148,-0.0009,-0.0119,-2.4507,1.3949,-3.1089
2024-10-11T12:57:00.740Z,-0.0113,-0.9947,0.1864,0.0582,0.0992,-0.1164,-0.0158,0.0035,-0.0122,-2.4490,1.3952,-3.1108
2024-10-11T12:57:00.751Z,-0.0060,-0.9910,0.1878,0.0582,0.0992,-0.1164,-0.0158,0.0035,-0.0122,-2.4490,1.3952,-3.1108
2024-10-11T12:57:00.759Z,-0.0034,-0.9896,0.1906,0.0582,0.0992,-0.1164,-0.0166,0.0009,-0.0083,-2.4490,1.3952,-3.1108
2024-10-11T12:57:00.770Z,-0.0020,-0.9865,0.1875,-0.0309,0.0174,-0.1318,-0.0192,0.0039,-0.0069,-2.4478,1.3958,-3.1121
2024-10-11T12:57:00.778Z,-0.0046,-0.9862,0.1794,-0.0309,0.0174,-0.1318,-0.0192,0.0039,-0.0069,-2.4478,1.3958,-3.1121
2024-10-11T12:57:00.790Z,-0.0054,-0.9878,0.1794,-0.0309,0.0174,-0.1318,-0.0205,-0.0004,-0.0075,-2.4478,1.3958,-3.1121
2024-10-11T12:57:00.799Z,-0.0122,-0.9841,0.1742,0.0706,-0.0069,-0.0069,-0.0205,-0.0004,-0.0075,-2.4472,1.3963,-3.1129
2024-10-11T12:57:00.809Z,-0.0096,-0.9792,0.1791,0.0706,-0.0069,-0.0069,-0.0187,-0.0028,-0.0042,-2.4472,1.3963,-3.1129
2024-10-11T12:57:00.820Z,-0.0056,-0.9748,0.1800,0.0706,-0.0069,-0.0069,-0.0215,0.0024,-0.0042,-2.4472,1.3963,-3.1129
2024-10-11T12:57:00.828Z,-0.0046,-0.9792,0.1766,-0.0020,-0.0559,-0.0355,-0.0215,0.0024,-0.0042,-2.4464,1.3969,-3.1139
2024-10-11T12:57:00.840Z,-0.0025,-0.9769,0.1851,-0.0020,-0.0559,-0.0355,-0.0226,0.0088,-0.0026,-2.4464,1.3969,-3.1139
2024-10-11T12:57:00.850Z,0.0036,-0.9762,0.1763,-0.0020,-0.0559,-0.0355,-0.0249,0.0057,-0.0005,-2.4464,1.3969,-3.1139
2024-10-11T12:57:00.859Z,0.0098,-0.9751,0.1756,-0.1425,-0.0978,-0.0319,-0.0214,0.0057,-0.0020,-2.4460,1.3975,-3.1144
2024-10-11T12:57:00.869Z,0.0023,-0.9763,0.1750,-0.1425,-0.0978,-0.0319,-0.0200,0.0072,-0.0011,-2.4460,1.3975,-3.1144
2024-10-11T12:57:00.879Z,0.0067,-0.9789,0.1689,-0.1425,-0.0978,-0.0319,-0.0201,0.0088,0.0038,-2.4460,1.3975,-3.1144
2024-10-11T12:57:00.889Z,0.0072,-0.9776,0.1660,-0.1175,-0.0742,0.0568,-0.0174,0.0064,0.0031,-2.4468,1.3980,-3.1137
2024-10-11T12:57:00.900Z,0.0076,-0.9824,0.1573,-0.1175,-0.0742,0.0568,-0.0126,0.0067,0.0074,-2.4468,1.3980,-3.1137
2024-10-11T12:57:00.909Z,0.0035,-0.9859,0.1526,-0.1175,-0.0742,0.0568,-0.0131,0.0125,0.0079,-2.4468,1.3980,-3.1137
2024-10-11T12:57:00.919Z,0.0060,-0.9869,0.1540,-0.1082,0.0174,0.1722,-0.0115,0.0144,0.0062,-2.4481,1.3984,-3.1125
2024-10-11T12:57:00.928Z,-0.0012,-0.9816,0.1556,-0.1082,0.0174,0.1722,-0.0127,0.0123,0.0064,-2.4481,1.3984,-3.1125
2024-10-11T12:57:00.939Z,-0.0025,-0.9803,0.1621,-0.1082,0.0174,0.1722,-0.0087,0.0066,0.0048,-2.4481,1.3984,-3.1125
2024-10-11T12:57:00.950Z,-0.0005,-0.9791,0.1682,-0.0458,-0.0603,0.0298,-0.0085,0.0047,0.0060,-2.4490,1.3986,-3.1116
2024-10-11T12:57:00.959Z,-0.0027,-0.9806,0.1655,-0.0458,-0.0603,0.0298,-0.0069,0.0039,0.0078,-2.4490,1.3986,-3.1116
2024-10-11T12:57:00.970Z,-0.0024,-0.9842,0.1679,-0.0458,-0.0603,0.0298,-0.0072,0.0041,0.0043,-2.4490,1.3986,-3.1116
2024-10-11T12:57:00.979Z,-0.0011,-0.9882,0.1628,-0.0413,0.0292,0.0807,-0.0081,0.0078,0.0069,-2.4499,1.3989,-3.1107
2024-10-11T12:57:00.989Z,-0.0027,-0.9899,0.1613,-0.0413,0.0292,0.0807,-0.0059,0.0059,0.0054,-2.4499,1.3989,-3.1107
2024-10-11T12:57:01.002Z,-0.0063,-0.9858,0.1606,-0.0413,0.0292,0.0807,-0.0076,0.0081,0.0017,-2.4499,1.3989,-3.1107
2024-10-11T12:57:01.009Z,-0.0121,-0.9814,0.1616,0.0658,-0.0382,0.0901,-0.0066,-0.0006,0.0027,-2.4505,1.3991,-3.1102
2024-10-11T12:57:01.019Z,-0.0083,-0.9783,0.1740,0.0658,-0.0382,0.0901,-0.0047,-0.0030,0.0010,-2.4505,1.3991,-3.1102
2024-10-11T12:57:01.029Z,-0.0101,-0.9798,0.1673,0.0658,-0.0382,0.0901,-0.0066,-0.0032,-0.0008,-2.4505,1.3991,-3.1102
2024-10-11T12:57:01.039Z,-0.0089,-0.9778,0.1704,0.0351,-0.0738,0.0009,-0.0075,-0.0022,-0.0022,-2.4507,1.3993,-3.1102
2024-10-11T12:57:01.050Z,-0.0084,-0.9758,0.1733,0.0351,-0.0738,0.0009,-0.0061,0.0039,-0.0004,-2.4507,1.3993,-3.1102
2024-10-11T12:57:01.058Z,-0.0104,-0.9805,0.1763,0.0351,-0.0738,0.0009,-0.0095,0.0032,-0.0011,-2.4507,1.3993,-3.1102
2024-10-11T12:57:01.069Z,-0.0025,-0.9839,0.1761,-0.0270,-0.0149,-0.0571,-0.0071,0.0010,-0.0014,-2.4506,1.3996,-3.1107
2024-10-11T12:57:01.079Z,-0.0036,-0.9910,0.1701,-0.0270,-0.0149,-0.0571,-0.0068,-0.0013,-0.0019,-2.4506,1.3996,-3.1107
2024-10-11T12:57:01.089Z,-0.0051,-0.9953,0.1681,-0.0270,-0.0149,-0.0571,-0.0044,-0.0048,-0.0035,-2.4506,1.3996,-3.1107
2024-10-11T12:57:01.100Z,-0.0092,-0.9981,0.1669,0.0396,0.1241,0.0314,-0.0030,-0.0058,-0.0041,-2.4504,1.3998,-3.1111
2024-10-11T12:57:01.109Z,-0.0149,-0.9969,0.1737,0.0396,0.1241,0.0314,-0.0052,-0.0029,-0.0065,-2.4504,1.3998,-3.1111
2024-10-11T12:57:01.119Z,-0.0119,-0.9937,0.1772,0.0396,0.1241,0.0314,-0.0096,-0.0018,-0.0045,-2.4504,1.3998,-3.1111
2024-10-11T12:57:01.128Z,-0.0119,-0.9913,0.1815,0.0673,0.0573,-0.1130,-0.0097,-0.0011,-0.0078,-2.4495,1.4000,-3.1122
2024-10-11T12:57:01.139Z,-0.0091,-0.9943,0.1810,0.0673,0.0573,-0.1130,-0.0139,0.0023,-0.0079,-2.4495,1.4000,-3.1122
2024-10-11T12:57:01.150Z,-0.0009,-0.9934,0.1813,0.0673,0.0573,-0.1130,-0.0131,0.0044,-0.0059,-2.4495,1.4000,-3.1122
2024-10-11T12:57:01.159Z,0.0009,-0.9927,0.1779,-0.0555,0.0704,-0.0811,-0.0164,0.0011,-0.0069,-2.4485,1.4003,-3.1135
2024-10-11T12:57:01.169Z,0.0071,-0.9897,0.1778,-0.0555,0.0704,-0.0811,-0.0185,0.0061,-0.0053,-2.4485,1.4003,-3.1135
2024-10-11T12:57:01.179Z,0.0065,-0.9881,0.1771,-0.0555,0.0704,-0.0811,-0.0156,0.0039,-0.0011,-2.4485,1.4003,-3.1135
2024-10-11T12:57:01.189Z,0.0073,-0.9902,0.1741,-0.1180,0.0454,-0.0495,-0.0157,0.0090,0.0006,-2.4483,1.4008,-3.1138
2024-10-11T12:57:01.199Z,0.0024,-0.9863,0.1675,-0.1180,0.0454,-0.0495,-0.0158,0.0160,0.0012,-2.4483,1.4008,-3.1138
2024-10-11T12:57:01.209Z,0.0021,-0.9816,0.1651,-0.1180,0.0454,-0.0495,-0.0157,0.0172,0.0030,-2.4483,1.4008,-3.1138
2024-10-11T12:57:01.219Z,0.0066,-0.9795,0.1689,-0.1120,-0.0607,-0.0027,-0.0180,0.0197,0.0028,-2.4487,1.4013,-3.1132
2024-10-11T12:57:01.228Z,0.0018,-0.9776,0.1704,-0.1120,-0.0607,-0.0027,-0.0202,0.0189,0.0036,-2.4487,1.4013,-3.1132
2024-10-11T12:57:01.239Z,0.0034,-0.9776,0.1686,-0.1120,-0.0607,-0.0027,-0.0193,0.0179,0.0042,-2.4487,1.4013,-3.1132
2024-10-11T12:57:01.249Z,0.0045,-0.9794,0.1662,-0.0925,-0.0620,0.0186,-0.0186,0.0186,0.0055,-2.4494,1.4018,-3.1121
2024-10-11T12:57:01.259Z,0.0015,-0.9793,0.1675,-0.0925,-0.0620,0.0186,-0.0209,0.0226,0.0059,-2.4494,1.4018,-3.1121
2024-10-11T12:57:01.269Z,-0.0017,-0.9785,0.1621,-0.0925,-0.0620,0.0186,-0.0173,0.0219,0.0078,-2.4494,1.4018,-3.1121
2024-10-11T12:57:01.278Z,0.0019,-0.9746,0.1595,-0.0694,-0.1106,0.0797,-0.0152,0.0229,0.0072,-2.4505,1.4023,-3.1106
2024-10-11T12:57:01.289Z,-0.0020,-0.9745,0.1566,-0.0694,-0.1106,0.0797,-0.0135,0.0201,0.0079,-2.4505,1.4023,-3.1106
2024-10-11T12:57:01.299Z,-0.0043,-0.9774,0.1507,-0.0694,-0.1106,0.0797,-0.0109,0.0211,0.0079,-2.4505,1.4023,-3.1106
2024-10-11T12:57:01.309Z,-0.0035,-0.9800,0.1505,-0.0185,-0.0580,0.1649,-0.0068,0.0176,0.0082,-2.4517,1.4026,-3.1091
2024-10-11T12:57:01.319Z,-0.0002,-0.9814,0.1492,-0.0185,-0.0580,0.1649,-0.0053,0.0171,0.0107,-2.4517,1.4026,-3.1091
2024-10-11T12:57:01.329Z,0.0029,-0.9853,0.1527,-0.0185,-0.0580,0.1649,-0.0038,0.0180,0.0132,-2.4517,1.4026,-3.1091
2024-10-11T12:57:01.339Z,0.0021,-0.9854,0.1575,-0.0762,-0.0046,0.0946,-0.0033,0.0146,0.0140,-2.4531,1.4028,-3.1075
2024-10-11T12:57:01.349Z,-0.0003,-0.9846,0.1577,-0.0762,-0.0046,0.0946,-0.0025,0.0190,0.0104,-2.4531,1.4028,-3.1075
2024-10-11T12:57:01.358Z,-0.0061,-0.9853,0.1576,-0.0762,-0.0046,0.0946,0.0015,0.0138,0.0100,-2.4531,1.4028,-3.1075
2024-10-11T12:57:01.369Z,-0.0013,-0.9849,0.1531,-0.0464,-0.0104,0.1375,0.0015,0.0138,0.0100,-2.4549,1.4028,-3.1054
2024-10-11T12:57:01.379Z,-0.0091,-0.9829,0.1571,-0.0464,-0.0104,0.1375,0.0022,0.0092,0.0075,-2.4549,1.4028,-3.1054
2024-10-11T12:57:01.390Z,-0.0087,-0.9805,0.1601,-0.0464,-0.0104,0.1375,0.0057,0.0090,0.0111,-2.4549,1.4028,-3.1054
2024-10-11T12:57:01.399Z,-0.0053,-0.9814,0.1605,-0.0099,-0.0445,0.0644,0.0046,0.0086,0.0095,-2.4564,1.4028,-3.1039
2024-10-11T12:57:01.409Z,-0.0097,-0.9851,0.1579,-0.0099,-0.0445,0.0644,0.0053,0.0056,0.0081,-2.4564,1.4028,-3.1039
2024-10-11T12:57:01.419Z,-0.0129,-0.9877,0.1577,-0.0099,-0.0445,0.0644,0.0076,0.0041,0.0078,-2.4564,1.4028,-3.1039
2024-10-11T12:57:01.428Z,-0.0173,-0.9850,0.1644,0.1065,-0.0090,0.0274,0.0084,0.0024,0.0067,-2.4574,1.4027,-3.1030
2024-10-11T12:57:01.439Z,-0.0142,-0.9857,0.1655,0.1065,-0.0090,0.0274,0.0069,0.0009,0.0051,-2.4574,1.4027,-3.1030
2024-10-11T12:57:01.449Z,-0.0119,-0.9821,0.1661,0.1065,-0.0090,0.0274,0.0028,-0.0026,0.0048,-2.4574,1.4027,-3.1030
2024-10-11T12:57:01.459Z,-0.0109,-0.9802,0.1722,0.0425,-0.0556,-0.0485,0.0070,-0.0012,0.0028,-2.4583,1.4026,-3.1023
2024-10-11T12:57:01.469Z,-0.0128,-0.9825,0.1682,0.0425,-0.0556,-0.0485,0.0062,-0.0026,0.0017,-2.4583,1.4026,-3.1023
2024-10-11T12:57:01.478Z,-0.0105,-0.9886,0.1653,0.0425,-0.0556,-0.0485,0.0048,-0.0017,0.0050,-2.4583,1.4026,-3.1023
2024-10-11T12:57:01.489Z,-0.0093,-0.9951,0.1656,0.0252,0.0903,0.0173,0.0027,-0.0042,0.0024,-2.4595,1.4025,-3.1015
2024-10-11T12:57:01.499Z,-0.0126,-0.9984,0.1704,0.0252,0.0903,0.0173,0.0050,-0.0027,0.0033,-2.4595,1.4025,-3.1015
2024-10-11T12:57:01.509Z,-0.0178,-1.0008,0.1787,0.0252,0.0903,0.0173,0.0034,-0.0080,0.0000,-2.4595,1.4025,-3.1015
2024-10-11T12:57:01.519Z,-0.0188,-0.9994,0.1810,0.1179,0.1333,-0.1322,0.0000,-0.0113,-0.0012,-2.4601,1.4024,-3.1013
2024-10-11T12:57:01.528Z,-0.0203,-0.9973,0.1835,0.1179,0.1333,-0.1322,-0.0027,-0.0105,-0.0032,-2.4601,1.4024,-3.1013
2024-10-11T12:57:01.539Z,-0.0241,-0.9921,0.1854,0.1179,0.1333,-0.1322,-0.0041,-0.0076,-0.0017,-2.4601,1.4024,-3.1013
2024-10-11T12:57:01.549Z,-0.0202,-0.9949,0.1827,0.1328,0.0887,-0.1502,-0.0092,-0.0031,-0.0052,-2.4599,1.4025,-3.1020
2024-10-11T12:57:01.559Z,-0.0138,-0.9935,0.1826,0.1328,0.0887,-0.1502,-0.0111,-0.0018,-0.0029,-2.4599,1.4025,-3.1020
2024-10-11T12:57:01.569Z,-0.0043,-0.9964,0.1797,0.1328,0.0887,-0.1502,-0.0118,-0.0013,-0.0019,-2.4599,1.4025,-3.1020
2024-10-11T12:57:01.578Z,-0.0033,-0.9934,0.1766,-0.0322,0.0732,-0.0925,-0.0154,-0.0024,-0.0019,-2.4599,1.4027,-3.1024
2024-10-11T12:57:01.589Z,-0.0049,-0.9911,0.1777,-0.0322,0.0732,-0.0925,-0.0147,-0.0026,0.0003,-2.4599,1.4027,-3.1024
2024-10-11T12:57:01.599Z,-0.0064,-0.9929,0.1678,-0.0322,0.0732,-0.0925,-0.0130,0.0033,-0.0012,-2.4599,1.4027,-3.1024
2024-10-11T12:57:01.609Z,-0.0119,-0.9939,0.1670,0.0528,0.0776,-0.0025,-0.0144,0.0034,-0.0008,-2.4602,1.4031,-3.1022
2024-10-11T12:57:01.619Z,-0.0125,-0.9927,0.1628,0.0528,0.0776,-0.0025,-0.0193,0.0042,-0.0011,-2.4602,1.4031,-3.1022
2024-10-11T12:57:01.629Z,-0.0134,-0.9887,0.1716,0.0528,0.0776,-0.0025,-0.0193,0.0038,-0.0014,-2.4602,1.4031,-3.1022
2024-10-11T12:57:01.639Z,-0.0114,-0.9841,0.1719,0.0477,-0.0186,-0.0544,-0.0193,0.0106,-0.0026,-2.4604,1.4035,-3.1021
2024-10-11T12:57:01.649Z,-0.0087,-0.9773,0.1685,0.0477,-0.0186,-0.0544,-0.0184,0.0089,-0.0030,-2.4604,1.4035,-3.1021
2024-10-11T12:57:01.659Z,-0.0072,-0.9777,0.1635,0.0477,-0.0186,-0.0544,-0.0184,0.0062,-0.0020,-2.4604,1.4035,-3.1021
2024-10-11T12:57:01.669Z,-0.0065,-0.9779,0.1618,-0.0003,-0.0809,0.0403,-0.0149,0.0071,0.0014,-2.4604,1.4040,-3.1022
2024-10-11T12:57:01.678Z,-0.0058,-0.9803,0.1580,-0.0003,-0.0809,0.0403,-0.0176,0.0107,-0.0015,-2.4604,1.4040,-3.1022
2024-10-11T12:57:01.689Z,-0.0033,-0.9806,0.1564,-0.0003,-0.0809,0.0403,-0.0143,0.0129,0.0006,-2.4604,1.4040,-3.1022
2024-10-11T12:57:01.699Z,-0.0019,-0.9771,0.1585,-0.0461,-0.0891,0.0684,-0.0156,0.0181,0.0005,-2.4607,1.4045,-3.1018
2024-10-11T12:57:01.709Z,-0.0037,-0.9729,0.1518,-0.0461,-0.0891,0.0684,-0.0132,0.0157,0.0019,-2.4607,1.4045,-3.1018
2024-10-11T12:57:01.719Z,-0.0062,-0.9743,0.1544,-0.0461,-0.0891,0.0684,-0.0111,0.0135,0.0024,-2.4607,1.4045,-3.1018
2024-10-11T12:57:01.728Z,-0.0086,-0.9798,0.1501,0.0182,-0.0628,0.1476,-0.0101,0.0116,0.0004,-2.4615,1.4048,-3.1009
2024-10-11T12:57:01.739Z,-0.0114,-0.9818,0.1547,0.0182,-0.0628,0.1476,-0.0050,0.0130,0.0018,-2.4615,1.4048,-3.1009
2024-10-11T12:57:01.749Z,-0.0027,-0.9859,0.1529,0.0182,-0.0628,0.1476,-0.0086,0.0149,0.0006,-2.4615,1.4048,-3.1009
2024-10-11T12:57:01.759Z,0.0016,-0.9877,0.1564,-0.0826,0.0144,0.0841,-0.0036,0.0137,0.0064,-2.4621,1.4049,-3.1001
2024-10-11T12:57:01.768Z,0.0024,-0.9859,0.1544,-0.0826,0.0144,0.0841,-0.0025,0.0137,0.0054,-2.4621,1.4049,-3.1001
2024-10-11T12:57:01.778Z,-0.0027,-0.9845,0.1456,-0.0826,0.0144,0.0841,-0.0005,0.0155,0.0037,-2.4621,1.4049,-3.1001
2024-10-11T12:57:01.789Z,-0.0100,-0.9867,0.1446,0.0294,0.0043,0.1988,0.0014,0.0092,0.0050,-2.4628,1.4050,-3.0993
2024-10-11T12:57:01.799Z,-0.0091,-0.9822,0.1539,0.0294,0.0043,0.1988,0.0019,0.0114,0.0001,-2.4628,1.4050,-3.0993
2024-10-11T12:57:01.809Z,-0.0133,-0.9773,0.1570,0.0294,0.0043,0.1988,0.0010,0.0089,0.0029,-2.4628,1.4050,-3.0993
2024-10-11T12:57:01.820Z,-0.0082,-0.9788,0.1590,0.0108,-0.0739,0.0576,0.0069,0.0076,0.0037,-2.4636,1.4050,-3.0985
2024-10-11T12:57:01.828Z,-0.0079,-0.9808,0.1582,0.0108,-0.0739,0.0576,0.0029,0.0005,0.0041,-2.4636,1.4050,-3.0985
2024-10-11T12:57:01.839Z,-0.0124,-0.9833,0.1596,0.0108,-0.0739,0.0576,0.0033,0.0047,-0.0013,-2.4636,1.4050,-3.0985
2024-10-11T12:57:01.849Z,-0.0211,-0.9837,0.1599,0.1374,-0.0258,0.0486,0.0028,0.0058,-0.0016,-2.4633,1.4050,-3.0987
2024-10-11T12:57:01.859Z,-0.0164,-0.9815,0.1619,0.1374,-0.0258,0.0486,0.0063,0.0072,-0.0040,-2.4633,1.4050,-3.0987
2024-10-11T12:57:01.869Z,-0.0105,-0.9812,0.1642,0.1374,-0.0258,0.0486,0.0050,0.0022,-0.0016,-2.4633,1.4050,-3.0987
2024-10-11T12:57:01.878Z,-0.0065,-0.9831,0.1634,-0.0046,-0.0316,0.0145,0.0018,0.0065,-0.0038,-2.4631,1.4050,-3.0991
2024-10-11T12:57:01.889Z,-0.0085,-0.9837,0.1605,-0.0046,-0.0316,0.0145,0.0058,-0.0020,-0.0039,-2.4631,1.4050,-3.0991
2024-10-11T12:57:01.899Z,-0.0122,-0.9873,0.1669,-0.0046,-0.0316,0.0145,0.0082,0.0009,-0.0038,-2.4631,1.4050,-3.0991
2024-10-11T12:57:01.909Z,-0.0193,-0.9889,0.1636,0.1214,0.0258,0.0143,0.0031,-0.0001,-0.0075,-2.4623,1.4049,-3.0999
2024-10-11T12:57:01.919Z,-0.0206,-0.9915,0.1696,0.1214,0.0258,0.0143,0.0053,0.0023,-0.0085,-2.4623,1.4049,-3.0999
2024-10-11T12:57:01.928Z,-0.0182,-0.9893,0.1790,0.1214,0.0258,0.0143,0.0051,0.0002,-0.0104,-2.4623,1.4049,-3.0999
2024-10-11T12:57:01.939Z,-0.0224,-0.9911,0.1721,0.1543,0.0479,-0.0685,0.0002,-0.0011,-0.0110,-2.4612,1.4048,-3.1013
2024-10-11T12:57:01.949Z,-0.0100,-0.9966,0.1725,0.1543,0.0479,-0.0685,0.0020,0.0010,-0.0103,-2.4612,1.4048,-3.1013
2024-10-11T12:57:01.959Z,-0.0140,-0.9953,0.1694,0.1543,0.0479,-0.0685,-0.0025,0.0056,-0.0117,-2.4612,1.4048,-3.1013
2024-10-11T12:57:01.969Z,-0.0094,-0.9936,0.1667,0.0300,0.0720,-0.0152,0.0018,0.0056,-0.0083,-2.4597,1.4048,-3.1029
2024-10-11T12:57:01.978Z,-0.0094,-0.9935,0.1656,0.0300,0.0720,-0.0152,-0.0009,0.0102,-0.0114,-2.4597,1.4048,-3.1029
2024-10-11T12:57:01.989Z,-0.0103,-0.9966,0.1671,0.0300,0.0720,-0.0152,0.0006,0.0070,-0.0109,-2.4597,1.4048,-3.1029
2024-10-11T12:57:01.999Z,-0.0036,-0.9963,0.1721,-0.0250,0.0984,-0.0686,-0.0031,0.0126,-0.0122,-2.4584,1.4048,-3.1042
2024-10-11T12:57:02.009Z,-0.0063,-0.9946,0.1783,-0.0250,0.0984,-0.0686,-0.0033,0.0144,-0.0085,-2.4584,1.4048,-3.1042
2024-10-11T12:57:02.019Z,-0.0016,-0.9964,0.1793,-0.0250,0.0984,-0.0686,-0.0048,0.0170,-0.0093,-2.4584,1.4048,-3.1042
2024-10-11T12:57:02.028Z,-0.0021,-0.9978,0.1722,-0.0386,0.1129,-0.0707,-0.0089,0.0164,-0.0088,-2.4573,1.4049,-3.1051
2024-10-11T12:57:02.038Z,-0.0064,-0.9939,0.1709,-0.0386,0.1129,-0.0707,-0.0075,0.0140,-0.0033,-2.4573,1.4049,-3.1051
2024-10-11T12:57:02.049Z,-0.0001,-0.9870,0.1708,-0.0386,0.1129,-0.0707,-0.0111,0.0162,-0.0060,-2.4573,1.4049,-3.1051
2024-10-11T12:57:02.059Z,-0.0006,-0.9825,0.1756,-0.0518,-0.0379,-0.1067,-0.0127,0.0202,-0.0023,-2.4564,1.4052,-3.1056
2024-10-11T12:57:02.070Z,0.0040,-0.9778,0.1685,-0.0518,-0.0379,-0.1067,-0.0130,0.0198,-0.0037,-2.4564,1.4052,-3.1056
2024-10-11T12:57:02.078Z,-0.0010,-0.9778,0.1736,-0.0518,-0.0379,-0.1067,-0.0127,0.0197,-0.0036,-2.4564,1.4052,-3.1056
2024-10-11T12:57:02.089Z,-0.0103,-0.9774,0.1641,0.0437,-0.0875,0.0034,-0.0106,0.0157,-0.0037,-2.4560,1.4055,-3.1058
2024-10-11T12:57:02.099Z,-0.0119,-0.9813,0.1536,0.0437,-0.0875,0.0034,-0.0082,0.0154,-0.0042,-2.4560,1.4055,-3.1058
2024-10-11T12:57:02.109Z,-0.0116,-0.9780,0.1574,0.0437,-0.0875,0.0034,-0.0090,0.0140,-0.0052,-2.4560,1.4055,-3.1058
2024-10-11T12:57:02.119Z,-0.0025,-0.9753,0.1534,-0.0324,-0.1092,0.1056,-0.0105,0.0193,-0.0032,-2.4553,1.4057,-3.1062
2024-10-11T12:57:02.128Z,-0.0000,-0.9766,0.1584,-0.0324,-0.1092,0.1056,-0.0088,0.0175,-0.0021,-2.4553,1.4057,-3.1062
2024-10-11T12:57:02.139Z,-0.0020,-0.9782,0.1610,-0.0324,-0.1092,0.1056,-0.0094,0.0203,-0.0039,-2.4553,1.4057,-3.1062
2024-10-11T12:57:02.149Z,-0.0057,-0.9819,0.1580,-0.0005,-0.0442,0.0588,-0.0077,0.0192,-0.0018,-2.4546,1.4060,-3.1066
2024-10-11T12:57:02.159Z,-0.0073,-0.9788,0.1537,-0.0005,-0.0442,0.0588,-0.0055,0.0206,-0.0053,-2.4546,1.4060,-3.1066
2024-10-11T12:57:02.169Z,-0.0116,-0.9821,0.1521,-0.0005,-0.0442,0.0588,-0.0033,0.0144,-0.0058,-2.4546,1.4060,-3.1066
2024-10-11T12:57:02.178Z,-0.0034,-0.9826,0.1543,-0.0221,-0.0381,0.0933,-0.0048,0.0109,-0.0036,-2.4540,1.4061,-3.1070
2024-10-11T12:57:02.188Z,0.0002,-0.9831,0.1534,-0.0221,-0.0381,0.0933,-0.0028,0.0094,-0.0019,-2.4540,1.4061,-3.1070
2024-10-11T12:57:02.199Z,-0.0001,-0.9872,0.1484,-0.0221,-0.0381,0.0933,-0.0034,0.0152,-0.0006,-2.4540,1.4061,-3.1070
2024-10-11T12:57:02.209Z,-0.0079,-0.9855,0.1583,0.0219,-0.0099,0.0530,-0.0026,0.0164,-0.0034,-2.4536,1.4063,-3.1071
2024-10-11T12:57:02.219Z,-0.0081,-0.9844,0.1552,0.0219,-0.0099,0.0530,-0.0025,0.0158,-0.0049,-2.4536,1.4063,-3.1071
2024-10-11T12:57:02.228Z,-0.0109,-0.9808,0.1569,0.0219,-0.0099,0.0530,-0.0025,0.0139,-0.0057,-2.4536,1.4063,-3.1071
2024-10-11T12:57:02.238Z,-0.0098,-0.9793,0.1671,0.0415,-0.0711,-0.0336,-0.0018,0.0153,-0.0078,-2.4529,1.4063,-3.1077
2024-10-11T12:57:02.249Z,-0.0067,-0.9857,0.1647,0.0415,-0.0711,-0.0336,0.0023,0.0113,-0.0064,-2.4529,1.4063,-3.1077
2024-10-11T12:57:02.258Z,-0.0111,-0.9904,0.1578,0.0415,-0.0711,-0.0336,-0.0000,0.0096,-0.0082,-2.4529,1.4063,-3.1077
2024-10-11T12:57:02.270Z,-0.0119,-0.9930,0.1539,0.0642,0.0635,0.0941,0.0020,0.0116,-0.0063,-2.4519,1.4065,-3.1085
2024-10-11T12:57:02.278Z,-0.0127,-0.9926,0.1568,0.0642,0.0635,0.0941,0.0024,0.0123,-0.0048,-2.4519,1.4065,-3.1085
2024-10-11T12:57:02.289Z,-0.0110,-0.9915,0.1655,0.0642,0.0635,0.0941,0.0007,0.0100,-0.0070,-2.4519,1.4065,-3.1085
2024-10-11T12:57:02.300Z,-0.0044,-0.9900,0.1696,-0.0085,0.0344,-0.0599,-0.0035,0.0150,-0.0050,-2.4507,1.4065,-3.1096
2024-10-11T12:57:02.309Z,-0.0083,-0.9882,0.1795,-0.0085,0.0344,-0.0599,-0.0038,0.0129,-0.0084,-2.4507,1.4065,-3.1096
2024-10-11T12:57:02.319Z,-0.0118,-0.9914,0.1789,-0.0085,0.0344,-0.0599,-0.0032,0.0096,-0.0087,-2.4507,1.4065,-3.1096
2024-10-11T12:57:02.328Z,-0.0155,-0.9909,0.1751,0.1021,0.0429,-0.1150,-0.0055,0.0078,-0.0094,-2.4496,1.4066,-3.1106
2024-10-11T12:57:02.338Z,-0.0147,-0.9910,0.1775,0.1021,0.0429,-0.1150,-0.0073,0.0124,-0.0127,-2.4496,1.4066,-3.1106
2024-10-11T12:57:02.348Z,-0.0142,-0.9922,0.1708,0.1021,0.0429,-0.1150,-0.0061,0.0129,-0.0098,-2.4496,1.4066,-3.1106
2024-10-11T12:57:02.359Z,-0.0099,-0.9925,0.1767,0.0498,0.0579,-0.1332,-0.0093,0.0192,-0.0123,-2.4479,1.4069,-3.1121
2024-10-11T12:57:02.369Z,-0.0049,-0.9980,0.1722,0.0498,0.0579,-0.1332,-0.0116,0.0204,-0.0122,-2.4479,1.4069,-3.1121
2024-10-11T12:57:02.378Z,-0.0045,-1.0013,0.1750,0.0498,0.0579,-0.1332,-0.0105,0.0178,-0.0125,-2.4479,1.4069,-3.1121
2024-10-11T12:57:02.388Z,-0.0065,-0.9997,0.1765,0.0195,0.1285,-0.1336,-0.0129,0.0135,-0.0127,-2.4462,1.4071,-3.1136
2024-10-11T12:57:02.399Z,-0.0064,-0.9986,0.1761,0.0195,0.1285,-0.1336,-0.0143,0.0147,-0.0093,-2.4462,1.4071,-3.1136
2024-10-11T12:57:02.409Z,-0.0039,-0.9970,0.1749,0.0195,0.1285,-0.1336,-0.0147,0.0148,-0.0107,-2.4462,1.4071,-3.1136
2024-10-11T12:57:02.419Z,-0.0034,-0.9969,0.1762,-0.0089,0.0999,-0.1349,-0.0192,0.0191,-0.0094,-2.4445,1.4075,-3.1150
2024-10-11T12:57:02.428Z,-0.0008,-0.9958,0.1777,-0.0089,0.0999,-0.1349,-0.0214,0.0203,-0.0083,-2.4445,1.4075,-3.1150
2024-10-11T12:57:02.438Z,-0.0024,-0.9975,0.1752,-0.0089,0.0999,-0.1349,-0.0242,0.0214,-0.0095,-2.4445,1.4075,-3.1150
2024-10-11T12:57:02.449Z,-0.0001,-1.0004,0.1706,-0.0395,0.1340,-0.0840,-0.0241,0.0190,-0.0084,-2.4432,1.4080,-3.1160
2024-10-11T12:57:02.459Z,-0.0028,-0.9931,0.1722,-0.0395,0.1340,-0.0840,-0.0211,0.0171,-0.0102,-2.4432,1.4080,-3.1160
2024-10-11T12:57:02.469Z,0.0014,-0.9893,0.1696,-0.0395,0.1340,-0.0840,-0.0239,0.0137,-0.0073,-2.4432,1.4080,-3.1160
2024-10-11T12:57:02.478Z,0.0002,-0.9847,0.1638,-0.0407,-0.0217,-0.0234,-0.0228,0.0188,-0.0077,-2.4418,1.4086,-3.1170
2024-10-11T12:57:02.488Z,0.0065,-0.9812,0.1664,-0.0407,-0.0217,-0.0234,-0.0260,0.0206,-0.0055,-2.4418,1.4086,-3.1170
2024-10-11T12:57:02.499Z,0.0105,-0.9771,0.1574,-0.0407,-0.0217,-0.0234,-0.0256,0.0208,-0.0056,-2.4418,1.4086,-3.1170
2024-10-11T12:57:02.509Z,0.0052,-0.9786,0.1608,-0.0883,-0.0821,-0.0001,-0.0255,0.0188,-0.0040,-2.4409,1.4093,-3.1177
2024-10-11T12:57:02.520Z,0.0049,-0.9798,0.1613,-0.0883,-0.0821,-0.0001,-0.0210,0.0152,-0.0019,-2.4409,1.4093,-3.1177
2024-10-11T12:57:02.528Z,0.0031,-0.9825,0.1528,-0.0883,-0.0821,-0.0001,-0.0206,0.0121,-0.0027,-2.4409,1.4093,-3.1177
2024-10-11T12:57:02.538Z,0.0110,-0.9785,0.1557,-0.1456,-0.0839,0.0434,-0.0221,0.0117,-0.0017,-2.4405,1.4099,-3.1179
2024-10-11T12:57:02.549Z,0.0123,-0.9796,0.1600,-0.1456,-0.0839,0.0434,-0.0208,0.0102,0.0006,-2.4405,1.4099,-3.1179
2024-10-11T12:57:02.559Z,0.0159,-0.9803,0.1600,-0.1456,-0.0839,0.0434,-0.0217,0.0164,0.0041,-2.4405,1.4099,-3.1179
2024-10-11T12:57:02.569Z,0.0102,-0.9809,0.1469,-0.1381,-0.0615,0.1236,-0.0233,0.0172,0.0034,-2.4407,1.4105,-3.1175
2024-10-11T12:57:02.578Z,0.0057,-0.9791,0.1518,-0.1381,-0.0615,0.1236,-0.0212,0.0151,0.0042,-2.4407,1.4105,-3.1175
2024-10-11T12:57:02.588Z,0.0073,-0.9749,0.1577,-0.1381,-0.0615,0.1236,-0.0187,0.0136,0.0038,-2.4407,1.4105,-3.1175
2024-10-11T12:57:02.598Z,0.0059,-0.9787,0.1574,-0.0964,-0.0838,0.0160,-0.0167,0.0059,0.0042,-2.4411,1.4111,-3.1170
2024-10-11T12:57:02.609Z,0.0083,-0.9804,0.1617,-0.0964,-0.0838,0.0160,-0.0158,0.0027,0.0061,-2.4411,1.4111,-3.1170
2024-10-11T12:57:02.619Z,0.0069,-0.9828,0.1593,-0.0964,-0.0838,0.0160,-0.0150,0.0018,0.0065,-2.4411,1.4111,-3.1170
2024-10-11T12:57:02.629Z,0.0047,-0.9839,0.1627,-0.0858,-0.0334,-0.0412,-0.0171,0.0070,0.0045,-2.4417,1.4116,-3.1164
2024-10-11T12:57:02.638Z,0.0020,-0.9839,0.1566,-0.0858,-0.0334,-0.0412,-0.0172,0.0079,0.0053,-2.4417,1.4116,-3.1164
2024-10-11T12:57:02.649Z,0.0028,-0.9853,0.1628,-0.0858,-0.0334,-0.0412,-0.0160,0.0030,0.0062,-2.4417,1.4116,-3.1164
2024-10-11T12:57:02.659Z,0.0049,-0.9826,0.1656,-0.0872,-0.0474,-0.0749,-0.0177,-0.0003,0.0063,-2.4418,1.4121,-3.1165
2024-10-11T12:57:02.669Z,0.0050,-0.9867,0.1727,-0.0872,-0.0474,-0.0749,-0.0164,-0.0034,0.0050,-2.4418,1.4121,-3.1165
2024-10-11T12:57:02.678Z,-0.0015,-0.9882,0.1676,-0.0872,-0.0474,-0.0749,-0.0165,-0.0051,0.0044,-2.4418,1.4121,-3.1165
2024-10-11T12:57:02.689Z,0.0012,-0.9882,0.1687,-0.0515,0.0067,-0.1095,-0.0149,-0.0052,0.0019,-2.4425,1.4126,-3.1161
2024-10-11T12:57:02.699Z,-0.0008,-0.9863,0.1724,-0.0515,0.0067,-0.1095,-0.0204,-0.0028,0.0035,-2.4425,1.4126,-3.1161
2024-10-11T12:57:02.708Z,-0.0019,-0.9835,0.1818,-0.0515,0.0067,-0.1095,-0.0234,-0.0040,0.0068,-2.4425,1.4126,-3.1161
2024-10-11T12:57:02.720Z,-0.0042,-0.9846,0.1903,0.0017,-0.0299,-0.3277,-0.0284,-0.0023,0.0031,-2.4432,1.4132,-3.1158
2024-10-11T12:57:02.729Z,-0.0044,-0.9878,0.1839,0.0017,-0.0299,-0.3277,-0.0309,-0.0048,0.0027,-2.4432,1.4132,-3.1158
2024-10-11T12:57:02.740Z,0.0007,-0.9912,0.1773,0.0017,-0.0299,-0.3277,-0.0304,-0.0049,0.0031,-2.4432,1.4132,-3.1158
2024-10-11T12:57:02.749Z,0.0012,-0.9926,0.1712,-0.0519,0.0478,-0.1467,-0.0307,-0.0062,0.0047,-2.4437,1.4139,-3.1157
2024-10-11T12:57:02.760Z,-0.0003,-0.9945,0.1654,-0.0519,0.0478,-0.1467,-0.0295,-0.0082,0.0044,-2.4437,1.4139,-3.1157
2024-10-11T12:57:02.769Z,-0.0003,-0.9945,0.1654,-0.0519,0.0478,-0.1467,-0.0269,-0.0080,0.0045,-2.4437,1.4139,-3.1157
2024-10-11T12:57:02.778Z,-0.0031,-1.0006,0.1758,-0.0098,0.1251,-0.2002,-0.0273,-0.0027,0.0042,-2.4449,1.4147,-3.1149
2024-10-11T12:57:02.789Z,-0.0055,-1.0013,0.1715,-0.0098,0.1251,-0.2002,-0.0316,-0.0000,0.0042,-2.4449,1.4147,-3.1149
2024-10-11T12:57:02.800Z,-0.0063,-0.9968,0.1736,-0.0098,0.1251,-0.2002,-0.0334,-0.0026,0.0016,-2.4449,1.4147,-3.1149
2024-10-11T12:57:02.810Z,-0.0034,-0.9967,0.1716,0.0205,0.0864,-0.1858,-0.0337,-0.0061,0.0009,-2.4459,1.4155,-3.1143
2024-10-11T12:57:02.819Z,-0.0034,-0.9967,0.1716,0.0205,0.0864,-0.1858,-0.0325,-0.0087,0.0049,-2.4459,1.4155,-3.1143
2024-10-11T12:57:02.828Z,-0.0026,-0.9953,0.1816,0.0205,0.0864,-0.1858,-0.0381,-0.0085,0.0036,-2.4459,1.4155,-3.1143
2024-10-11T12:57:02.838Z,-0.0007,-0.9938,0.1766,-0.0349,0.0556,-0.2244,-0.0387,0.0000,0.0064,-2.4467,1.4164,-3.1139
2024-10-11T12:57:02.850Z,0.0066,-0.9957,0.1754,-0.0349,0.0556,-0.2244,-0.0388,0.0009,0.0084,-2.4467,1.4164,-3.1139
2024-10-11T12:57:02.860Z,0.0027,-0.9944,0.1712,-0.0349,0.0556,-0.2244,-0.0415,0.0030,0.0095,-2.4467,1.4164,-3.1139
2024-10-11T12:57:02.869Z,0.0027,-0.9944,0.1712,-0.0703,0.0601,-0.1823,-0.0406,0.0002,0.0061,-2.4485,1.4175,-3.1125
2024-10-11T12:57:02.878Z,-0.0066,-0.9872,0.1725,-0.0703,0.0601,-0.1823,-0.0412,-0.0032,0.0074,-2.4485,1.4175,-3.1125
2024-10-11T12:57:02.888Z,-0.0032,-0.9870,0.1642,-0.0703,0.0601,-0.1823,-0.0409,-0.0049,0.0071,-2.4485,1.4175,-3.1125
2024-10-11T12:57:02.898Z,-0.0040,-0.9862,0.1593,-0.0068,-0.0217,-0.0760,-0.0397,-0.0038,0.0076,-2.4506,1.4186,-3.1108
2024-10-11T12:57:02.910Z,-0.0028,-0.9802,0.1478,-0.0068,-0.0217,-0.0760,-0.0375,-0.0011,0.0094,-2.4506,1.4186,-3.1108
2024-10-11T12:57:02.921Z,-0.0028,-0.9802,0.1478,-0.0035,-0.0901,-0.0015,-0.0377,0.0042,0.0071,-2.4524,1.4196,-3.1092
2024-10-11T12:57:02.928Z,-0.0045,-0.9794,0.1507,-0.0035,-0.0901,-0.0015,-0.0381,0.0019,0.0099,-2.4524,1.4196,-3.1092
2024-10-11T12:57:02.939Z,-0.0066,-0.9792,0.1504,-0.0035,-0.0901,-0.0015,-0.0362,0.0020,0.0096,-2.4524,1.4196,-3.1092
2024-10-11T12:57:02.949Z,-0.0075,-0.9817,0.1370,-0.0035,-0.0901,-0.0015,-0.0322,0.0046,0.0098,-2.4524,1.4196,-3.1092
2024-10-11T12:57:02.959Z,-0.0052,-0.9751,0.1348,-0.0698,-0.1017,0.0972,-0.0270,-0.0015,0.0125,-2.4545,1.4205,-3.1075
2024-10-11T12:57:02.969Z,-0.0052,-0.9751,0.1348,-0.0698,-0.1017,0.0972,-0.0250,-0.0041,0.0107,-2.4545,1.4205,-3.1075
2024-10-11T12:57:02.978Z,-0.0086,-0.9756,0.1371,-0.0698,-0.1017,0.0972,-0.0203,-0.0012,0.0076,-2.4545,1.4205,-3.1075
2024-10-11T12:57:02.988Z,-0.0071,-0.9684,0.1408,0.0168,-0.2003,0.0810,-0.0241,0.0054,0.0093,-2.4567,1.4211,-3.1056
2024-10-11T12:57:03.000Z,-0.0124,-0.9670,0.1459,0.0168,-0.2003,0.0810,-0.0212,0.0056,0.0085,-2.4567,1.4211,-3.1056
2024-10-11T12:57:03.009Z,-0.0093,-0.9716,0.1453,0.0168,-0.2003,0.0810,-0.0220,0.0029,0.0075,-2.4567,1.4211,-3.1056
2024-10-11T12:57:03.020Z,-0.0072,-0.9730,0.1493,0.0369,-0.1698,0.0309,-0.0209,0.0014,0.0076,-2.4585,1.4217,-3.1041
2024-10-11T12:57:03.028Z,-0.0072,-0.9730,0.1493,0.0369,-0.1698,0.0309,-0.0154,-0.0029,0.0065,-2.4585,1.4217,-3.1041
2024-10-11T12:57:03.040Z,-0.0069,-0.9799,0.1398,0.0369,-0.1698,0.0309,-0.0149,-0.0066,0.0055,-2.4585,1.4217,-3.1041
2024-10-11T12:57:03.049Z,-0.0051,-0.9800,0.1346,0.0113,-0.0891,0.0799,-0.0098,-0.0040,0.0075,-2.4602,1.4222,-3.1028
2024-10-11T12:57:03.059Z,-0.0052,-0.9802,0.1343,0.0113,-0.0891,0.0799,-0.0081,0.0023,0.0080,-2.4602,1.4222,-3.1028
2024-10-11T12:57:03.072Z,-0.0060,-0.9787,0.1413,0.0003,-0.1011,0.0627,-0.0097,0.0018,0.0065,-2.4622,1.4225,-3.1011
2024-10-11T12:57:03.079Z,-0.0008,-0.9781,0.1498,0.0003,-0.1011,0.0627,-0.0081,-0.0000,0.0088,-2.4622,1.4225,-3.1011
2024-10-11T12:57:03.090Z,-0.0113,-0.9766,0.1549,0.0003,-0.1011,0.0627,-0.0103,0.0002,0.0086,-2.4622,1.4225,-3.1011
2024-10-11T12:57:03.099Z,-0.0178,-0.9777,0.1476,0.0003,-0.1011,0.0627,-0.0089,-0.0030,0.0060,-2.4622,1.4225,-3.1011
2024-10-11T12:57:03.109Z,-0.0121,-0.9755,0.1437,0.1138,-0.1117,-0.0017,-0.0039,-0.0074,0.0074,-2.4640,1.4227,-3.0995
2024-10-11T12:57:03.120Z,-0.0167,-0.9788,0.1390,0.1138,-0.1117,-0.0017,-0.0034,-0.0044,0.0036,-2.4640,1.4227,-3.0995
2024-10-11T12:57:03.130Z,-0.0122,-0.9821,0.1450,0.1138,-0.1117,-0.0017,-0.0057,-0.0007,0.0044,-2.4640,1.4227,-3.0995
2024-10-11T12:57:03.139Z,-0.0152,-0.9845,0.1448,0.0575,-0.0686,0.0226,-0.0028,0.0015,0.0043,-2.4651,1.4229,-3.0988
2024-10-11T12:57:03.148Z,-0.0152,-0.9845,0.1448,0.0575,-0.0686,0.0226,-0.0023,-0.0028,0.0018,-2.4651,1.4229,-3.0988
2024-10-11T12:57:03.159Z,-0.0092,-0.9882,0.1464,0.0575,-0.0686,0.0226,-0.0021,-0.0041,0.0004,-2.4651,1.4229,-3.0988
2024-10-11T12:57:03.171Z,-0.0130,-0.9939,0.1455,0.0336,0.0157,-0.0199,-0.0013,-0.0076,0.0017,-2.4656,1.4229,-3.0986
2024-10-11T12:57:03.179Z,-0.0132,-0.9929,0.1496,0.0336,0.0157,-0.0199,-0.0015,-0.0102,0.0015,-2.4656,1.4229,-3.0986
2024-10-11T12:57:03.189Z,-0.0148,-0.9937,0.1522,0.0336,0.0157,-0.0199,-0.0012,-0.0057,0.0000,-2.4656,1.4229,-3.0986
2024-10-11T12:57:03.199Z,-0.0121,-0.9954,0.1588,0.0827,0.0453,-0.0492,-0.0050,-0.0022,-0.0003,-2.4662,1.4230,-3.0984
2024-10-11T12:57:03.209Z,-0.0171,-0.9987,0.1591,0.0827,0.0453,-0.0492,-0.0057,0.0029,0.0012,-2.4662,1.4230,-3.0984
2024-10-11T12:57:03.222Z,-0.0176,-0.9953,0.1618,0.1099,0.0609,-0.1459,-0.0060,0.0024,0.0003,-2.4668,1.4232,-3.0981
2024-10-11T12:57:03.229Z,-0.0162,-0.9935,0.1629,0.1099,0.0609,-0.1459,-0.0067,-0.0005,-0.0022,-2.4668,1.4232,-3.0981
2024-10-11T12:57:03.239Z,-0.0181,-0.9944,0.1657,0.1099,0.0609,-0.1459,-0.0090,-0.0023,-0.0013,-2.4668,1.4232,-3.0981
2024-10-11T12:57:03.249Z,-0.0154,-0.9969,0.1572,0.1099,0.0609,-0.1459,-0.0104,-0.0017,-0.0018,-2.4668,1.4232,-3.0981
2024-10-11T12:57:03.259Z,-0.0152,-0.9989,0.1503,0.0883,0.0755,-0.1025,-0.0075,0.0044,-0.0023,-2.4671,1.4234,-3.0980
2024-10-11T12:57:03.270Z,-0.0120,-0.9985,0.1497,0.0883,0.0755,-0.1025,-0.0099,0.0119,-0.0014,-2.4671,1.4234,-3.0980
2024-10-11T12:57:03.279Z,-0.0185,-0.9976,0.1442,0.0883,0.0755,-0.1025,-0.0087,0.0153,-0.0025,-2.4671,1.4234,-3.0980
2024-10-11T12:57:03.289Z,-0.0223,-0.9981,0.1489,0.1186,0.0828,0.0229,-0.0092,0.0135,-0.0044,-2.4671,1.4236,-3.0980
2024-10-11T12:57:03.299Z,-0.0213,-0.9959,0.1461,0.1186,0.0828,0.0229,-0.0085,0.0139,-0.0049,-2.4671,1.4236,-3.0980
2024-10-11T12:57:03.309Z,-0.0087,-0.9920,0.1481,0.1186,0.0828,0.0229,-0.0098,0.0153,-0.0006,-2.4671,1.4236,-3.0980
2024-10-11T12:57:03.321Z,-0.0092,-0.9869,0.1420,0.0229,0.0276,-0.0176,-0.0062,0.0164,-0.0013,-2.4669,1.4238,-3.0979
2024-10-11T12:57:03.329Z,-0.0097,-0.9851,0.1388,0.0229,0.0276,-0.0176,-0.0085,0.0168,0.0001,-2.4669,1.4238,-3.0979
2024-10-11T12:57:03.339Z,-0.0090,-0.9805,0.1358,0.0229,0.0276,-0.0176,-0.0081,0.0240,-0.0032,-2.4669,1.4238,-3.0979
2024-10-11T12:57:03.349Z,-0.0058,-0.9807,0.1264,0.0251,-0.0858,0.1011,-0.0076,0.0261,0.0023,-2.4672,1.4240,-3.0972
2024-10-11T12:57:03.359Z,-0.0079,-0.9839,0.1250,0.0251,-0.0858,0.1011,-0.0027,0.0282,0.0010,-2.4672,1.4240,-3.0972
2024-10-11T12:57:03.371Z,-0.0079,-0.9839,0.1250,0.0186,0.0085,0.2205,0.0006,0.0288,0.0014,-2.4681,1.4241,-3.0959
2024-10-11T12:57:03.379Z,-0.0085,-0.9883,0.1290,0.0186,0.0085,0.2205,0.0030,0.0233,0.0002,-2.4681,1.4241,-3.0959
2024-10-11T12:57:03.389Z,-0.0116,-0.9882,0.1301,0.0186,0.0085,0.2205,0.0035,0.0210,0.0009,-2.4681,1.4241,-3.0959
2024-10-11T12:57:03.400Z,-0.0132,-0.9854,0.1304,0.0624,-0.0373,0.1542,0.0051,0.0225,-0.0002,-2.4686,1.4240,-3.0949
2024-10-11T12:57:03.409Z,-0.0154,-0.9839,0.1307,0.0624,-0.0373,0.1542,0.0023,0.0265,0.0008,-2.4686,1.4240,-3.0949
2024-10-11T12:57:03.419Z,-0.0140,-0.9875,0.1233,0.0624,-0.0373,0.1542,0.0042,0.0288,0.0005,-2.4686,1.4240,-3.0949
2024-10-11T12:57:03.428Z,-0.0108,-0.9890,0.1234,0.0624,-0.0373,0.1542,0.0095,0.0250,-0.0014,-2.4686,1.4240,-3.0949
2024-10-11T12:57:03.439Z,-0.0136,-0.9870,0.1331,0.0386,-0.0019,0.2238,0.0119,0.0238,-0.0020,-2.4686,1.4239,-3.0943
2024-10-11T12:57:03.449Z,-0.0116,-0.9864,0.1362,0.0386,-0.0019,0.2238,0.0119,0.0227,-0.0026,-2.4686,1.4239,-3.0943
2024-10-11T12:57:03.460Z,-0.0124,-0.9907,0.1402,0.0529,0.0150,0.0609,0.0156,0.0249,-0.0023,-2.4683,1.4237,-3.0941
2024-10-11T12:57:03.469Z,-0.0066,-0.9927,0.1391,0.0529,0.0150,0.0609,0.0149,0.0248,-0.0004,-2.4683,1.4237,-3.0941
2024-10-11T12:57:03.478Z,-0.0105,-0.9936,0.1390,0.0529,0.0150,0.0609,0.0099,0.0308,-0.0017,-2.4683,1.4237,-3.0941
2024-10-11T12:57:03.489Z,-0.0137,-0.9912,0.1478,0.0529,0.0150,0.0609,0.0072,0.0350,-0.0008,-2.4683,1.4237,-3.0941
2024-10-11T12:57:03.499Z,-0.0080,-0.9912,0.1556,0.0649,0.0201,-0.0107,0.0102,0.0343,-0.0022,-2.4682,1.4234,-3.0935
2024-10-11T12:57:03.508Z,-0.0073,-0.9902,0.1590,0.0649,0.0201,-0.0107,0.0070,0.0311,-0.0023,-2.4682,1.4234,-3.0935
2024-10-11T12:57:03.520Z,-0.0087,-0.9876,0.1543,0.0151,-0.0156,-0.0747,0.0057,0.0329,-0.0056,-2.4681,1.4234,-3.0930
2024-10-11T12:57:03.528Z,-0.0067,-0.9896,0.1511,0.0151,-0.0156,-0.0747,0.0048,0.0269,-0.0023,-2.4681,1.4234,-3.0930
2024-10-11T12:57:03.539Z,-0.0033,-0.9951,0.1516,0.0151,-0.0156,-0.0747,0.0070,0.0221,-0.0029,-2.4681,1.4234,-3.0930
2024-10-11T12:57:03.549Z,-0.0054,-0.9995,0.1447,-0.0172,0.1013,0.0205,0.0045,0.0227,-0.0046,-2.4677,1.4233,-3.0928
2024-10-11T12:57:03.559Z,-0.0086,-1.0007,0.1433,-0.0172,0.1013,0.0205,-0.0000,0.0251,-0.0037,-2.4677,1.4233,-3.0928
2024-10-11T12:57:03.569Z,-0.0100,-0.9987,0.1504,-0.0172,0.1013,0.0205,0.0015,0.0224,-0.0043,-2.4677,1.4233,-3.0928
2024-10-11T12:57:03.579Z,-0.0100,-0.9987,0.1504,0.0868,0.1094,0.0136,-0.0024,0.0162,-0.0090,-2.4668,1.4233,-3.0933
2024-10-11T12:57:03.589Z,-0.0118,-1.0012,0.1475,0.0868,0.1094,0.0136,-0.0004,0.0137,-0.0059,-2.4668,1.4233,-3.0933
2024-10-11T12:57:03.599Z,-0.0118,-0.9933,0.1486,0.0868,0.1094,0.0136,-0.0026,0.0136,-0.0074,-2.4668,1.4233,-3.0933
2024-10-11T12:57:03.608Z,-0.0111,-0.9912,0.1584,0.0868,0.1094,0.0136,-0.0052,0.0129,-0.0093,-2.4668,1.4233,-3.0933
2024-10-11T12:57:03.620Z,-0.0080,-0.9867,0.1537,0.0414,0.0203,-0.1143,-0.0063,0.0141,-0.0102,-2.4653,1.4233,-3.0946
2024-10-11T12:57:03.628Z,-0.0040,-0.9909,0.1508,0.0414,0.0203,-0.1143,-0.0103,0.0153,-0.0100,-2.4653,1.4233,-3.0946
