time,gFx,gFy,gFz,ax,ay,az,wx,wy,wz,yaw,pitch,roll
2024-10-11T12:23:27.871Z,0.0115,-0.9907,0.0909,-0.0442,-0.0216,0.2220,0.0209,0.0357,-0.0173,-2.5270,1.4553,3.0846
2024-10-11T12:23:27.881Z,-0.0140,-1.0006,0.1137,-0.0442,-0.0216,0.2220,0.0149,0.0297,-0.0209,-2.5270,1.4553,3.0846
2024-10-11T12:23:27.891Z,-0.0062,-1.0048,0.1234,0.2127,0.0830,0.0158,0.0143,0.0306,-0.0230,-2.5221,1.4549,3.0805
2024-10-11T12:23:27.901Z,-0.0124,-1.0094,0.1331,0.2127,0.0830,0.0158,0.0099,0.0286,-0.0249,-2.5221,1.4549,3.0805
2024-10-11T12:23:27.911Z,-0.0193,-1.0128,0.1442,0.2127,0.0830,0.0158,0.0060,0.0203,-0.0263,-2.5221,1.4549,3.0805
2024-10-11T12:23:27.921Z,-0.0231,-1.0159,0.1506,0.2699,0.1909,-0.2946,0.0020,0.0103,-0.0305,-2.5156,1.4547,3.0745
2024-10-11T12:23:27.931Z,-0.0292,-1.0161,0.1470,0.2699,0.1909,-0.2946,-0.0020,0.0057,-0.0330,-2.5156,1.4547,3.0745
2024-10-11T12:23:27.941Z,-0.0290,-1.0149,0.1449,0.2699,0.1909,-0.2946,-0.0033,0.0035,-0.0373,-2.5156,1.4547,3.0745
2024-10-11T12:23:27.951Z,-0.0190,-1.0082,0.1467,0.3586,0.2082,-0.2852,-0.0087,0.0030,-0.0399,-2.5064,1.4547,3.0653
2024-10-11T12:23:27.961Z,-0.0190,-1.0082,0.1467,0.3586,0.2082,-0.2852,-0.0110,-0.0000,-0.0386,-2.5064,1.4547,3.0653
2024-10-11T12:23:27.971Z,-0.0002,-0.9920,0.1366,0.3586,0.2082,-0.2852,-0.0176,-0.0011,-0.0402,-2.5064,1.4547,3.0653
2024-10-11T12:23:27.981Z,-0.0087,-0.9857,0.1288,0.1102,-0.0202,-0.2071,-0.0183,0.0007,-0.0434,-2.4961,1.4550,3.0549
2024-10-11T12:23:27.991Z,-0.0123,-0.9756,0.1174,0.1102,-0.0202,-0.2071,-0.0199,0.0052,-0.0470,-2.4961,1.4550,3.0549
2024-10-11T12:23:28.001Z,-0.0152,-0.9675,0.1106,0.1102,-0.0202,-0.2071,-0.0205,0.0091,-0.0471,-2.4961,1.4550,3.0549
2024-10-11T12:23:28.011Z,-0.0153,-0.9635,0.1114,0.2638,-0.2588,0.0300,-0.0205,0.0091,-0.0471,-2.4839,1.4553,3.0427
2024-10-11T12:23:28.021Z,-0.0035,-0.9591,0.1183,0.2638,-0.2588,0.0300,-0.0260,0.0134,-0.0507,-2.4839,1.4553,3.0427
2024-10-11T12:23:28.030Z,-0.0035,-0.9591,0.1183,0.2638,-0.2588,0.0300,-0.0257,0.0109,-0.0516,-2.4839,1.4553,3.0427
2024-10-11T12:23:28.041Z,0.0034,-0.9585,0.1091,0.0822,-0.3414,0.0544,-0.0258,0.0067,-0.0500,-2.4707,1.4559,3.0297
2024-10-11T12:23:28.051Z,0.0064,-0.9615,0.1038,0.0822,-0.3414,0.0544,-0.0299,0.0023,-0.0474,-2.4707,1.4559,3.0297
2024-10-11T12:23:28.061Z,0.0012,-0.9657,0.1027,0.0822,-0.3414,0.0544,-0.0299,0.0023,-0.0474,-2.4707,1.4559,3.0297
2024-10-11T12:23:28.071Z,0.0069,-0.9715,0.0969,0.0446,-0.2301,0.1314,-0.0341,0.0036,-0.0443,-2.4582,1.4565,3.0172
2024-10-11T12:23:28.080Z,0.0069,-0.9715,0.0969,0.0446,-0.2301,0.1314,-0.0341,0.0036,-0.0443,-2.4582,1.4565,3.0172
2024-10-11T12:23:28.091Z,0.0054,-0.9721,0.0935,0.0446,-0.2301,0.1314,-0.0341,0.0138,-0.0422,-2.4582,1.4565,3.0172
2024-10-11T12:23:28.101Z,0.0023,-0.9782,0.0855,0.1279,-0.1375,0.2634,-0.0349,0.0208,-0.0405,-2.4469,1.4573,3.0059
2024-10-11T12:23:28.111Z,0.0052,-0.9875,0.0829,0.1279,-0.1375,0.2634,-0.0349,0.0208,-0.0405,-2.4469,1.4573,3.0059
2024-10-11T12:23:28.121Z,0.0125,-0.9941,0.0795,0.1279,-0.1375,0.2634,-0.0285,0.0299,-0.0383,-2.4469,1.4573,3.0059
2024-10-11T12:23:28.131Z,0.0140,-1.0038,0.0785,0.0303,0.1102,0.3339,-0.0201,0.0360,-0.0353,-2.4362,1.4580,2.9958
2024-10-11T12:23:28.141Z,0.0105,-1.0106,0.0737,0.0303,0.1102,0.3339,-0.0162,0.0393,-0.0332,-2.4362,1.4580,2.9958
2024-10-11T12:23:28.151Z,0.0138,-1.0212,0.0723,0.0303,0.1102,0.3339,-0.0145,0.0443,-0.0320,-2.4362,1.4580,2.9958
2024-10-11T12:23:28.161Z,0.0235,-1.0251,0.0851,-0.0711,0.3183,0.2552,-0.0145,0.0443,-0.0320,-2.4270,1.4584,2.9876
2024-10-11T12:23:28.171Z,0.0250,-1.0286,0.0896,-0.0711,0.3183,0.2552,-0.0106,0.0526,-0.0241,-2.4270,1.4584,2.9876
2024-10-11T12:23:28.181Z,0.0290,-1.0271,0.1005,-0.0711,0.3183,0.2552,-0.0091,0.0572,-0.0252,-2.4270,1.4584,2.9876
2024-10-11T12:23:28.191Z,0.0191,-1.0282,0.1064,-0.0543,0.3204,0.0841,-0.0099,0.0584,-0.0227,-2.4201,1.4586,2.9820
2024-10-11T12:23:28.200Z,0.0191,-1.0282,0.1064,-0.0543,0.3204,0.0841,-0.0100,0.0614,-0.0202,-2.4201,1.4586,2.9820
2024-10-11T12:23:28.211Z,0.0226,-1.0274,0.1056,-0.0543,0.3204,0.0841,-0.0121,0.0699,-0.0191,-2.4201,1.4586,2.9820
2024-10-11T12:23:28.221Z,0.0336,-1.0331,0.1115,-0.1014,0.3547,0.0074,-0.0059,0.0677,-0.0171,-2.4147,1.4587,2.9784
2024-10-11T12:23:28.231Z,0.0336,-1.0331,0.1115,-0.1014,0.3547,0.0074,-0.0067,0.0753,-0.0167,-2.4147,1.4587,2.9784
2024-10-11T12:23:28.241Z,0.0350,-1.0297,0.0985,-0.1014,0.3547,0.0074,-0.0048,0.0754,-0.0124,-2.4147,1.4587,2.9784
2024-10-11T12:23:28.252Z,0.0460,-1.0276,0.0924,-0.1714,0.3486,0.1138,-0.0029,0.0796,-0.0122,-2.4105,1.4588,2.9762
2024-10-11T12:23:28.261Z,0.0460,-1.0276,0.0924,-0.1714,0.3486,0.1138,-0.0020,0.0827,-0.0122,-2.4105,1.4588,2.9762
2024-10-11T12:23:28.271Z,0.0388,-1.0209,0.0861,-0.1714,0.3486,0.1138,-0.0018,0.0879,-0.0060,-2.4105,1.4588,2.9762
2024-10-11T12:23:28.281Z,0.0494,-1.0166,0.0897,-0.2118,0.2559,0.2133,-0.0018,0.0890,-0.0055,-2.4083,1.4588,2.9762
2024-10-11T12:23:28.291Z,0.0494,-1.0166,0.0897,-0.2118,0.2559,0.2133,-0.0024,0.0951,-0.0024,-2.4083,1.4588,2.9762
2024-10-11T12:23:28.301Z,0.0517,-1.0183,0.0924,-0.2118,0.2559,0.2133,-0.0063,0.0980,0.0007,-2.4083,1.4588,2.9762
2024-10-11T12:23:28.312Z,0.0533,-1.0212,0.0971,-0.3464,0.2674,0.1260,-0.0041,0.1004,0.0045,-2.4080,1.4588,2.9786
2024-10-11T12:23:28.321Z,0.0524,-1.0227,0.0945,-0.3464,0.2674,0.1260,-0.0043,0.1022,0.0098,-2.4080,1.4588,2.9786
2024-10-11T12:23:28.332Z,0.0650,-1.0405,0.0994,-0.3464,0.2674,0.1260,-0.0025,0.0967,0.0127,-2.4080,1.4588,2.9786
2024-10-11T12:23:28.342Z,0.0552,-1.0437,0.0958,-0.4650,0.4647,0.1115,-0.0016,0.0948,0.0175,-2.4106,1.4589,2.9839
2024-10-11T12:23:28.351Z,0.0552,-1.0437,0.0958,-0.4650,0.4647,0.1115,0.0004,0.0922,0.0215,-2.4106,1.4589,2.9839
2024-10-11T12:23:28.361Z,0.0507,-1.0453,0.0958,-0.4650,0.4647,0.1115,0.0029,0.0908,0.0248,-2.4106,1.4589,2.9839
2024-10-11T12:23:28.371Z,0.0505,-1.0326,0.1004,-0.3416,0.4651,0.1086,0.0046,0.0867,0.0279,-2.4162,1.4590,2.9919
2024-10-11T12:23:28.381Z,0.0540,-1.0255,0.0969,-0.3416,0.4651,0.1086,0.0079,0.0838,0.0345,-2.4162,1.4590,2.9919
2024-10-11T12:23:28.391Z,0.0559,-1.0166,0.0981,-0.3416,0.4651,0.1086,0.0129,0.0727,0.0413,-2.4162,1.4590,2.9919
2024-10-11T12:23:28.402Z,0.0495,-1.0043,0.1082,-0.4050,0.2097,0.1249,0.0140,0.0651,0.0466,-2.4258,1.4588,3.0034
2024-10-11T12:23:28.411Z,0.0495,-1.0043,0.1082,-0.4050,0.2097,0.1249,0.0145,0.0563,0.0503,-2.4258,1.4588,3.0034
2024-10-11T12:23:28.421Z,0.0261,-0.9895,0.1127,-0.4050,0.2097,0.1249,0.0168,0.0533,0.0591,-2.4258,1.4588,3.0034
2024-10-11T12:23:28.431Z,0.0269,-0.9856,0.1117,-0.1173,-0.0388,-0.0093,0.0158,0.0462,0.0655,-2.4406,1.4585,3.0196
2024-10-11T12:23:28.441Z,0.0287,-0.9785,0.1136,-0.1173,-0.0388,-0.0093,0.0180,0.0353,0.0758,-2.4406,1.4585,3.0196
2024-10-11T12:23:28.451Z,0.0281,-0.9778,0.1090,-0.1173,-0.0388,-0.0093,0.0201,0.0229,0.0824,-2.4406,1.4585,3.0196
2024-10-11T12:23:28.462Z,0.0231,-0.9722,0.1099,-0.1598,-0.1690,0.0342,0.0203,0.0111,0.0944,-2.4617,1.4582,3.0411
2024-10-11T12:23:28.471Z,0.0155,-0.9633,0.1131,-0.1598,-0.1690,0.0342,0.0200,0.0058,0.1013,-2.4617,1.4582,3.0411
2024-10-11T12:23:28.481Z,0.0155,-0.9633,0.1131,-0.1598,-0.1690,0.0342,0.0207,-0.0074,0.1100,-2.4617,1.4582,3.0411
2024-10-11T12:23:28.491Z,-0.0035,-0.9716,0.1025,-0.0079,-0.2541,0.0216,0.0253,-0.0099,0.1173,-2.4899,1.4579,3.0689
2024-10-11T12:23:28.501Z,-0.0035,-0.9716,0.1025,-0.0079,-0.2541,0.0216,0.0281,-0.0172,0.1198,-2.4899,1.4579,3.0689
2024-10-11T12:23:28.513Z,-0.0282,-0.9832,0.1093,-0.0079,-0.2541,0.0216,0.0351,-0.0203,0.1218,-2.4899,1.4579,3.0689
2024-10-11T12:23:28.521Z,-0.0442,-0.9966,0.1094,0.3456,-0.0838,0.0304,0.0411,-0.0182,0.1190,-2.5221,1.4571,3.1002
2024-10-11T12:23:28.531Z,-0.0488,-1.0089,0.1185,0.3456,-0.0838,0.0304,0.0445,-0.0089,0.1163,-2.5221,1.4571,3.1002
2024-10-11T12:23:28.541Z,-0.0542,-1.0184,0.1280,0.3456,-0.0838,0.0304,0.0446,0.0012,0.1118,-2.5221,1.4571,3.1002
2024-10-11T12:23:28.550Z,-0.0542,-1.0184,0.1280,0.5665,0.2490,-0.1393,0.0455,0.0141,0.1036,-2.5527,1.4559,3.1302
2024-10-11T12:23:28.563Z,-0.0625,-1.0307,0.1308,0.5665,0.2490,-0.1393,0.0401,0.0293,0.0986,-2.5527,1.4559,3.1302
2024-10-11T12:23:28.571Z,-0.0739,-1.0344,0.1335,0.5665,0.2490,-0.1393,0.0365,0.0439,0.1210,-2.5527,1.4559,3.1302
2024-10-11T12:23:28.581Z,-0.0651,-1.0483,0.1288,0.7415,0.3997,-0.1560,0.0286,0.0503,0.0785,-2.5804,1.4547,-3.1247
2024-10-11T12:23:28.591Z,-0.0600,-1.0451,0.1290,0.7415,0.3997,-0.1560,0.0180,0.0609,0.0677,-2.5804,1.4547,-3.1247
2024-10-11T12:23:28.601Z,-0.0693,-1.0373,0.1328,0.7415,0.3997,-0.1560,0.0127,0.0635,0.0558,-2.5804,1.4547,-3.1247
2024-10-11T12:23:28.612Z,-0.0664,-1.0291,0.1392,0.6393,0.4351,-0.1601,-0.0002,0.0691,0.0430,-2.5970,1.4541,-3.1067
2024-10-11T12:23:28.621Z,-0.0683,-1.0080,0.1466,0.6393,0.4351,-0.1601,-0.0143,0.0797,0.0286,-2.5970,1.4541,-3.1067
2024-10-11T12:23:28.631Z,-0.0684,-0.9886,0.1570,0.6393,0.4351,-0.1601,-0.0251,0.0939,0.0134,-2.5970,1.4541,-3.1067
2024-10-11T12:23:28.640Z,-0.0515,-0.9657,0.1703,0.6143,-0.0716,-0.4203,-0.0406,0.1004,0.0002,-2.6032,1.4546,-3.0981
2024-10-11T12:23:28.651Z,-0.0324,-0.9471,0.1795,0.6143,-0.0716,-0.4203,-0.0565,0.1025,-0.0111,-2.6032,1.4546,-3.0981
2024-10-11T12:23:28.661Z,-0.0183,-0.9413,0.1900,0.6143,-0.0716,-0.4203,-0.0671,0.1001,-0.0225,-2.6032,1.4546,-3.0981
2024-10-11T12:23:28.670Z,-0.0176,-0.9461,0.1820,0.1214,-0.5080,-0.7413,-0.0839,0.0954,-0.0284,-2.6008,1.4564,-3.0979
2024-10-11T12:23:28.681Z,-0.0011,-0.9512,0.1566,0.1214,-0.5080,-0.7413,-0.0894,0.0891,-0.0345,-2.6008,1.4564,-3.0979
2024-10-11T12:23:28.691Z,0.0151,-0.9593,0.1402,0.1214,-0.5080,-0.7413,-0.0970,0.0895,-0.0398,-2.6008,1.4564,-3.0979
2024-10-11T12:23:28.701Z,0.0168,-0.9695,0.1171,-0.1957,-0.3232,-0.2581,-0.0942,0.0886,-0.0450,-2.5925,1.4591,-3.1036
2024-10-11T12:23:28.712Z,0.0275,-0.9698,0.1082,-0.1957,-0.3232,-0.2581,-0.0933,0.0773,-0.0540,-2.5925,1.4591,-3.1036
2024-10-11T12:23:28.721Z,0.0363,-0.9622,0.0972,-0.1957,-0.3232,-0.2581,-0.0890,0.0694,-0.0568,-2.5925,1.4591,-3.1036
2024-10-11T12:23:28.731Z,0.0564,-0.9531,0.0900,-0.4101,-0.3226,0.1229,-0.0866,0.0498,-0.0564,-2.5790,1.4619,-3.1151
2024-10-11T12:23:28.741Z,0.0662,-0.9444,0.0892,-0.4101,-0.3226,0.1229,-0.0835,0.0397,-0.0567,-2.5790,1.4619,-3.1151
2024-10-11T12:23:28.751Z,0.0697,-0.9379,0.0850,-0.4101,-0.3226,0.1229,-0.0809,0.0275,-0.0571,-2.5790,1.4619,-3.1151
2024-10-11T12:23:28.762Z,0.0703,-0.9318,0.0760,-0.7007,-0.5536,0.2197,-0.0722,0.0053,-0.0545,-2.5639,1.4644,-3.1293
2024-10-11T12:23:28.771Z,0.0757,-0.9244,0.0692,-0.7007,-0.5536,0.2197,-0.0660,-0.0169,-0.0491,-2.5639,1.4644,-3.1293
2024-10-11T12:23:28.781Z,0.0788,-0.9128,0.0686,-0.7007,-0.5536,0.2197,-0.0571,-0.0403,-0.0424,-2.5639,1.4644,-3.1293
2024-10-11T12:23:28.791Z,0.0771,-0.9052,0.0634,-0.7734,-0.8110,0.3599,-0.0437,-0.0622,-0.0379,-2.5511,1.4662,3.1401
2024-10-11T12:23:28.801Z,0.0675,-0.9025,0.0563,-0.7734,-0.8110,0.3599,-0.0371,-0.0766,-0.0297,-2.5511,1.4662,3.1401
2024-10-11T12:23:28.811Z,0.0553,-0.9080,0.0474,-0.7734,-0.8110,0.3599,-0.0261,-0.0904,-0.0228,-2.5511,1.4662,3.1401
2024-10-11T12:23:28.820Z,0.0495,-0.9181,0.0507,-0.5248,-0.8430,0.5528,-0.0152,-0.1033,-0.0211,-2.5428,1.4672,3.1292
2024-10-11T12:23:28.831Z,0.0440,-0.9348,0.0412,-0.5248,-0.8430,0.5528,-0.0032,-0.1135,-0.0170,-2.5428,1.4672,3.1292
2024-10-11T12:23:28.840Z,0.0333,-0.9459,0.0435,-0.5248,-0.8430,0.5528,0.0038,-0.1221,-0.0111,-2.5428,1.4672,3.1292
2024-10-11T12:23:28.851Z,0.0184,-0.9572,0.0567,-0.2896,-0.4672,0.5786,0.0143,-0.1240,-0.0090,-2.5386,1.4672,3.1214
2024-10-11T12:23:28.861Z,0.0099,-0.9658,0.0670,-0.2896,-0.4672,0.5786,0.0179,-0.1228,-0.0099,-2.5386,1.4672,3.1214
2024-10-11T12:23:28.871Z,0.0011,-0.9772,0.0743,-0.2896,-0.4672,0.5786,0.0224,-0.1256,-0.0092,-2.5386,1.4672,3.1214
2024-10-11T12:23:28.881Z,-0.0079,-0.9864,0.0811,0.0231,-0.1531,0.2789,0.0235,-0.1250,-0.0095,-2.5363,1.4666,3.1153
2024-10-11T12:23:28.891Z,-0.0181,-0.9962,0.0955,0.0231,-0.1531,0.2789,0.0218,-0.1257,-0.0065,-2.5363,1.4666,3.1153
2024-10-11T12:23:28.901Z,-0.0202,-1.0068,0.1019,0.0231,-0.1531,0.2789,0.0214,-0.1219,-0.0077,-2.5363,1.4666,3.1153
2024-10-11T12:23:28.911Z,-0.0212,-1.0169,0.1058,0.2357,0.1317,0.0091,0.0200,-0.1234,-0.0089,-2.5342,1.4659,3.1092
2024-10-11T12:23:28.920Z,-0.0283,-1.0211,0.1206,0.2357,0.1317,0.0091,0.0155,-0.1183,-0.0106,-2.5342,1.4659,3.1092
2024-10-11T12:23:28.931Z,-0.0317,-1.0249,0.1306,0.2357,0.1317,0.0091,0.0126,-0.1149,-0.0124,-2.5342,1.4659,3.1092
2024-10-11T12:23:28.941Z,-0.0307,-1.0272,0.1297,0.3521,0.3138,-0.2544,0.0120,-0.1102,-0.0166,-2.5311,1.4654,3.1022
2024-10-11T12:23:28.951Z,-0.0247,-1.0272,0.1354,0.3521,0.3138,-0.2544,0.0091,-0.1027,-0.0192,-2.5311,1.4654,3.1022
2024-10-11T12:23:28.961Z,-0.0189,-1.0250,0.1395,0.3521,0.3138,-0.2544,0.0040,-0.0954,-0.0177,-2.5311,1.4654,3.1022
2024-10-11T12:23:28.971Z,-0.0117,-1.0224,0.1415,0.2207,0.3031,-0.3405,0.0077,-0.0931,-0.0210,-2.5260,1.4651,3.0939
2024-10-11T12:23:28.980Z,-0.0117,-1.0224,0.1415,0.2207,0.3031,-0.3405,0.0057,-0.0913,-0.0212,-2.5260,1.4651,3.0939
2024-10-11T12:23:28.991Z,-0.0064,-1.0198,0.1371,0.2207,0.3031,-0.3405,0.0053,-0.0904,-0.0242,-2.5260,1.4651,3.0939
2024-10-11T12:23:29.000Z,-0.0025,-1.0191,0.1376,0.1226,0.2458,-0.3054,0.0037,-0.0935,-0.0250,-2.5199,1.4649,3.0848
2024-10-11T12:23:29.011Z,0.0095,-1.0157,0.1364,0.1226,0.2458,-0.3054,0.0055,-0.0956,-0.0259,-2.5199,1.4649,3.0848
2024-10-11T12:23:29.021Z,0.0094,-1.0188,0.1381,0.1226,0.2458,-0.3054,0.0032,-0.1000,-0.0281,-2.5199,1.4649,3.0848
2024-10-11T12:23:29.031Z,0.0076,-1.0195,0.1434,-0.0178,0.2376,-0.3185,-0.0020,-0.1051,-0.0253,-2.5129,1.4648,3.0747
2024-10-11T12:23:29.041Z,0.0082,-1.0219,0.1436,-0.0178,0.2376,-0.3185,-0.0016,-0.1123,-0.0287,-2.5129,1.4648,3.0747
2024-10-11T12:23:29.051Z,0.0126,-1.0268,0.1380,-0.0178,0.2376,-0.3185,-0.0073,-0.1176,-0.0280,-2.5129,1.4648,3.0747
2024-10-11T12:23:29.061Z,0.0148,-1.0374,0.1329,-0.0532,0.3176,-0.3099,-0.0119,-0.1134,-0.0285,-2.5050,1.4648,3.0632
2024-10-11T12:23:29.071Z,0.0113,-1.0491,0.1218,-0.0532,0.3176,-0.3099,-0.0152,-0.1086,-0.0286,-2.5050,1.4648,3.0632
2024-10-11T12:23:29.082Z,0.0102,-1.0571,0.1070,-0.0532,0.3176,-0.3099,-0.0129,-0.1023,-0.0313,-2.5050,1.4648,3.0632
2024-10-11T12:23:29.091Z,0.0012,-1.0614,0.1075,0.0031,0.6205,-0.0188,-0.0199,-0.0984,-0.0341,-2.4964,1.4651,3.0513
2024-10-11T12:23:29.101Z,-0.0002,-1.0499,0.1138,0.0031,0.6205,-0.0188,-0.0185,-0.1012,-0.0325,-2.4964,1.4651,3.0513
2024-10-11T12:23:29.111Z,-0.0029,-1.0333,0.1163,0.0031,0.6205,-0.0188,-0.0240,-0.0990,-0.0315,-2.4964,1.4651,3.0513
2024-10-11T12:23:29.121Z,-0.0061,-1.0107,0.1197,0.1442,0.3571,-0.1383,-0.0303,-0.0920,-0.0359,-2.4867,1.4657,3.0384
2024-10-11T12:23:29.131Z,-0.0061,-1.0107,0.1197,0.1442,0.3571,-0.1383,-0.0371,-0.0810,-0.0358,-2.4867,1.4657,3.0384
2024-10-11T12:23:29.141Z,-0.0208,-0.9812,0.1130,0.1442,0.3571,-0.1383,-0.0418,-0.0598,-0.0394,-2.4867,1.4657,3.0384
2024-10-11T12:23:29.151Z,-0.0116,-0.9777,0.1019,0.3154,-0.1456,-0.0926,-0.0399,-0.0436,-0.0417,-2.4750,1.4666,3.0243
2024-10-11T12:23:29.161Z,-0.0110,-0.9766,0.0882,0.3154,-0.1456,-0.0926,-0.0356,-0.0386,-0.0415,-2.4750,1.4666,3.0243
2024-10-11T12:23:29.171Z,-0.0113,-0.9731,0.0787,0.3154,-0.1456,-0.0926,-0.0276,-0.0304,-0.0413,-2.4750,1.4666,3.0243
2024-10-11T12:23:29.181Z,-0.0026,-0.9713,0.0684,0.2376,-0.2115,0.2475,-0.0224,-0.0267,-0.0432,-2.4620,1.4674,3.0099
2024-10-11T12:23:29.191Z,0.0030,-0.9738,0.0654,0.2376,-0.2115,0.2475,-0.0160,-0.0207,-0.0423,-2.4620,1.4674,3.0099
2024-10-11T12:23:29.201Z,-0.0130,-0.9759,0.0702,0.2376,-0.2115,0.2475,-0.0127,-0.0160,-0.0469,-2.4620,1.4674,3.0099
2024-10-11T12:23:29.211Z,-0.0159,-0.9771,0.0745,0.2866,-0.1770,0.3212,-0.0115,-0.0103,-0.0513,-2.4487,1.4676,2.9958
2024-10-11T12:23:29.221Z,-0.0211,-0.9805,0.0833,0.2866,-0.1770,0.3212,-0.0144,-0.0019,-0.0522,-2.4487,1.4676,2.9958
2024-10-11T12:23:29.231Z,-0.0114,-0.9843,0.0913,0.2866,-0.1770,0.3212,-0.0095,-0.0020,-0.0559,-2.4487,1.4676,2.9958
2024-10-11T12:23:29.241Z,-0.0082,-0.9942,0.0880,0.2661,-0.0894,0.1094,-0.0111,0.0085,-0.0591,-2.4328,1.4677,2.9797
2024-10-11T12:23:29.251Z,-0.0055,-1.0007,0.0814,0.2661,-0.0894,0.1094,-0.0110,0.0152,-0.0590,-2.4328,1.4677,2.9797
2024-10-11T12:23:29.261Z,0.0076,-1.0038,0.0779,0.2661,-0.0894,0.1094,-0.0082,0.0218,-0.0557,-2.4328,1.4677,2.9797
2024-10-11T12:23:29.271Z,0.0120,-1.0005,0.0807,0.0912,0.0895,0.2414,-0.0038,0.0273,-0.0535,-2.4165,1.4677,2.9636
2024-10-11T12:23:29.280Z,0.0099,-1.0023,0.0856,0.0912,0.0895,0.2414,-0.0050,0.0349,-0.0519,-2.4165,1.4677,2.9636
2024-10-11T12:23:29.291Z,0.0072,-1.0039,0.0919,0.0912,0.0895,0.2414,-0.0081,0.0411,-0.0569,-2.4165,1.4677,2.9636
2024-10-11T12:23:29.301Z,0.0020,-1.0115,0.1027,0.1337,0.0957,0.0799,-0.0085,0.0446,-0.0581,-2.4006,1.4675,2.9487
2024-10-11T12:23:29.311Z,0.0126,-1.0224,0.1071,0.1337,0.0957,0.0799,-0.0030,0.0473,-0.0562,-2.4006,1.4675,2.9487
2024-10-11T12:23:29.321Z,0.0234,-1.0434,0.1024,0.1337,0.0957,0.0799,-0.0023,0.0481,-0.0553,-2.4006,1.4675,2.9487
2024-10-11T12:23:29.330Z,0.0322,-1.0587,0.1111,-0.0281,0.5002,-0.0214,0.0027,0.0467,-0.0484,-2.3851,1.4673,2.9344
2024-10-11T12:23:29.340Z,0.0444,-1.0444,0.1198,-0.0281,0.5002,-0.0214,-0.0007,0.0514,-0.0439,-2.3851,1.4673,2.9344
2024-10-11T12:23:29.351Z,0.0451,-1.0276,0.1437,-0.0281,0.5002,-0.0214,-0.0048,0.0609,-0.0388,-2.3851,1.4673,2.9344
2024-10-11T12:23:29.361Z,0.0488,-1.0186,0.1529,-0.2219,0.3065,-0.4344,-0.0023,0.0642,-0.0357,-2.3733,1.4670,2.9240
2024-10-11T12:23:29.371Z,0.0460,-1.0190,0.1389,-0.2219,0.3065,-0.4344,-0.0027,0.0750,-0.0297,-2.3733,1.4670,2.9240
2024-10-11T12:23:29.381Z,0.0410,-1.0152,0.1262,-0.2219,0.3065,-0.4344,0.0025,0.0848,-0.0231,-2.3733,1.4670,2.9240
2024-10-11T12:23:29.391Z,0.0609,-1.0124,0.1210,-0.1991,0.1982,-0.2376,0.0020,0.0980,-0.0157,-2.3656,1.4668,2.9184
2024-10-11T12:23:29.401Z,0.0606,-1.0098,0.1221,-0.1991,0.1982,-0.2376,0.0027,0.1131,-0.0107,-2.3656,1.4668,2.9184
2024-10-11T12:23:29.411Z,0.0725,-1.0067,0.1168,-0.1991,0.1982,-0.2376,0.0010,0.1195,0.0010,-2.3656,1.4668,2.9184
2024-10-11T12:23:29.421Z,0.0721,-1.0034,0.1042,-0.5153,0.1193,-0.1305,0.0047,0.1306,0.0079,-2.3643,1.4667,2.9202
2024-10-11T12:23:29.430Z,0.0528,-0.9997,0.0872,-0.5153,0.1193,-0.1305,0.0034,0.1350,0.0163,-2.3643,1.4667,2.9202
2024-10-11T12:23:29.441Z,0.0840,-1.0022,0.0816,-0.5153,0.1193,-0.1305,0.0057,0.1428,0.0266,-2.3643,1.4667,2.9202
2024-10-11T12:23:29.450Z,0.0961,-1.0091,0.0661,-0.6536,0.0889,0.2180,0.0075,0.1498,0.0358,-2.3701,1.4666,2.9299
2024-10-11T12:23:29.461Z,0.0872,-0.9974,0.0688,-0.6536,0.0889,0.2180,0.0093,0.1580,0.0450,-2.3701,1.4666,2.9299
2024-10-11T12:23:29.471Z,0.0787,-0.9674,0.0840,-0.6536,0.0889,0.2180,0.0089,0.1577,0.0491,-2.3701,1.4666,2.9299
2024-10-11T12:23:29.481Z,0.0729,-0.9697,0.0889,-0.5738,-0.2825,0.1387,0.0133,0.1538,0.0560,-2.3839,1.4666,2.9479
2024-10-11T12:23:29.491Z,0.0745,-0.9780,0.0813,-0.5738,-0.2825,0.1387,0.0152,0.1519,0.0615,-2.3839,1.4666,2.9479
2024-10-11T12:23:29.501Z,0.0677,-0.9806,0.0704,-0.5738,-0.2825,0.1387,0.0233,0.1525,0.0646,-2.3839,1.4666,2.9479
2024-10-11T12:23:29.511Z,0.0615,-0.9725,0.0739,-0.4816,-0.1474,0.2967,0.0284,0.1515,0.0698,-2.4024,1.4664,2.9706
2024-10-11T12:23:29.521Z,0.0571,-0.9672,0.0750,-0.4816,-0.1474,0.2967,0.0329,0.1486,0.0712,-2.4024,1.4664,2.9706
2024-10-11T12:23:29.531Z,0.0415,-0.9593,0.0811,-0.4816,-0.1474,0.2967,0.0374,0.1519,0.0708,-2.4024,1.4664,2.9706
2024-10-11T12:23:29.541Z,0.0392,-0.9532,0.0945,-0.2459,-0.3519,0.2042,0.0385,0.1424,0.0741,-2.4243,1.4657,2.9965
2024-10-11T12:23:29.551Z,0.0371,-0.9548,0.1040,-0.2459,-0.3519,0.2042,0.0442,0.1392,0.0727,-2.4243,1.4657,2.9965
2024-10-11T12:23:29.560Z,0.0275,-0.9598,0.1163,-0.2459,-0.3519,0.2042,0.0474,0.1373,0.0731,-2.4243,1.4657,2.9965
2024-10-11T12:23:29.570Z,0.0269,-0.9693,0.1125,-0.1430,-0.3271,-0.1211,0.0491,0.1333,0.0696,-2.4465,1.4646,3.0225
2024-10-11T12:23:29.580Z,0.0121,-0.9711,0.1221,-0.1430,-0.3271,-0.1211,0.0458,0.1352,0.0686,-2.4465,1.4646,3.0225
2024-10-11T12:23:29.590Z,0.0116,-0.9638,0.1609,-0.1430,-0.3271,-0.1211,0.0377,0.1319,0.0652,-2.4465,1.4646,3.0225
2024-10-11T12:23:29.601Z,0.0068,-0.9580,0.1964,-0.0145,-0.3113,-0.5645,0.0318,0.1327,0.0606,-2.4666,1.4635,3.0462
2024-10-11T12:23:29.611Z,0.0000,-0.9680,0.2036,-0.0145,-0.3113,-0.5645,0.0205,0.1405,0.0594,-2.4666,1.4635,3.0462
2024-10-11T12:23:29.621Z,0.0168,-0.9737,0.2192,-0.0145,-0.3113,-0.5645,0.0093,0.1246,0.0596,-2.4666,1.4635,3.0462
2024-10-11T12:23:29.631Z,0.0068,-0.9715,0.2232,-0.0936,-0.2040,-1.0935,-0.0011,0.1286,0.0521,-2.4832,1.4631,3.0664
2024-10-11T12:23:29.641Z,0.0105,-0.9744,0.2176,-0.0936,-0.2040,-1.0935,-0.0093,0.1270,0.0524,-2.4832,1.4631,3.0664
2024-10-11T12:23:29.650Z,0.0168,-0.9765,0.2108,-0.0936,-0.2040,-1.0935,-0.0172,0.1232,0.0485,-2.4832,1.4631,3.0664
2024-10-11T12:23:29.661Z,0.0158,-0.9746,0.2165,-0.1100,-0.1724,-1.0157,-0.0216,0.1191,0.0471,-2.4972,1.4636,3.0839
2024-10-11T12:23:29.671Z,0.0165,-0.9697,0.1976,-0.1100,-0.1724,-1.0157,-0.0301,0.1200,0.0468,-2.4972,1.4636,3.0839
2024-10-11T12:23:29.680Z,0.0060,-0.9687,0.1832,-0.1100,-0.1724,-1.0157,-0.0305,0.1134,0.0431,-2.4972,1.4636,3.0839
2024-10-11T12:23:29.690Z,0.0048,-0.9591,0.1798,-0.0037,-0.2619,-0.7460,-0.0343,0.1050,0.0387,-2.5097,1.4644,3.0996
2024-10-11T12:23:29.700Z,0.0014,-0.9581,0.1551,-0.0037,-0.2619,-0.7460,-0.0354,0.0988,0.0348,-2.5097,1.4644,3.0996
2024-10-11T12:23:29.711Z,-0.0115,-0.9545,0.1481,-0.0037,-0.2619,-0.7460,-0.0329,0.0891,0.0296,-2.5097,1.4644,3.0996
2024-10-11T12:23:29.721Z,-0.0047,-0.9499,0.1301,0.1482,-0.3923,-0.4267,-0.0323,0.0818,0.0229,-2.5188,1.4654,3.1111
2024-10-11T12:23:29.731Z,-0.0072,-0.9431,0.1192,0.1482,-0.3923,-0.4267,-0.0326,0.0682,0.0192,-2.5188,1.4654,3.1111
2024-10-11T12:23:29.741Z,-0.0009,-0.9476,0.1058,0.1482,-0.3923,-0.4267,-0.0275,0.0532,0.0124,-2.5188,1.4654,3.1111
2024-10-11T12:23:29.750Z,0.0016,-0.9565,0.0969,0.0208,-0.4534,-0.0276,-0.0262,0.0432,0.0085,-2.5238,1.4663,3.1176
2024-10-11T12:23:29.761Z,-0.0037,-0.9636,0.0811,0.0208,-0.4534,-0.0276,-0.0212,0.0320,0.0037,-2.5238,1.4663,3.1176
2024-10-11T12:23:29.771Z,-0.0009,-0.9727,0.0616,0.0208,-0.4534,-0.0276,-0.0181,0.0258,0.0001,-2.5238,1.4663,3.1176
2024-10-11T12:23:29.781Z,-0.0029,-0.9841,0.0581,0.0300,-0.1964,0.4230,-0.0136,0.0168,-0.0046,-2.5245,1.4670,3.1190
2024-10-11T12:23:29.791Z,-0.0063,-0.9928,0.0632,0.0300,-0.1964,0.4230,-0.0099,0.0059,-0.0094,-2.5245,1.4670,3.1190
2024-10-11T12:23:29.800Z,-0.0020,-1.0034,0.0680,0.0300,-0.1964,0.4230,-0.0058,-0.0040,-0.0155,-2.5245,1.4670,3.1190
2024-10-11T12:23:29.811Z,0.0029,-1.0050,0.0678,0.0351,0.1023,0.3372,-0.0046,-0.0073,-0.0159,-2.5215,1.4672,3.1159
2024-10-11T12:23:29.821Z,0.0022,-1.0063,0.0639,0.0351,0.1023,0.3372,0.0013,-0.0144,-0.0174,-2.5215,1.4672,3.1159
2024-10-11T12:23:29.831Z,0.0025,-1.0113,0.0642,0.0351,0.1023,0.3372,0.0014,-0.0204,-0.0169,-2.5215,1.4672,3.1159
2024-10-11T12:23:29.840Z,0.0008,-1.0134,0.0652,-0.0021,0.1686,0.3761,0.0074,-0.0279,-0.0202,-2.5165,1.4671,3.1102
2024-10-11T12:23:29.850Z,-0.0005,-1.0089,0.0617,-0.0021,0.1686,0.3761,0.0107,-0.0330,-0.0214,-2.5165,1.4671,3.1102
2024-10-11T12:23:29.861Z,-0.0016,-1.0072,0.0607,-0.0021,0.1686,0.3761,0.0170,-0.0373,-0.0218,-2.5165,1.4671,3.1102
2024-10-11T12:23:29.871Z,-0.0052,-1.0038,0.0544,0.0613,0.1205,0.4353,0.0231,-0.0415,-0.0241,-2.5107,1.4667,3.1032
2024-10-11T12:23:29.881Z,-0.0116,-0.9933,0.0571,0.0613,0.1205,0.4353,0.0250,-0.0450,-0.0243,-2.5107,1.4667,3.1032
2024-10-11T12:23:29.891Z,-0.0098,-0.9888,0.0729,0.0613,0.1205,0.4353,0.0287,-0.0442,-0.0265,-2.5107,1.4667,3.1032
2024-10-11T12:23:29.900Z,-0.0196,-0.9948,0.0836,0.1488,-0.0482,0.2921,0.0304,-0.0487,-0.0268,-2.5041,1.4659,3.0951
2024-10-11T12:23:29.911Z,-0.0198,-0.9996,0.0879,0.1488,-0.0482,0.2921,0.0356,-0.0532,-0.0306,-2.5041,1.4659,3.0951
2024-10-11T12:23:29.921Z,-0.0147,-1.0079,0.0881,0.1488,-0.0482,0.2921,0.0361,-0.0518,-0.0314,-2.5041,1.4659,3.0951
2024-10-11T12:23:29.930Z,-0.0137,-1.0083,0.0965,0.2076,0.1314,0.1596,0.0388,-0.0509,-0.0309,-2.4961,1.4649,3.0854
2024-10-11T12:23:29.941Z,-0.0013,-1.0024,0.1006,0.2076,0.1314,0.1596,0.0392,-0.0487,-0.0310,-2.4961,1.4649,3.0854
2024-10-11T12:23:29.950Z,0.0033,-1.0042,0.1028,0.2076,0.1314,0.1596,0.0380,-0.0500,-0.0294,-2.4961,1.4649,3.0854
2024-10-11T12:23:29.961Z,0.0015,-1.0074,0.1157,0.0443,0.1023,0.0276,0.0386,-0.0481,-0.0296,-2.4884,1.4637,3.0760
2024-10-11T12:23:29.971Z,0.0036,-1.0094,0.1120,0.0443,0.1023,0.0276,0.0378,-0.0476,-0.0275,-2.4884,1.4637,3.0760
2024-10-11T12:23:29.983Z,0.0060,-1.0088,0.1258,0.0108,0.1361,-0.1870,0.0326,-0.0481,-0.0284,-2.4814,1.4626,3.0674
2024-10-11T12:23:29.990Z,0.0030,-1.0004,0.1414,0.0108,0.1361,-0.1870,0.0262,-0.0483,-0.0298,-2.4814,1.4626,3.0674
2024-10-11T12:23:30.001Z,-0.0050,-0.9959,0.1555,0.0108,0.1361,-0.1870,0.0188,-0.0515,-0.0291,-2.4814,1.4626,3.0674
2024-10-11T12:23:30.012Z,0.0134,-0.9980,0.1625,-0.0687,0.0541,-0.5175,0.0186,-0.0563,-0.0254,-2.4742,1.4619,3.0585
2024-10-11T12:23:30.020Z,0.0214,-1.0095,0.1494,-0.0687,0.0541,-0.5175,0.0081,-0.0616,-0.0248,-2.4742,1.4619,3.0585
2024-10-11T12:23:30.031Z,0.0098,-1.0134,0.1489,-0.0687,0.0541,-0.5175,0.0006,-0.0580,-0.0247,-2.4742,1.4619,3.0585
2024-10-11T12:23:30.042Z,0.0069,-1.0096,0.1612,0.0338,0.1482,-0.5233,-0.0050,-0.0619,-0.0232,-2.4674,1.4618,3.0497
2024-10-11T12:23:30.050Z,0.0097,-1.0073,0.1582,0.0338,0.1482,-0.5233,-0.0075,-0.0592,-0.0228,-2.4674,1.4618,3.0497
2024-10-11T12:23:30.061Z,0.0203,-1.0085,0.1431,0.0338,0.1482,-0.5233,-0.0141,-0.0586,-0.0192,-2.4674,1.4618,3.0497
2024-10-11T12:23:30.072Z,0.0266,-1.0054,0.1279,-0.1495,0.1112,-0.1845,-0.0165,-0.0579,-0.0154,-2.4623,1.4621,3.0428
2024-10-11T12:23:30.083Z,0.0203,-1.0077,0.1203,-0.1495,0.1112,-0.1845,-0.0175,-0.0523,-0.0110,-2.4623,1.4621,3.0428
2024-10-11T12:23:30.090Z,0.0159,-1.0119,0.1171,-0.1495,0.1112,-0.1845,-0.0170,-0.0487,-0.0096,-2.4623,1.4621,3.0428
2024-10-11T12:23:30.100Z,0.0018,-1.0112,0.1046,-0.1495,0.1112,-0.1845,-0.0210,-0.0472,-0.0066,-2.4623,1.4621,3.0428
2024-10-11T12:23:30.111Z,-0.0002,-1.0029,0.1001,0.1049,0.1592,0.0317,-0.0216,-0.0483,-0.0059,-2.4597,1.4626,3.0383
2024-10-11T12:23:30.121Z,0.0045,-0.9910,0.1011,0.1049,0.1592,0.0317,-0.0189,-0.0546,-0.0049,-2.4597,1.4626,3.0383
2024-10-11T12:23:30.133Z,-0.0006,-0.9904,0.0921,0.1239,-0.0284,0.1580,-0.0191,-0.0518,-0.0029,-2.4579,1.4632,3.0349
2024-10-11T12:23:30.140Z,-0.0095,-0.9944,0.0800,0.1239,-0.0284,0.1580,-0.0204,-0.0514,-0.0025,-2.4579,1.4632,3.0349
2024-10-11T12:23:30.151Z,-0.0193,-0.9945,0.0738,0.1239,-0.0284,0.1580,-0.0183,-0.0554,-0.0047,-2.4579,1.4632,3.0349
2024-10-11T12:23:30.161Z,-0.0239,-0.9951,0.0808,0.3614,0.0075,0.2339,-0.0151,-0.0608,-0.0070,-2.4559,1.4636,3.0308
2024-10-11T12:23:30.171Z,-0.0256,-0.9992,0.0797,0.3614,0.0075,0.2339,-0.0166,-0.0573,-0.0098,-2.4559,1.4636,3.0308
2024-10-11T12:23:30.181Z,-0.0305,-1.0088,0.0885,0.3614,0.0075,0.2339,-0.0109,-0.0722,-0.0139,-2.4559,1.4636,3.0308
2024-10-11T12:23:30.191Z,-0.0397,-1.0084,0.1055,0.5154,0.1331,-0.0058,-0.0144,-0.0802,-0.0170,-2.4514,1.4639,3.0239
2024-10-11T12:23:30.201Z,-0.0444,-1.0049,0.1096,0.5154,0.1331,-0.0058,-0.0140,-0.0793,-0.0260,-2.4514,1.4639,3.0239
2024-10-11T12:23:30.211Z,-0.0519,-1.0053,0.1008,0.5154,0.1331,-0.0058,-0.0134,-0.0862,-0.0303,-2.4514,1.4639,3.0239
2024-10-11T12:23:30.222Z,-0.0438,-1.0075,0.0943,0.5646,0.1278,0.1397,-0.0110,-0.0928,-0.0362,-2.4417,1.4641,3.0113
2024-10-11T12:23:30.231Z,-0.0411,-1.0016,0.0860,0.5646,0.1278,0.1397,-0.0097,-0.0916,-0.0414,-2.4417,1.4641,3.0113
2024-10-11T12:23:30.241Z,-0.0271,-0.9930,0.0817,0.5646,0.1278,0.1397,-0.0065,-0.0937,-0.0477,-2.4417,1.4641,3.0113
2024-10-11T12:23:30.252Z,-0.0170,-0.9861,0.0803,0.3193,-0.0835,0.2575,-0.0019,-0.0959,-0.0468,-2.4296,1.4640,2.9962
2024-10-11T12:23:30.261Z,-0.0204,-0.9829,0.0712,0.3193,-0.0835,0.2575,-0.0005,-0.0990,-0.0470,-2.4296,1.4640,2.9962
2024-10-11T12:23:30.270Z,-0.0177,-0.9792,0.0708,0.3193,-0.0835,0.2575,0.0031,-0.0968,-0.0480,-2.4296,1.4640,2.9962
2024-10-11T12:23:30.283Z,-0.0246,-0.9781,0.0735,0.4225,-0.1559,0.3073,0.0057,-0.0976,-0.0494,-2.4168,1.4637,2.9803
2024-10-11T12:23:30.290Z,-0.0299,-0.9780,0.0854,0.4225,-0.1559,0.3073,0.0065,-0.0978,-0.0495,-2.4168,1.4637,2.9803
2024-10-11T12:23:30.301Z,-0.0200,-0.9774,0.0873,0.4225,-0.1559,0.3073,0.0076,-0.0955,-0.0508,-2.4168,1.4637,2.9803
2024-10-11T12:23:30.311Z,-0.0131,-0.9784,0.1056,0.3066,-0.1680,-0.0166,0.0063,-0.0915,-0.0486,-2.4034,1.4632,2.9639
2024-10-11T12:23:30.321Z,-0.0082,-0.9738,0.1160,0.3066,-0.1680,-0.0166,0.0023,-0.0872,-0.0495,-2.4034,1.4632,2.9639
2024-10-11T12:23:30.331Z,-0.0029,-0.9788,0.1177,0.3066,-0.1680,-0.0166,-0.0002,-0.0834,-0.0480,-2.4034,1.4632,2.9639
2024-10-11T12:23:30.341Z,0.0092,-0.9790,0.1211,0.1047,-0.1455,-0.1644,-0.0011,-0.0729,-0.0448,-2.3910,1.4629,2.9490
2024-10-11T12:23:30.351Z,0.0108,-0.9865,0.1216,0.1047,-0.1455,-0.1644,-0.0040,-0.0592,-0.0418,-2.3910,1.4629,2.9490
2024-10-11T12:23:30.361Z,0.0085,-0.9885,0.1204,0.1047,-0.1455,-0.1644,-0.0078,-0.0495,-0.0384,-2.3910,1.4629,2.9490
2024-10-11T12:23:30.371Z,0.0161,-0.9885,0.1181,0.0548,-0.0602,-0.1279,-0.0077,-0.0457,-0.0372,-2.3804,1.4628,2.9365
2024-10-11T12:23:30.381Z,0.0161,-0.9857,0.1210,0.0548,-0.0602,-0.1279,-0.0068,-0.0393,-0.0334,-2.3804,1.4628,2.9365
2024-10-11T12:23:30.390Z,0.0137,-0.9842,0.1135,0.0548,-0.0602,-0.1279,-0.0122,-0.0327,-0.0336,-2.3804,1.4628,2.9365
2024-10-11T12:23:30.401Z,0.0138,-0.9831,0.1046,0.0918,-0.1053,0.0306,-0.0089,-0.0265,-0.0325,-2.3710,1.4628,2.9261
2024-10-11T12:23:30.411Z,0.0159,-0.9781,0.0848,0.0918,-0.1053,0.0306,-0.0078,-0.0164,-0.0273,-2.3710,1.4628,2.9261
2024-10-11T12:23:30.421Z,0.0250,-0.9714,0.0683,0.0918,-0.1053,0.0306,-0.0051,-0.0064,-0.0281,-2.3710,1.4628,2.9261
2024-10-11T12:23:30.432Z,0.0279,-0.9679,0.0483,-0.0434,-0.2568,0.5787,0.0010,0.0007,-0.0248,-2.3640,1.4627,2.9187
2024-10-11T12:23:30.441Z,0.0283,-0.9665,0.0341,-0.0434,-0.2568,0.5787,0.0121,0.0027,-0.0190,-2.3640,1.4627,2.9187
2024-10-11T12:23:30.451Z,0.0389,-0.9652,0.0216,-0.0434,-0.2568,0.5787,0.0127,0.0126,-0.0185,-2.3640,1.4627,2.9187
2024-10-11T12:23:30.461Z,0.0333,-0.9680,0.0213,-0.0868,-0.2498,0.8177,0.0181,0.0214,-0.0137,-2.3613,1.4621,2.9161
2024-10-11T12:23:30.471Z,0.0409,-0.9690,0.0390,-0.0868,-0.2498,0.8177,0.0249,0.0256,-0.0094,-2.3613,1.4621,2.9161
2024-10-11T12:23:30.481Z,0.0476,-0.9782,0.0434,-0.0868,-0.2498,0.8177,0.0276,0.0334,-0.0078,-2.3613,1.4621,2.9161
2024-10-11T12:23:30.490Z,0.0487,-0.9888,0.0550,-0.2523,-0.0400,0.4912,0.0289,0.0356,-0.0019,-2.3624,1.4612,2.9179
2024-10-11T12:23:30.500Z,0.0538,-0.9917,0.0664,-0.2523,-0.0400,0.4912,0.0315,0.0436,0.0076,-2.3624,1.4612,2.9179
2024-10-11T12:23:30.511Z,0.0541,-0.9933,0.0862,-0.2523,-0.0400,0.4912,0.0320,0.0493,0.0083,-2.3624,1.4612,2.9179
2024-10-11T12:23:30.521Z,0.0581,-0.9945,0.1064,-0.3317,0.0126,-0.0060,0.0307,0.0507,0.0174,-2.3676,1.4605,2.9242
2024-10-11T12:23:30.532Z,0.0537,-0.9998,0.1156,-0.3317,0.0126,-0.0060,0.0280,0.0578,0.0224,-2.3676,1.4605,2.9242
2024-10-11T12:23:30.540Z,0.0583,-1.0020,0.1134,-0.3317,0.0126,-0.0060,0.0272,0.0619,0.0303,-2.3676,1.4605,2.9242
2024-10-11T12:23:30.551Z,0.0635,-1.0116,0.1083,-0.3985,0.1855,0.0145,0.0294,0.0621,0.0372,-2.3774,1.4599,2.9355
2024-10-11T12:23:30.561Z,0.0530,-1.0130,0.1099,-0.3985,0.1855,0.0145,0.0293,0.0683,0.0416,-2.3774,1.4599,2.9355
2024-10-11T12:23:30.571Z,0.0416,-1.0084,0.1164,-0.3985,0.1855,0.0145,0.0294,0.0733,0.0431,-2.3774,1.4599,2.9355
2024-10-11T12:23:30.582Z,0.0484,-1.0037,0.1139,-0.2626,0.0942,-0.0442,0.0292,0.0705,0.0451,-2.3902,1.4594,2.9499
2024-10-11T12:23:30.590Z,0.0367,-1.0066,0.1105,-0.2626,0.0942,-0.0442,0.0281,0.0675,0.0472,-2.3902,1.4594,2.9499
2024-10-11T12:23:30.601Z,0.0375,-1.0122,0.1196,-0.2626,0.0942,-0.0442,0.0263,0.0728,0.0489,-2.3902,1.4594,2.9499
2024-10-11T12:23:30.611Z,0.0391,-1.0220,0.1197,-0.2041,0.2846,-0.1140,0.0220,0.0744,0.0538,-2.4046,1.4590,2.9662
2024-10-11T12:23:30.621Z,0.0439,-1.0277,0.1303,-0.2041,0.2846,-0.1140,0.0152,0.0799,0.0547,-2.4046,1.4590,2.9662
2024-10-11T12:23:30.631Z,0.0437,-1.0250,0.1328,-0.2041,0.2846,-0.1140,0.0088,0.0798,0.0546,-2.4046,1.4590,2.9662
2024-10-11T12:23:30.641Z,0.0413,-1.0219,0.1496,-0.2257,0.2840,-0.3904,0.0035,0.0779,0.0559,-2.4198,1.4590,2.9833
2024-10-11T12:23:30.651Z,0.0398,-1.0220,0.1547,-0.2257,0.2840,-0.3904,-0.0044,0.0756,0.0598,-2.4198,1.4590,2.9833
2024-10-11T12:23:30.661Z,0.0427,-1.0244,0.1609,-0.2257,0.2840,-0.3904,-0.0103,0.0701,0.0604,-2.4198,1.4590,2.9833
2024-10-11T12:23:30.671Z,0.0397,-1.0248,0.1666,-0.2289,0.2971,-0.5486,-0.0191,0.0756,0.0584,-2.4352,1.4596,3.0005
2024-10-11T12:23:30.682Z,0.0408,-1.0227,0.1599,-0.2289,0.2971,-0.5486,-0.0255,0.0647,0.0579,-2.4352,1.4596,3.0005
2024-10-11T12:23:30.690Z,0.0317,-1.0176,0.1614,-0.2289,0.2971,-0.5486,-0.0323,0.0661,0.0618,-2.4352,1.4596,3.0005
2024-10-11T12:23:30.702Z,0.0228,-1.0167,0.1552,-0.0793,0.2291,-0.4416,-0.0388,0.0571,0.0553,-2.4496,1.4608,3.0164
2024-10-11T12:23:30.710Z,0.0127,-1.0190,0.1483,-0.0793,0.2291,-0.4416,-0.0442,0.0507,0.0523,-2.4496,1.4608,3.0164
2024-10-11T12:23:30.721Z,0.0115,-1.0139,0.1429,-0.0793,0.2291,-0.4416,-0.0476,0.0481,0.0522,-2.4496,1.4608,3.0164
2024-10-11T12:23:30.731Z,0.0157,-1.0073,0.1294,-0.0347,0.1253,-0.1956,-0.0469,0.0479,0.0468,-2.4616,1.4623,3.0296
2024-10-11T12:23:30.740Z,0.0187,-1.0088,0.1152,-0.0347,0.1253,-0.1956,-0.0501,0.0457,0.0460,-2.4616,1.4623,3.0296
2024-10-11T12:23:30.752Z,0.0231,-1.0066,0.1075,-0.0347,0.1253,-0.1956,-0.0503,0.0450,0.0449,-2.4616,1.4623,3.0296
2024-10-11T12:23:30.761Z,0.0108,-0.9912,0.1036,0.0204,-0.0430,0.0010,-0.0537,0.0412,0.0402,-2.4719,1.4639,3.0407
2024-10-11T12:23:30.771Z,0.0003,-0.9835,0.0991,0.0204,-0.0430,0.0010,-0.0480,0.0340,0.0359,-2.4719,1.4639,3.0407
2024-10-11T12:23:30.781Z,0.0017,-0.9845,0.0795,0.0204,-0.0430,0.0010,-0.0478,0.0283,0.0311,-2.4719,1.4639,3.0407
2024-10-11T12:23:30.790Z,-0.0077,-0.9848,0.0583,0.1954,-0.1001,0.4782,-0.0398,0.0297,0.0286,-2.4793,1.4653,3.0488
2024-10-11T12:23:30.801Z,-0.0111,-0.9761,0.0464,0.1954,-0.1001,0.4782,-0.0356,0.0281,0.0242,-2.4793,1.4653,3.0488
2024-10-11T12:23:30.811Z,-0.0123,-0.9739,0.0540,0.1954,-0.1001,0.4782,-0.0314,0.0180,0.0151,-2.4793,1.4653,3.0488
2024-10-11T12:23:30.821Z,-0.0205,-0.9776,0.0582,0.2884,-0.1502,0.4526,-0.0212,0.0154,0.0105,-2.4833,1.4661,3.0531
2024-10-11T12:23:30.830Z,-0.0190,-0.9864,0.0458,0.2884,-0.1502,0.4526,-0.0175,0.0174,0.0079,-2.4833,1.4661,3.0531
2024-10-11T12:23:30.841Z,-0.0228,-0.9870,0.0454,0.2884,-0.1502,0.4526,-0.0108,0.0185,0.0020,-2.4833,1.4661,3.0531
2024-10-11T12:23:30.851Z,-0.0246,-0.9844,0.0602,0.3360,-0.0917,0.4098,-0.0026,0.0203,-0.0040,-2.4834,1.4664,3.0534
2024-10-11T12:23:30.861Z,-0.0269,-0.9920,0.0607,0.3360,-0.0917,0.4098,0.0030,0.0158,-0.0093,-2.4834,1.4664,3.0534
2024-10-11T12:23:30.871Z,-0.0285,-1.0022,0.0676,0.3360,-0.0917,0.4098,0.0104,0.0159,-0.0159,-2.4834,1.4664,3.0534
2024-10-11T12:23:30.881Z,-0.0393,-0.9995,0.0808,0.4831,0.0309,0.2110,0.0093,0.0146,-0.0186,-2.4795,1.4661,3.0499
2024-10-11T12:23:30.891Z,-0.0425,-0.9863,0.1070,0.4831,0.0309,0.2110,0.0093,0.0173,-0.0247,-2.4795,1.4661,3.0499
2024-10-11T12:23:30.900Z,-0.0384,-0.9883,0.1135,0.4831,0.0309,0.2110,0.0083,0.0176,-0.0284,-2.4795,1.4661,3.0499
2024-10-11T12:23:30.911Z,-0.0210,-0.9898,0.1315,0.2851,-0.0458,-0.2699,0.0061,0.0177,-0.0288,-2.4725,1.4659,3.0431
2024-10-11T12:23:30.921Z,-0.0137,-0.9859,0.1355,0.2851,-0.0458,-0.2699,0.0034,0.0276,-0.0283,-2.4725,1.4659,3.0431
2024-10-11T12:23:30.930Z,-0.0087,-0.9806,0.1281,0.2851,-0.0458,-0.2699,0.0019,0.0357,-0.0265,-2.4725,1.4659,3.0431
2024-10-11T12:23:30.941Z,-0.0059,-0.9821,0.1331,0.1674,-0.1285,-0.2834,-0.0000,0.0496,-0.0261,-2.4655,1.4659,3.0372
2024-10-11T12:23:30.950Z,-0.0103,-0.9818,0.1414,0.1674,-0.1285,-0.2834,0.0014,0.0591,-0.0258,-2.4655,1.4659,3.0372
2024-10-11T12:23:30.961Z,-0.0143,-0.9838,0.1369,0.1674,-0.1285,-0.2834,0.0033,0.0641,-0.0269,-2.4655,1.4659,3.0372
2024-10-11T12:23:30.971Z,-0.0139,-0.9864,0.1308,0.2447,-0.0790,-0.2580,0.0046,0.0754,-0.0261,-2.4592,1.4657,3.0329
2024-10-11T12:23:30.981Z,-0.0070,-0.9922,0.1337,0.2447,-0.0790,-0.2580,0.0048,0.0851,-0.0251,-2.4592,1.4657,3.0329
2024-10-11T12:23:30.991Z,-0.0005,-1.0008,0.1236,0.2447,-0.0790,-0.2580,0.0065,0.0935,-0.0239,-2.4592,1.4657,3.0329
2024-10-11T12:23:31.001Z,0.0013,-1.0022,0.1316,0.1068,0.0781,-0.2867,0.0051,0.1002,-0.0239,-2.4537,1.4654,3.0300
2024-10-11T12:23:31.011Z,0.0094,-0.9994,0.1454,0.1068,0.0781,-0.2867,0.0026,0.1083,-0.0201,-2.4537,1.4654,3.0300
2024-10-11T12:23:31.021Z,0.0176,-1.0010,0.1467,0.1068,0.0781,-0.2867,-0.0043,0.1113,-0.0217,-2.4537,1.4654,3.0300
2024-10-11T12:23:31.031Z,0.0102,-1.0055,0.1457,0.0066,0.1087,-0.4288,-0.0057,0.1025,-0.0190,-2.4483,1.4653,3.0275
2024-10-11T12:23:31.041Z,0.0220,-1.0036,0.1547,0.0066,0.1087,-0.4288,-0.0101,0.1011,-0.0175,-2.4483,1.4653,3.0275
2024-10-11T12:23:31.050Z,0.0180,-1.0010,0.1620,0.0066,0.1087,-0.4288,-0.0181,0.1012,-0.0218,-2.4483,1.4653,3.0275
2024-10-11T12:23:31.061Z,0.0086,-1.0069,0.1658,0.0352,0.1247,-0.6072,-0.0219,0.0994,-0.0198,-2.4429,1.4658,3.0250
2024-10-11T12:23:31.071Z,0.0124,-1.0083,0.1606,0.0352,0.1247,-0.6072,-0.0251,0.1024,-0.0206,-2.4429,1.4658,3.0250
2024-10-11T12:23:31.080Z,0.0245,-1.0038,0.1505,0.0352,0.1247,-0.6072,-0.0302,0.0956,-0.0181,-2.4429,1.4658,3.0250
2024-10-11T12:23:31.091Z,0.0262,-0.9903,0.1417,-0.1304,-0.0620,-0.3756,-0.0322,0.0921,-0.0168,-2.4369,1.4666,3.0216
2024-10-11T12:23:31.100Z,0.0279,-0.9718,0.1333,-0.1304,-0.0620,-0.3756,-0.0390,0.0833,-0.0163,-2.4369,1.4666,3.0216
2024-10-11T12:23:31.111Z,0.0342,-0.9571,0.1202,-0.1304,-0.0620,-0.3756,-0.0382,0.0797,-0.0168,-2.4369,1.4666,3.0216
2024-10-11T12:23:31.120Z,0.0255,-0.9483,0.0858,-0.1275,-0.4566,0.1900,-0.0372,0.0766,-0.0195,-2.4306,1.4676,3.0174
2024-10-11T12:23:31.131Z,0.0287,-0.9479,0.0557,-0.1275,-0.4566,0.1900,-0.0354,0.0709,-0.0203,-2.4306,1.4676,3.0174
2024-10-11T12:23:31.141Z,0.0266,-0.9539,0.0231,-0.1275,-0.4566,0.1900,-0.0301,0.0677,-0.0251,-2.4306,1.4676,3.0174
2024-10-11T12:23:31.152Z,0.0309,-0.9604,0.0006,-0.1671,-0.3249,0.9873,-0.0204,0.0599,-0.0273,-2.4223,1.4682,3.0109
2024-10-11T12:23:31.160Z,0.0303,-0.9607,0.0059,-0.1671,-0.3249,0.9873,-0.0152,0.0598,-0.0308,-2.4223,1.4682,3.0109
2024-10-11T12:23:31.171Z,0.0297,-0.9729,0.0047,-0.1671,-0.3249,0.9873,-0.0038,0.0608,-0.0355,-2.4223,1.4682,3.0109
2024-10-11T12:23:31.181Z,0.0211,-0.9905,0.0134,-0.0536,-0.0210,0.8504,0.0026,0.0589,-0.0426,-2.4113,1.4682,3.0015
2024-10-11T12:23:31.191Z,0.0137,-1.0081,0.0305,-0.0536,-0.0210,0.8504,0.0105,0.0677,-0.0483,-2.4113,1.4682,3.0015
2024-10-11T12:23:31.200Z,0.0135,-1.0154,0.0553,-0.0536,-0.0210,0.8504,0.0163,0.0638,-0.0544,-2.4113,1.4682,3.0015
2024-10-11T12:23:31.210Z,0.0254,-1.0163,0.0675,-0.0872,0.2225,0.3235,0.0173,0.0741,-0.0593,-2.3960,1.4674,2.9881
2024-10-11T12:23:31.221Z,0.0285,-1.0236,0.0773,-0.0872,0.2225,0.3235,0.0172,0.0715,-0.0613,-2.3960,1.4674,2.9881
2024-10-11T12:23:31.231Z,0.0375,-1.0179,0.0863,-0.0872,0.2225,0.3235,0.0170,0.0645,-0.0648,-2.3960,1.4674,2.9881
2024-10-11T12:23:31.241Z,0.0248,-1.0363,0.0860,-0.0646,0.4399,0.1780,0.0160,0.0603,-0.0673,-2.3789,1.4666,2.9726
2024-10-11T12:23:31.250Z,0.0288,-1.0454,0.0787,-0.0646,0.4399,0.1780,0.0158,0.0533,-0.0698,-2.3789,1.4666,2.9726
2024-10-11T12:23:31.261Z,0.0171,-1.0591,0.0700,-0.0646,0.4399,0.1780,0.0195,0.0561,-0.0795,-2.3789,1.4666,2.9726
2024-10-11T12:23:31.271Z,0.0040,-1.0703,0.0539,0.1501,0.7579,0.5124,0.0176,0.0622,-0.0897,-2.3566,1.4656,2.9520
2024-10-11T12:23:31.281Z,0.0100,-1.0807,0.0473,0.1501,0.7579,0.5124,0.0204,0.0636,-0.1021,-2.3566,1.4656,2.9520
2024-10-11T12:23:31.290Z,0.0076,-1.0803,0.0480,0.1501,0.7579,0.5124,0.0270,0.0556,-0.1094,-2.3566,1.4656,2.9520
2024-10-11T12:23:31.301Z,0.0379,-1.0741,0.0526,-0.1700,0.7876,0.5201,0.0309,0.0425,-0.1163,-2.3275,1.4641,2.9247
2024-10-11T12:23:31.311Z,0.0411,-1.0711,0.0398,-0.1700,0.7876,0.5201,0.0341,0.0266,-0.1195,-2.3275,1.4641,2.9247
2024-10-11T12:23:31.321Z,0.0685,-1.0742,0.0353,-0.1700,0.7876,0.5201,0.0358,0.0084,-0.1188,-2.3275,1.4641,2.9247
2024-10-11T12:23:31.330Z,0.0685,-1.0701,0.0368,-0.4106,0.7260,0.6735,0.0445,-0.0163,-0.1178,-2.2981,1.4622,2.8952
2024-10-11T12:23:31.341Z,0.0829,-1.0650,0.0449,-0.4106,0.7260,0.6735,0.0463,-0.0394,-0.1163,-2.2981,1.4622,2.8952
2024-10-11T12:23:31.350Z,0.0978,-1.0657,0.0381,-0.4106,0.7260,0.6735,0.0530,-0.0542,-0.1135,-2.2981,1.4622,2.8952
2024-10-11T12:23:31.361Z,0.1102,-1.0689,0.0383,-0.8018,0.7515,0.6885,0.0569,-0.0704,-0.1097,-2.2724,1.4598,2.8678
2024-10-11T12:23:31.370Z,0.1112,-1.0733,0.0399,-0.8018,0.7515,0.6885,0.0606,-0.0951,-0.1048,-2.2724,1.4598,2.8678
2024-10-11T12:23:31.381Z,0.1211,-1.0613,0.0640,-0.8018,0.7515,0.6885,0.0577,-0.1164,-0.1008,-2.2724,1.4598,2.8678
2024-10-11T12:23:31.391Z,0.1280,-1.0505,0.0727,-0.9351,0.5464,0.3383,0.0598,-0.1427,-0.0911,-2.2523,1.4572,2.8437
2024-10-11T12:23:31.401Z,0.1384,-1.0520,0.0733,-0.9351,0.5464,0.3383,0.0569,-0.1666,-0.0828,-2.2523,1.4572,2.8437
2024-10-11T12:23:31.411Z,0.1323,-1.0449,0.0880,-0.9351,0.5464,0.3383,0.0554,-0.1882,-0.0716,-2.2523,1.4572,2.8437
2024-10-11T12:23:31.421Z,0.1243,-1.0352,0.0940,-0.8674,0.4002,0.1371,0.0535,-0.2001,-0.0591,-2.2402,1.4550,2.8258
2024-10-11T12:23:31.431Z,0.1254,-1.0237,0.0952,-0.8674,0.4002,0.1371,0.0532,-0.2078,-0.0454,-2.2402,1.4550,2.8258
2024-10-11T12:23:31.441Z,0.1116,-1.0045,0.0949,-0.8674,0.4002,0.1371,0.0595,-0.2194,-0.0343,-2.2402,1.4550,2.8258
2024-10-11T12:23:31.451Z,0.0920,-0.9818,0.1026,-0.5015,-0.1472,0.0630,0.0633,-0.2231,-0.0265,-2.2376,1.4530,2.8163
2024-10-11T12:23:31.461Z,0.0751,-0.9495,0.1065,-0.5015,-0.1472,0.0630,0.0670,-0.2261,-0.0113,-2.2376,1.4530,2.8163
2024-10-11T12:23:31.471Z,0.0818,-0.9169,0.1181,-0.5015,-0.1472,0.0630,0.0717,-0.2259,0.0008,-2.2376,1.4530,2.8163
2024-10-11T12:23:31.481Z,0.0781,-0.8925,0.1298,-0.3657,-1.0222,-0.1743,0.0794,-0.2253,0.0093,-2.2442,1.4509,2.8159
2024-10-11T12:23:31.491Z,0.0626,-0.8604,0.1380,-0.3657,-1.0222,-0.1743,0.0884,-0.2187,0.0188,-2.2442,1.4509,2.8159
2024-10-11T12:23:31.501Z,0.0389,-0.8370,0.1434,-0.3657,-1.0222,-0.1743,0.0956,-0.2111,0.0283,-2.2442,1.4509,2.8159
2024-10-11T12:23:31.511Z,0.0455,-0.8220,0.1531,-0.0531,-1.6699,-0.3386,0.1034,-0.1958,0.0385,-2.2588,1.4484,2.8244
2024-10-11T12:23:31.521Z,0.0422,-0.8240,0.1440,-0.0531,-1.6699,-0.3386,0.1037,-0.1734,0.0479,-2.2588,1.4484,2.8244
2024-10-11T12:23:31.531Z,0.0381,-0.8291,0.1380,-0.0531,-1.6699,-0.3386,0.1065,-0.1499,0.0547,-2.2588,1.4484,2.8244
2024-10-11T12:23:31.541Z,0.0256,-0.8275,0.1479,0.1353,-1.6167,-0.2613,0.1064,-0.1214,0.0670,-2.2804,1.4460,2.8412
2024-10-11T12:23:31.551Z,0.0168,-0.8246,0.1527,0.1353,-1.6167,-0.2613,0.1027,-0.1070,0.0764,-2.2804,1.4460,2.8412
2024-10-11T12:23:31.561Z,0.0025,-0.8283,0.1532,0.1353,-1.6167,-0.2613,0.1005,-0.0877,0.0867,-2.2804,1.4460,2.8412
2024-10-11T12:23:31.570Z,-0.0023,-0.8297,0.1719,0.3758,-1.5911,-0.5014,0.0956,-0.0649,0.0964,-2.3074,1.4439,2.8653
2024-10-11T12:23:31.581Z,-0.0078,-0.8345,0.1940,0.3758,-1.5911,-0.5014,0.0918,-0.0445,0.1038,-2.3074,1.4439,2.8653
2024-10-11T12:23:31.591Z,-0.0112,-0.8466,0.1957,0.3758,-1.5911,-0.5014,0.0944,-0.0232,0.1094,-2.3074,1.4439,2.8653
2024-10-11T12:23:31.602Z,0.0016,-0.8629,0.1908,0.3028,-1.2573,-0.6379,0.0961,-0.0058,0.1176,-2.3387,1.4420,2.8955
2024-10-11T12:23:31.610Z,-0.0012,-0.8699,0.2036,0.3028,-1.2573,-0.6379,0.0932,0.0023,0.1269,-2.3387,1.4420,2.8955
2024-10-11T12:23:31.620Z,-0.0041,-0.8723,0.2049,0.3028,-1.2573,-0.6379,0.0948,0.0088,0.1343,-2.3387,1.4420,2.8955
2024-10-11T12:23:31.631Z,-0.0057,-0.8795,0.2051,0.3215,-1.0837,-0.7675,0.0901,0.0128,0.1423,-2.3742,1.4403,2.9308
2024-10-11T12:23:31.641Z,-0.0054,-0.8958,0.1930,0.3215,-1.0837,-0.7675,0.0846,0.0215,0.1479,-2.3742,1.4403,2.9308
2024-10-11T12:23:31.651Z,-0.0103,-0.9091,0.1685,0.3215,-1.0837,-0.7675,0.0804,0.0252,0.1567,-2.3742,1.4403,2.9308
2024-10-11T12:23:31.661Z,-0.0103,-0.9110,0.1550,0.3272,-0.8011,-0.2451,0.0710,0.0278,0.1593,-2.4125,1.4389,2.9692
2024-10-11T12:23:31.671Z,-0.0194,-0.9078,0.1519,0.3272,-0.8011,-0.2451,0.0639,0.0265,0.1641,-2.4125,1.4389,2.9692
2024-10-11T12:23:31.681Z,-0.0197,-0.9060,0.1356,0.3272,-0.8011,-0.2451,0.0591,0.0276,0.1690,-2.4125,1.4389,2.9692
2024-10-11T12:23:31.691Z,-0.0223,-0.9041,0.1079,0.4002,-0.8459,0.2506,0.0572,0.0275,0.1693,-2.4518,1.4379,3.0089
2024-10-11T12:23:31.701Z,-0.0278,-0.9072,0.0916,0.4002,-0.8459,0.2506,0.0568,0.0382,0.1663,-2.4518,1.4379,3.0089
2024-10-11T12:23:31.711Z,-0.0297,-0.9120,0.0812,0.4002,-0.8459,0.2506,0.0596,0.0506,0.1635,-2.4518,1.4379,3.0089
2024-10-11T12:23:31.720Z,-0.0464,-0.9151,0.0644,0.5504,-0.7593,0.6801,0.0682,0.0488,0.1578,-2.4900,1.4365,3.0476
2024-10-11T12:23:31.731Z,-0.0310,-0.9100,0.0654,0.5504,-0.7593,0.6801,0.0748,0.0461,0.1546,-2.4900,1.4365,3.0476
2024-10-11T12:23:31.740Z,-0.0353,-0.9119,0.0699,0.5504,-0.7593,0.6801,0.0839,0.0440,0.1499,-2.4900,1.4365,3.0476
2024-10-11T12:23:31.751Z,-0.0155,-0.9031,0.0802,0.2178,-0.8532,0.5230,0.0839,0.0463,0.1455,-2.5244,1.4343,3.0829
2024-10-11T12:23:31.761Z,-0.0228,-0.9133,0.1048,0.2178,-0.8532,0.5230,0.0841,0.0552,0.1396,-2.5244,1.4343,3.0829
2024-10-11T12:23:31.770Z,-0.0012,-0.9208,0.1074,0.2178,-0.8532,0.5230,0.0841,0.0416,0.1369,-2.5244,1.4343,3.0829
2024-10-11T12:23:31.781Z,-0.0183,-0.9355,0.1206,0.2714,-0.5279,0.1755,0.0758,0.0509,0.1337,-2.5548,1.4322,3.1151
2024-10-11T12:23:31.791Z,-0.0145,-0.9417,0.1204,0.2714,-0.5279,0.1755,0.0677,0.0602,0.1295,-2.5548,1.4322,3.1151
2024-10-11T12:23:31.801Z,-0.0262,-0.9514,0.1119,0.2714,-0.5279,0.1755,0.0610,0.0663,0.1202,-2.5548,1.4322,3.1151
2024-10-11T12:23:31.811Z,-0.0099,-0.9637,0.0884,0.0843,-0.2343,0.5365,0.0556,0.0673,0.1113,-2.5799,1.4305,-3.1412
2024-10-11T12:23:31.820Z,-0.0144,-0.9817,0.0717,0.0843,-0.2343,0.5365,0.0518,0.0743,0.1012,-2.5799,1.4305,-3.1412
2024-10-11T12:23:31.831Z,-0.0204,-0.9882,0.0544,0.0843,-0.2343,0.5365,0.0558,0.0805,0.0902,-2.5799,1.4305,-3.1412
2024-10-11T12:23:31.841Z,-0.0262,-0.9953,0.0410,0.2311,0.0619,0.9911,0.0594,0.0856,0.0782,-2.5987,1.4287,-3.1206
2024-10-11T12:23:31.852Z,-0.0236,-0.9942,0.0460,0.2311,0.0619,0.9911,0.0679,0.0875,0.0645,-2.5987,1.4287,-3.1206
2024-10-11T12:23:31.861Z,-0.0315,-0.9909,0.0557,0.2311,0.0619,0.9911,0.0729,0.0937,0.0530,-2.5987,1.4287,-3.1206
2024-10-11T12:23:31.870Z,-0.0219,-1.0013,0.0690,0.1448,0.1210,0.7205,0.0787,0.0989,0.0420,-2.6091,1.4264,-3.1078
2024-10-11T12:23:31.881Z,0.0012,-1.0084,0.0882,0.1448,0.1210,0.7205,0.0832,0.0939,0.0341,-2.6091,1.4264,-3.1078
2024-10-11T12:23:31.891Z,0.0194,-1.0335,0.0888,0.1448,0.1210,0.7205,0.0861,0.0905,0.0250,-2.6091,1.4264,-3.1078
2024-10-11T12:23:31.901Z,0.0163,-1.0548,0.0998,-0.2296,0.6606,0.4312,0.0844,0.0881,0.0206,-2.6135,1.4239,-3.1007
2024-10-11T12:23:31.911Z,0.0273,-1.0731,0.1366,-0.2296,0.6606,0.4312,0.0762,0.0884,0.0173,-2.6135,1.4239,-3.1007
2024-10-11T12:23:31.921Z,0.0250,-1.0928,0.1579,-0.2296,0.6606,0.4312,0.0701,0.0823,0.0065,-2.6135,1.4239,-3.1007
2024-10-11T12:23:31.931Z,0.0219,-1.1066,0.1683,-0.2757,1.1771,-0.1868,0.0608,0.0688,-0.0018,-2.6143,1.4218,-3.0980
2024-10-11T12:23:31.941Z,0.0212,-1.1214,0.1794,-0.2757,1.1771,-0.1868,0.0559,0.0522,-0.0040,-2.6143,1.4218,-3.0980
2024-10-11T12:23:31.951Z,0.0468,-1.1271,0.1916,-0.2757,1.1771,-0.1868,0.0471,0.0338,-0.0064,-2.6143,1.4218,-3.0980
2024-10-11T12:23:31.961Z,0.0448,-1.1455,0.1940,-0.5261,1.5531,-0.4163,0.0419,0.0034,-0.0069,-2.6128,1.4204,-3.0991
2024-10-11T12:23:31.971Z,0.0564,-1.1654,0.2064,-0.5261,1.5531,-0.4163,0.0326,-0.0096,-0.0102,-2.6128,1.4204,-3.0991
2024-10-11T12:23:31.981Z,0.0404,-1.1808,0.2020,-0.5261,1.5531,-0.4163,0.0304,-0.0310,-0.0095,-2.6128,1.4204,-3.0991
2024-10-11T12:23:31.990Z,0.0453,-1.1750,0.1908,-0.4724,1.8206,-0.3798,0.0228,-0.0359,-0.0043,-2.6113,1.4196,-3.1019
2024-10-11T12:23:32.001Z,0.0354,-1.1694,0.1874,-0.4724,1.8206,-0.3798,0.0147,-0.0379,-0.0081,-2.6113,1.4196,-3.1019
2024-10-11T12:23:32.012Z,0.0328,-1.1552,0.1918,-0.4724,1.8206,-0.3798,0.0015,-0.0270,-0.0074,-2.6113,1.4196,-3.1019
2024-10-11T12:23:32.020Z,0.0305,-1.1413,0.1839,-0.3499,1.4698,-0.3254,0.0015,-0.0270,-0.0074,-2.6098,1.4194,-3.1045
2024-10-11T12:23:32.031Z,0.0230,-1.1231,0.1875,-0.3499,1.4698,-0.3254,-0.0116,-0.0110,-0.0099,-2.6098,1.4194,-3.1045
2024-10-11T12:23:32.040Z,0.0208,-1.1069,0.2007,-0.3499,1.4698,-0.3254,-0.0219,0.0067,-0.0083,-2.6098,1.4194,-3.1045
2024-10-11T12:23:32.052Z,0.0046,-1.1026,0.2062,-0.0684,1.1180,-0.5829,-0.0299,0.0216,-0.0067,-2.6088,1.4201,-3.1054
2024-10-11T12:23:32.061Z,-0.0058,-1.1072,0.2095,-0.0684,1.1180,-0.5829,-0.0435,0.0320,-0.0039,-2.6088,1.4201,-3.1054
2024-10-11T12:23:32.070Z,-0.0059,-1.1054,0.2160,-0.0684,1.1180,-0.5829,-0.0531,0.0414,0.0038,-2.6088,1.4201,-3.1054
2024-10-11T12:23:32.081Z,-0.0082,-1.1154,0.2173,0.0337,1.2506,-0.6991,-0.0617,0.0443,0.0099,-2.6104,1.4217,-3.1028
2024-10-11T12:23:32.092Z,-0.0112,-1.1202,0.2166,0.0337,1.2506,-0.6991,-0.0846,0.0420,0.0185,-2.6104,1.4217,-3.1028
2024-10-11T12:23:32.101Z,-0.0288,-1.1209,0.2270,0.0337,1.2506,-0.6991,-0.0846,0.0420,0.0185,-2.6104,1.4217,-3.1028
2024-10-11T12:23:32.111Z,-0.0317,-1.1149,0.2333,0.2428,1.2151,-0.8601,-0.0976,0.0251,0.0225,-2.6149,1.4242,-3.0974
2024-10-11T12:23:32.122Z,-0.0252,-1.1044,0.2190,0.2428,1.2151,-0.8601,-0.1050,0.0163,0.0219,-2.6149,1.4242,-3.0974
2024-10-11T12:23:32.131Z,-0.0331,-1.1051,0.2129,0.2428,1.2151,-0.8601,-0.1165,0.0037,0.0197,-2.6149,1.4242,-3.0974
2024-10-11T12:23:32.140Z,-0.0338,-1.0850,0.2196,0.2557,0.9091,-0.7476,-0.1165,0.0037,0.0197,-2.6203,1.4274,-3.0920
2024-10-11T12:23:32.151Z,-0.0389,-1.0588,0.2086,0.2557,0.9091,-0.7476,-0.1225,-0.0106,0.0158,-2.6203,1.4274,-3.0920
2024-10-11T12:23:32.161Z,-0.0477,-1.0428,0.1917,0.2557,0.9091,-0.7476,-0.1332,-0.0255,0.0080,-2.6203,1.4274,-3.0920
2024-10-11T12:23:32.171Z,-0.0523,-1.0267,0.1718,0.4425,0.3527,-0.2816,-0.1325,-0.0304,0.0071,-2.6248,1.4312,-3.0886
2024-10-11T12:23:32.181Z,-0.0605,-1.0172,0.1583,0.4425,0.3527,-0.2816,-0.1361,-0.0354,0.0050,-2.6248,1.4312,-3.0886
2024-10-11T12:23:32.191Z,-0.0648,-1.0154,0.1535,0.4425,0.3527,-0.2816,-0.1357,-0.0407,-0.0003,-2.6248,1.4312,-3.0886
2024-10-11T12:23:32.201Z,-0.0583,-1.0129,0.1618,0.5187,0.2094,-0.2533,-0.1357,-0.0407,-0.0003,-2.6270,1.4352,-3.0879
2024-10-11T12:23:32.211Z,-0.0630,-1.0116,0.1549,0.5187,0.2094,-0.2533,-0.1306,-0.0444,-0.0114,-2.6270,1.4352,-3.0879
2024-10-11T12:23:32.220Z,-0.0687,-1.0011,0.1384,0.5187,0.2094,-0.2533,-0.1306,-0.0444,-0.0114,-2.6270,1.4352,-3.0879
2024-10-11T12:23:32.231Z,-0.0800,-0.9880,0.1276,0.7219,-0.0370,0.0490,-0.1169,-0.0388,-0.0228,-2.6253,1.4390,-3.0912
2024-10-11T12:23:32.241Z,-0.0774,-0.9836,0.1211,0.7219,-0.0370,0.0490,-0.1092,-0.0338,-0.0269,-2.6253,1.4390,-3.0912
2024-10-11T12:23:32.251Z,-0.0726,-0.9682,0.1096,0.7219,-0.0370,0.0490,-0.1092,-0.0338,-0.0269,-2.6253,1.4390,-3.0912
2024-10-11T12:23:32.261Z,-0.0763,-0.9596,0.1013,0.7060,-0.3153,0.2611,-0.1000,-0.0318,-0.0378,-2.6200,1.4422,-3.0979
2024-10-11T12:23:32.271Z,-0.0816,-0.9634,0.0976,0.7060,-0.3153,0.2611,-0.1000,-0.0318,-0.0378,-2.6200,1.4422,-3.0979
2024-10-11T12:23:32.281Z,-0.0791,-0.9767,0.0885,0.7060,-0.3153,0.2611,-0.0909,-0.0350,-0.0488,-2.6200,1.4422,-3.0979
2024-10-11T12:23:32.291Z,-0.0821,-0.9889,0.0909,0.7752,-0.0254,0.3205,-0.0914,-0.0336,-0.0600,-2.6105,1.4451,-3.1085
2024-10-11T12:23:32.301Z,-0.0945,-0.9950,0.1115,0.7752,-0.0254,0.3205,-0.0914,-0.0336,-0.0600,-2.6105,1.4451,-3.1085
2024-10-11T12:23:32.311Z,-0.1067,-0.9960,0.1374,0.7752,-0.0254,0.3205,-0.1021,-0.0154,-0.0802,-2.6105,1.4451,-3.1085
2024-10-11T12:23:32.322Z,-0.1147,-0.9980,0.1604,1.1193,0.0575,-0.4101,-0.1073,-0.0039,-0.0941,-2.5938,1.4480,-3.1260
2024-10-11T12:23:32.331Z,-0.1262,-0.9943,0.1848,1.1193,0.0575,-0.4101,-0.1094,0.0042,-0.1026,-2.5938,1.4480,-3.1260
2024-10-11T12:23:32.341Z,-0.1225,-0.9907,0.1971,1.1193,0.0575,-0.4101,-0.1120,0.0016,-0.1127,-2.5938,1.4480,-3.1260
2024-10-11T12:23:32.353Z,-0.1120,-0.9874,0.2016,1.0933,-0.0586,-0.8046,-0.1096,0.0098,-0.1238,-2.5678,1.4512,3.1312
2024-10-11T12:23:32.361Z,-0.1034,-0.9871,0.1962,1.0933,-0.0586,-0.8046,-0.1052,0.0049,-0.1302,-2.5678,1.4512,3.1312
2024-10-11T12:23:32.371Z,-0.0872,-0.9901,0.1888,1.0933,-0.0586,-0.8046,-0.0996,0.0002,-0.1392,-2.5678,1.4512,3.1312
2024-10-11T12:23:32.381Z,-0.0749,-0.9915,0.1822,0.7823,-0.0238,-0.6409,-0.0938,-0.0051,-0.1502,-2.5334,1.4542,3.0969
2024-10-11T12:23:32.391Z,-0.0729,-0.9932,0.1770,0.7823,-0.0238,-0.6409,-0.0862,-0.0141,-0.1580,-2.5334,1.4542,3.0969
2024-10-11T12:23:32.402Z,-0.0633,-0.9987,0.1493,0.7823,-0.0238,-0.6409,-0.0806,-0.0177,-0.1640,-2.5334,1.4542,3.0969
2024-10-11T12:23:32.410Z,-0.0431,-1.0023,0.1269,0.4934,0.1153,-0.1214,-0.0806,-0.0177,-0.1640,-2.4907,1.4564,3.0540
2024-10-11T12:23:32.421Z,-0.0217,-1.0150,0.1177,0.4934,0.1153,-0.1214,-0.0735,-0.0246,-0.1684,-2.4907,1.4564,3.0540
2024-10-11T12:23:32.431Z,-0.0005,-1.0083,0.1139,0.4934,0.1153,-0.1214,-0.0736,-0.0254,-0.1661,-2.4907,1.4564,3.0540
2024-10-11T12:23:32.441Z,0.0109,-1.0085,0.1140,0.0241,0.1498,-0.0378,-0.0760,-0.0262,-0.1655,-2.4450,1.4581,3.0076
2024-10-11T12:23:32.452Z,0.0257,-1.0048,0.1170,0.0241,0.1498,-0.0378,-0.0774,-0.0273,-0.1612,-2.4450,1.4581,3.0076
2024-10-11T12:23:32.460Z,0.0409,-1.0031,0.1191,0.0241,0.1498,-0.0378,-0.0779,-0.0236,-0.1561,-2.4450,1.4581,3.0076
2024-10-11T12:23:32.471Z,0.0560,-1.0054,0.1151,-0.3876,0.1132,-0.0659,-0.0776,-0.0177,-0.1459,-2.4000,1.4596,2.9619
2024-10-11T12:23:32.481Z,0.0745,-1.0007,0.1216,-0.3876,0.1132,-0.0659,-0.0795,-0.0062,-0.1409,-2.4000,1.4596,2.9619
2024-10-11T12:23:32.491Z,0.0780,-0.9929,0.1295,-0.3876,0.1132,-0.0659,-0.0770,0.0021,-0.1314,-2.4000,1.4596,2.9619
2024-10-11T12:23:32.502Z,0.0837,-0.9827,0.1276,-0.5877,-0.1200,-0.1944,-0.0693,0.0075,-0.1193,-2.3594,1.4609,2.9212
2024-10-11T12:23:32.511Z,0.0860,-0.9722,0.1192,-0.5877,-0.1200,-0.1944,-0.0631,0.0131,-0.1108,-2.3594,1.4609,2.9212
2024-10-11T12:23:32.521Z,0.0941,-0.9599,0.1119,-0.5877,-0.1200,-0.1944,-0.0623,0.0220,-0.0996,-2.3594,1.4609,2.9212
2024-10-11T12:23:32.531Z,0.0945,-0.9486,0.1080,-0.6665,-0.4532,-0.0231,-0.0534,0.0245,-0.0849,-2.3266,1.4620,2.8889
2024-10-11T12:23:32.541Z,0.1012,-0.9415,0.1158,-0.6665,-0.4532,-0.0231,-0.0503,0.0337,-0.0683,-2.3266,1.4620,2.8889
2024-10-11T12:23:32.552Z,0.1141,-0.9384,0.1172,-0.6665,-0.4532,-0.0231,-0.0477,0.0396,-0.0540,-2.3266,1.4620,2.8889
2024-10-11T12:23:32.561Z,0.1220,-0.9418,0.1262,-0.9073,-0.4997,-0.2123,-0.0480,0.0513,-0.0419,-2.3057,1.4629,2.8690
2024-10-11T12:23:32.571Z,0.0966,-0.9552,0.1389,-0.9073,-0.4997,-0.2123,-0.0480,0.0513,-0.0419,-2.3057,1.4629,2.8690
2024-10-11T12:23:32.581Z,0.0880,-0.9573,0.1472,-0.9073,-0.4997,-0.2123,-0.0470,0.0617,-0.0214,-2.3057,1.4629,2.8690
2024-10-11T12:23:32.591Z,0.0756,-0.9557,0.1549,-0.5571,-0.3555,-0.4451,-0.0507,0.0670,-0.0125,-2.2953,1.4640,2.8600
2024-10-11T12:23:32.603Z,0.0796,-0.9534,0.1608,-0.5571,-0.3555,-0.4451,-0.0467,0.0746,-0.0021,-2.2953,1.4640,2.8600
2024-10-11T12:23:32.610Z,0.0796,-0.9534,0.1608,-0.5571,-0.3555,-0.4451,-0.0509,0.0818,0.0045,-2.2953,1.4640,2.8600
2024-10-11T12:23:32.621Z,0.0743,-0.9567,0.1592,-0.4315,-0.3696,-0.5766,-0.0512,0.0880,0.0121,-2.2916,1.4654,2.8583
2024-10-11T12:23:32.631Z,0.0782,-0.9534,0.1728,-0.4315,-0.3696,-0.5766,-0.0505,0.0965,0.0228,-2.2916,1.4654,2.8583
2024-10-11T12:23:32.641Z,0.0802,-0.9536,0.1690,-0.4315,-0.3696,-0.5766,-0.0517,0.1059,0.0291,-2.2916,1.4654,2.8583
2024-10-11T12:23:32.652Z,0.0721,-0.9556,0.1622,-0.4969,-0.3977,-0.6705,-0.0504,0.1102,0.0425,-2.2947,1.4671,2.8641
2024-10-11T12:23:32.661Z,0.0710,-0.9587,0.1625,-0.4969,-0.3977,-0.6705,-0.0530,0.1260,0.0484,-2.2947,1.4671,2.8641
2024-10-11T12:23:32.671Z,0.0710,-0.9587,0.1625,-0.4969,-0.3977,-0.6705,-0.0561,0.1336,0.0537,-2.2947,1.4671,2.8641
2024-10-11T12:23:32.681Z,0.0639,-0.9656,0.1442,-0.4524,-0.3433,-0.6083,-0.0588,0.1424,0.0591,-2.3046,1.4690,2.8774
2024-10-11T12:23:32.691Z,0.0639,-0.9656,0.1442,-0.4524,-0.3433,-0.6083,-0.0604,0.1510,0.0633,-2.3046,1.4690,2.8774
2024-10-11T12:23:32.701Z,0.0517,-0.9616,0.1164,-0.4524,-0.3433,-0.6083,-0.0594,0.1515,0.0651,-2.3046,1.4690,2.8774
2024-10-11T12:23:32.711Z,0.0501,-0.9540,0.0958,-0.2733,-0.3452,-0.1695,-0.0579,0.1544,0.0692,-2.3193,1.4711,2.8961
2024-10-11T12:23:32.721Z,0.0501,-0.9540,0.0958,-0.2733,-0.3452,-0.1695,-0.0531,0.1530,0.0673,-2.3193,1.4711,2.8961
2024-10-11T12:23:32.731Z,0.0341,-0.9418,0.0610,-0.2733,-0.3452,-0.1695,-0.0475,0.1623,0.0688,-2.3193,1.4711,2.8961
2024-10-11T12:23:32.740Z,0.0341,-0.9418,0.0610,-0.1278,-0.5342,0.3636,-0.0421,0.1702,0.0683,-2.3362,1.4730,2.9174
2024-10-11T12:23:32.751Z,0.0199,-0.9241,0.0339,-0.1278,-0.5342,0.3636,-0.0387,0.1697,0.0653,-2.3362,1.4730,2.9174
2024-10-11T12:23:32.761Z,0.0151,-0.9267,0.0236,-0.1278,-0.5342,0.3636,-0.0314,0.1651,0.0602,-2.3362,1.4730,2.9174
2024-10-11T12:23:32.771Z,0.0167,-0.9268,0.0079,0.0391,-0.6778,0.7127,-0.0228,0.1532,0.0627,-2.3537,1.4743,2.9395
2024-10-11T12:23:32.781Z,0.0222,-0.9279,0.0014,0.0391,-0.6778,0.7127,-0.0094,0.1458,0.0617,-2.3537,1.4743,2.9395
2024-10-11T12:23:32.791Z,0.0222,-0.9279,0.0014,0.0391,-0.6778,0.7127,-0.0116,0.1572,0.0541,-2.3537,1.4743,2.9395
2024-10-11T12:23:32.802Z,0.0471,-0.9372,0.0134,-0.3358,-0.6081,0.8223,-0.0013,0.1292,0.0608,-2.3733,1.4748,2.9625
2024-10-11T12:23:32.811Z,0.0390,-0.9348,0.0170,-0.3358,-0.6081,0.8223,0.0073,0.1007,0.0574,-2.3733,1.4748,2.9625
2024-10-11T12:23:32.820Z,0.0390,-0.9348,0.0170,-0.3358,-0.6081,0.8223,0.0147,0.0838,0.0547,-2.3733,1.4748,2.9625
2024-10-11T12:23:32.831Z,0.0219,-0.8863,0.0317,-0.1061,-0.8473,0.6055,0.0220,0.0721,0.0497,-2.3922,1.4747,2.9835
2024-10-11T12:23:32.841Z,0.0067,-0.8739,0.0193,-0.1061,-0.8473,0.6055,0.0270,0.0806,0.0452,-2.3922,1.4747,2.9835
2024-10-11T12:23:32.851Z,-0.0172,-0.8691,0.0134,-0.1061,-0.8473,0.6055,0.0400,0.0850,0.0423,-2.3922,1.4747,2.9835
2024-10-11T12:23:32.861Z,-0.0101,-0.8581,-0.0040,0.2889,-1.2426,0.8166,0.0485,0.0952,0.0387,-2.4079,1.4739,3.0011
2024-10-11T12:23:32.871Z,-0.0101,-0.8581,-0.0040,0.2889,-1.2426,0.8166,0.0642,0.1012,0.0366,-2.4079,1.4739,3.0011
2024-10-11T12:23:32.881Z,0.0053,-0.8535,-0.0298,0.2889,-1.2426,0.8166,0.0799,0.1119,0.0357,-2.4079,1.4739,3.0011
2024-10-11T12:23:32.891Z,0.0092,-0.8504,-0.0399,0.0617,-1.3890,1.2738,0.0915,0.1120,0.0341,-2.4218,1.4720,3.0177
2024-10-11T12:23:32.901Z,0.0205,-0.8495,-0.0316,0.0617,-1.3890,1.2738,0.1041,0.1010,0.0399,-2.4218,1.4720,3.0177
2024-10-11T12:23:32.911Z,0.0340,-0.8582,-0.0134,0.0617,-1.3890,1.2738,0.1217,0.0872,0.0409,-2.4218,1.4720,3.0177
2024-10-11T12:23:32.921Z,0.0340,-0.8582,-0.0134,-0.2286,-1.3233,1.0941,0.1352,0.0799,0.0440,-2.4375,1.4688,3.0359
2024-10-11T12:23:32.931Z,0.0375,-0.8961,0.0254,-0.2286,-1.3233,1.0941,0.1419,0.0598,0.0426,-2.4375,1.4688,3.0359
2024-10-11T12:23:32.941Z,0.0266,-0.9064,0.0494,-0.2286,-1.3233,1.0941,0.1467,0.0408,0.0397,-2.4375,1.4688,3.0359
2024-10-11T12:23:32.951Z,0.0248,-0.9093,0.0758,-0.1545,-0.8605,0.5110,0.1501,0.0200,0.0384,-2.4535,1.4647,3.0532
2024-10-11T12:23:32.960Z,0.0340,-0.9156,0.0815,-0.1545,-0.8605,0.5110,0.1461,0.0040,0.0321,-2.4535,1.4647,3.0532
2024-10-11T12:23:32.970Z,0.0340,-0.9156,0.0815,-0.1545,-0.8605,0.5110,0.1465,-0.0119,0.0297,-2.4535,1.4647,3.0532
2024-10-11T12:23:32.981Z,0.0357,-0.9249,0.0836,-0.2102,-0.6974,0.2035,0.1413,-0.0302,0.0281,-2.4662,1.4604,3.0656
2024-10-11T12:23:32.991Z,0.0436,-0.9344,0.0848,-0.2102,-0.6974,0.2035,0.1377,-0.0503,0.0259,-2.4662,1.4604,3.0656
2024-10-11T12:23:33.001Z,0.0547,-0.9356,0.0991,-0.2102,-0.6974,0.2035,0.1339,-0.0640,0.0272,-2.4662,1.4604,3.0656
2024-10-11T12:23:33.010Z,0.0633,-0.9336,0.1050,-0.4728,-0.5763,0.1290,0.1313,-0.0816,0.0284,-2.4764,1.4563,3.0739
2024-10-11T12:23:33.021Z,0.0633,-0.9336,0.1050,-0.4728,-0.5763,0.1290,0.1275,-0.1003,0.0340,-2.4764,1.4563,3.0739
2024-10-11T12:23:33.031Z,0.0906,-0.9296,0.1127,-0.4728,-0.5763,0.1290,0.1237,-0.1165,0.0422,-2.4764,1.4563,3.0739
2024-10-11T12:23:33.041Z,0.1007,-0.9391,0.1022,-0.8307,-0.6231,0.0541,0.1222,-0.1288,0.0465,-2.4881,1.4526,3.0822
2024-10-11T12:23:33.051Z,0.0917,-0.9556,0.0790,-0.8307,-0.6231,0.0541,0.1286,-0.1422,0.0483,-2.4881,1.4526,3.0822
2024-10-11T12:23:33.061Z,0.0883,-0.9689,0.0490,-0.8307,-0.6231,0.0541,0.1377,-0.1549,0.0516,-2.4881,1.4526,3.0822
2024-10-11T12:23:33.071Z,0.0883,-0.9689,0.0490,-0.8050,-0.1996,0.7421,0.1513,-0.1651,0.0534,-2.5027,1.4487,3.0920
2024-10-11T12:23:33.081Z,0.0887,-1.0099,0.0179,-0.8050,-0.1996,0.7421,0.1630,-0.1737,0.0514,-2.5027,1.4487,3.0920
2024-10-11T12:23:33.091Z,0.0840,-1.0315,0.0248,-0.8050,-0.1996,0.7421,0.1729,-0.1752,0.0519,-2.5027,1.4487,3.0920
2024-10-11T12:23:33.101Z,0.0753,-1.0420,0.0518,-0.7613,0.4108,0.9645,0.1796,-0.1686,0.0560,-2.5176,1.4439,3.1015
2024-10-11T12:23:33.111Z,0.0683,-1.0514,0.0718,-0.7613,0.4108,0.9645,0.1863,-0.1535,0.0571,-2.5176,1.4439,3.1015
2024-10-11T12:23:33.121Z,0.0683,-1.0514,0.0718,-0.7613,0.4108,0.9645,0.1893,-0.1377,0.0643,-2.5176,1.4439,3.1015
2024-10-11T12:23:33.131Z,0.0590,-1.0678,0.1115,-0.5891,0.6571,0.3742,0.1888,-0.1281,0.0647,-2.5329,1.4384,3.1117
2024-10-11T12:23:33.141Z,0.0478,-1.0786,0.1340,-0.5891,0.6571,0.3742,0.1821,-0.1150,0.0690,-2.5329,1.4384,3.1117
2024-10-11T12:23:33.151Z,0.0437,-1.0817,0.1539,-0.5891,0.6571,0.3742,0.1784,-0.1046,0.0739,-2.5329,1.4384,3.1117
2024-10-11T12:23:33.161Z,0.0469,-1.0893,0.1732,-0.4090,0.9088,-0.1736,0.1693,-0.0990,0.0792,-2.5495,1.4330,3.1246
2024-10-11T12:23:33.171Z,0.0469,-1.0893,0.1732,-0.4090,0.9088,-0.1736,0.1631,-0.1015,0.0852,-2.5495,1.4330,3.1246
2024-10-11T12:23:33.181Z,0.0112,-1.1147,0.1971,-0.4090,0.9088,-0.1736,0.1561,-0.1012,0.0844,-2.5495,1.4330,3.1246
2024-10-11T12:23:33.191Z,0.0100,-1.1151,0.2087,-0.1089,1.2409,-0.5468,0.1472,-0.1002,0.0863,-2.5679,1.4282,3.1395
2024-10-11T12:23:33.201Z,0.0154,-1.1107,0.2104,-0.1089,1.2409,-0.5468,0.1408,-0.0993,0.0907,-2.5679,1.4282,3.1395
2024-10-11T12:23:33.211Z,0.0190,-1.1076,0.2045,-0.1089,1.2409,-0.5468,0.1340,-0.1015,0.0897,-2.5679,1.4282,3.1395
2024-10-11T12:23:33.222Z,0.0086,-1.1098,0.2149,-0.2019,1.1670,-0.5666,0.1221,-0.1063,0.0850,-2.5862,1.4240,-3.1288
2024-10-11T12:23:33.230Z,-0.0027,-1.0985,0.2275,-0.2019,1.1670,-0.5666,0.1152,-0.1128,0.0830,-2.5862,1.4240,-3.1288
2024-10-11T12:23:33.240Z,-0.0287,-1.0924,0.2420,-0.2019,1.1670,-0.5666,0.0988,-0.1119,0.0756,-2.5862,1.4240,-3.1288
2024-10-11T12:23:33.251Z,-0.0563,-1.0870,0.2594,0.2883,1.0115,-0.9261,0.0823,-0.1138,0.0660,-2.6017,1.4206,-3.1169
2024-10-11T12:23:33.260Z,-0.0881,-1.0805,0.2688,0.2883,1.0115,-0.9261,0.0659,-0.1121,0.0545,-2.6017,1.4206,-3.1169
2024-10-11T12:23:33.271Z,-0.0905,-1.0681,0.2579,0.2883,1.0115,-0.9261,0.0482,-0.1196,0.0482,-2.6017,1.4206,-3.1169
2024-10-11T12:23:33.281Z,-0.0806,-1.0573,0.2608,0.8195,0.7555,-1.0467,0.0289,-0.1252,0.0390,-2.6122,1.4187,-3.1100
2024-10-11T12:23:33.291Z,-0.0807,-1.0545,0.2650,0.8195,0.7555,-1.0467,0.0135,-0.1349,0.0353,-2.6122,1.4187,-3.1100
2024-10-11T12:23:33.301Z,-0.0827,-1.0648,0.2516,0.8195,0.7555,-1.0467,-0.0008,-0.1343,0.0273,-2.6122,1.4187,-3.1100
2024-10-11T12:23:33.311Z,-0.0971,-1.0743,0.2443,0.7672,0.7604,-0.9599,-0.0132,-0.1300,0.0215,-2.6187,1.4183,-3.1079
2024-10-11T12:23:33.320Z,-0.0971,-1.0743,0.2443,0.7672,0.7604,-0.9599,-0.0239,-0.1197,0.0094,-2.6187,1.4183,-3.1079
2024-10-11T12:23:33.331Z,-0.1253,-1.0659,0.2465,0.7672,0.7604,-0.9599,-0.0379,-0.1010,-0.0017,-2.6187,1.4183,-3.1079
2024-10-11T12:23:33.341Z,-0.1396,-1.0549,0.2364,1.2017,0.7484,-0.9321,-0.0450,-0.0832,-0.0055,-2.6205,1.4192,-3.1098
2024-10-11T12:23:33.351Z,-0.1408,-1.0427,0.2344,1.2017,0.7484,-0.9321,-0.0567,-0.0695,-0.0119,-2.6205,1.4192,-3.1098
2024-10-11T12:23:33.361Z,-0.1461,-1.0363,0.2228,1.2017,0.7484,-0.9321,-0.0666,-0.0516,-0.0244,-2.6205,1.4192,-3.1098
2024-10-11T12:23:33.371Z,-0.1432,-1.0394,0.2099,1.3899,0.4697,-0.7115,-0.0773,-0.0365,-0.0339,-2.6177,1.4209,-3.1148
2024-10-11T12:23:33.380Z,-0.1410,-1.0480,0.2090,1.3899,0.4697,-0.7115,-0.0907,-0.0241,-0.0485,-2.6177,1.4209,-3.1148
2024-10-11T12:23:33.391Z,-0.1354,-1.0538,0.2125,1.3899,0.4697,-0.7115,-0.1013,-0.0178,-0.0610,-2.6177,1.4209,-3.1148
2024-10-11T12:23:33.400Z,-0.1234,-1.0633,0.2182,1.2944,0.6454,-0.6544,-0.1153,-0.0063,-0.0760,-2.6078,1.4237,-3.1255
2024-10-11T12:23:33.411Z,-0.1234,-1.0731,0.2236,1.2944,0.6454,-0.6544,-0.1277,-0.0002,-0.0917,-2.6078,1.4237,-3.1255
2024-10-11T12:23:33.421Z,-0.1189,-1.0730,0.2226,1.2944,0.6454,-0.6544,-0.1390,0.0070,-0.1050,-2.6078,1.4237,-3.1255
2024-10-11T12:23:33.431Z,-0.1144,-1.0679,0.2257,1.1611,0.8172,-0.7791,-0.1504,0.0102,-0.1204,-2.5887,1.4275,3.1386
2024-10-11T12:23:33.441Z,-0.1027,-1.0570,0.2281,1.1611,0.8172,-0.7791,-0.1577,0.0091,-0.1336,-2.5887,1.4275,3.1386
2024-10-11T12:23:33.450Z,-0.0920,-1.0549,0.2205,1.1611,0.8172,-0.7791,-0.1723,0.0133,-0.1455,-2.5887,1.4275,3.1386
2024-10-11T12:23:33.461Z,-0.0790,-1.0539,0.2085,0.9288,0.6360,-0.7931,-0.1767,0.0110,-0.1525,-2.5594,1.4323,3.1096
2024-10-11T12:23:33.470Z,-0.0790,-1.0539,0.2085,0.9288,0.6360,-0.7931,-0.1865,0.0117,-0.1613,-2.5594,1.4323,3.1096
2024-10-11T12:23:33.481Z,-0.0527,-1.0421,0.1988,0.9288,0.6360,-0.7931,-0.1960,0.0153,-0.1701,-2.5594,1.4323,3.1096
2024-10-11T12:23:33.491Z,-0.0376,-1.0397,0.1859,0.5759,0.5004,-0.6370,-0.2031,0.0183,-0.1690,-2.5217,1.4377,3.0724
2024-10-11T12:23:33.501Z,-0.0305,-1.0424,0.1659,0.5759,0.5004,-0.6370,-0.2103,0.0214,-0.1674,-2.5217,1.4377,3.0724
2024-10-11T12:23:33.511Z,-0.0154,-1.0342,0.1545,0.5759,0.5004,-0.6370,-0.2146,0.0289,-0.1665,-2.5217,1.4377,3.0724
2024-10-11T12:23:33.521Z,0.0107,-1.0186,0.1489,0.2625,0.3953,-0.2653,-0.2200,0.0385,-0.1577,-2.4792,1.4434,3.0307
2024-10-11T12:23:33.530Z,0.0198,-1.0205,0.1426,0.2625,0.3953,-0.2653,-0.2214,0.0455,-0.1528,-2.4792,1.4434,3.0307
2024-10-11T12:23:33.540Z,0.0295,-1.0219,0.1260,0.2625,0.3953,-0.2653,-0.2215,0.0557,-0.1458,-2.4792,1.4434,3.0307
2024-10-11T12:23:33.551Z,0.0460,-1.0250,0.1163,-0.1356,0.2884,-0.0507,-0.2181,0.0721,-0.1392,-2.4365,1.4493,2.9895
2024-10-11T12:23:33.561Z,0.0453,-1.0262,0.1207,-0.1356,0.2884,-0.0507,-0.2222,0.0888,-0.1308,-2.4365,1.4493,2.9895
2024-10-11T12:23:33.572Z,0.0555,-1.0326,0.1371,-0.1356,0.2884,-0.0507,-0.2229,0.1111,-0.1229,-2.4365,1.4493,2.9895
2024-10-11T12:23:33.580Z,0.0572,-1.0321,0.1534,-0.3494,0.3950,-0.2442,-0.2188,0.1294,-0.1121,-2.3953,1.4551,2.9511
2024-10-11T12:23:33.590Z,0.0557,-1.0319,0.1794,-0.3494,0.3950,-0.2442,-0.2270,0.1428,-0.1052,-2.3953,1.4551,2.9511
2024-10-11T12:23:33.601Z,0.0547,-1.0336,0.1976,-0.3494,0.3950,-0.2442,-0.2233,0.1554,-0.0923,-2.3953,1.4551,2.9511
2024-10-11T12:23:33.611Z,0.0483,-1.0361,0.1930,-0.2998,0.3933,-0.8995,-0.2284,0.1708,-0.0853,-2.3573,1.4610,2.9175
2024-10-11T12:23:33.621Z,0.0430,-1.0327,0.1830,-0.2998,0.3933,-0.8995,-0.2257,0.1738,-0.0807,-2.3573,1.4610,2.9175
2024-10-11T12:23:33.631Z,0.0408,-1.0290,0.1676,-0.2998,0.3933,-0.8995,-0.2271,0.1786,-0.0694,-2.3573,1.4610,2.9175
2024-10-11T12:23:33.640Z,0.0420,-1.0214,0.1528,-0.1442,0.3353,-0.6419,-0.2273,0.1868,-0.0648,-2.3219,1.4671,2.8875
2024-10-11T12:23:33.651Z,0.0426,-1.0141,0.1229,-0.1442,0.3353,-0.6419,-0.2243,0.1881,-0.0569,-2.3219,1.4671,2.8875
2024-10-11T12:23:33.661Z,0.0495,-1.0072,0.0941,-0.1442,0.3353,-0.6419,-0.2214,0.1803,-0.0499,-2.3219,1.4671,2.8875
2024-10-11T12:23:33.671Z,0.0650,-0.9993,0.0775,-0.2319,0.1074,0.0284,-0.2185,0.1790,-0.0388,-2.2887,1.4731,2.8597
2024-10-11T12:23:33.680Z,0.0888,-0.9922,0.0665,-0.2319,0.1074,0.0284,-0.2132,0.1783,-0.0259,-2.2887,1.4731,2.8597
2024-10-11T12:23:33.690Z,0.0962,-0.9936,0.0536,-0.2319,0.1074,0.0284,-0.2058,0.1852,-0.0159,-2.2887,1.4731,2.8597
2024-10-11T12:23:33.701Z,0.0922,-0.9958,0.0374,-0.6599,-0.0222,0.3542,-0.1969,0.1884,-0.0083,-2.2622,1.4789,2.8385
2024-10-11T12:23:33.711Z,0.0939,-0.9901,0.0339,-0.6599,-0.0222,0.3542,-0.1822,0.1950,0.0014,-2.2622,1.4789,2.8385
2024-10-11T12:23:33.721Z,0.1019,-0.9814,0.0270,-0.6599,-0.0222,0.3542,-0.1685,0.1968,0.0086,-2.2622,1.4789,2.8385
2024-10-11T12:23:33.731Z,0.1000,-0.9712,0.0103,-0.7475,-0.1579,0.5593,-0.1498,0.1931,0.0198,-2.2457,1.4840,2.8276
2024-10-11T12:23:33.741Z,0.0911,-0.9578,0.0031,-0.7475,-0.1579,0.5593,-0.1335,0.1881,0.0277,-2.2457,1.4840,2.8276
2024-10-11T12:23:33.751Z,0.0841,-0.9559,-0.0063,-0.7475,-0.1579,0.5593,-0.1180,0.1850,0.0351,-2.2457,1.4840,2.8276
2024-10-11T12:23:33.760Z,0.0742,-0.9550,-0.0134,-0.5704,-0.3976,0.8381,-0.1032,0.1832,0.0427,-2.2421,1.4879,2.8294
2024-10-11T12:23:33.771Z,0.0684,-0.9509,-0.0040,-0.5704,-0.3976,0.8381,-0.0908,0.1823,0.0497,-2.2421,1.4879,2.8294
2024-10-11T12:23:33.781Z,0.0544,-0.9771,0.0242,-0.5704,-0.3976,0.8381,-0.0704,0.1790,0.0560,-2.2421,1.4879,2.8294
2024-10-11T12:23:33.791Z,0.0435,-1.0418,0.0265,-0.2868,-0.1312,0.4866,-0.0498,0.1807,0.0590,-2.2506,1.4908,2.8431
2024-10-11T12:23:33.801Z,0.0276,-1.1151,0.0247,-0.2868,-0.1312,0.4866,-0.0241,0.1782,0.0645,-2.2506,1.4908,2.8431
2024-10-11T12:23:33.811Z,0.0184,-1.1718,0.0384,-0.2868,-0.1312,0.4866,0.0074,0.1815,0.0673,-2.2506,1.4908,2.8431
2024-10-11T12:23:33.822Z,0.0068,-1.2168,0.0603,0.0719,1.7751,0.3523,0.0291,0.1920,0.0721,-2.2734,1.4917,2.8711
2024-10-11T12:23:33.831Z,-0.0131,-1.2396,0.0884,0.0719,1.7751,0.3523,0.0511,0.1979,0.0701,-2.2734,1.4917,2.8711
2024-10-11T12:23:33.840Z,-0.0385,-1.2326,0.1213,0.0719,1.7751,0.3523,0.0678,0.1955,0.0662,-2.2734,1.4917,2.8711
2024-10-11T12:23:33.851Z,-0.0402,-1.2108,0.1382,0.5627,2.2923,-0.4429,0.0761,0.1966,0.0629,-2.3044,1.4906,2.9074
2024-10-11T12:23:33.860Z,-0.0347,-1.1944,0.1693,0.5627,2.2923,-0.4429,0.0771,0.1919,0.0589,-2.3044,1.4906,2.9074
2024-10-11T12:23:33.871Z,-0.0127,-1.1824,0.2132,0.5627,2.2923,-0.4429,0.0794,0.1725,0.0586,-2.3044,1.4906,2.9074
2024-10-11T12:23:33.881Z,-0.0042,-1.1770,0.2346,0.2543,1.8125,-1.3354,0.0724,0.1442,0.0585,-2.3330,1.4887,2.9409
2024-10-11T12:23:33.890Z,0.0013,-1.1482,0.2596,0.2543,1.8125,-1.3354,0.0568,0.1106,0.0611,-2.3330,1.4887,2.9409
2024-10-11T12:23:33.901Z,0.0033,-1.1078,0.2840,0.2543,1.8125,-1.3354,0.0397,0.0729,0.0660,-2.3330,1.4887,2.9409
2024-10-11T12:23:33.911Z,-0.0000,-1.0853,0.2801,0.1136,1.0574,-1.9960,0.0251,0.0435,0.0686,-2.3593,1.4875,2.9700
2024-10-11T12:23:33.920Z,0.0124,-1.0621,0.2494,0.1136,1.0574,-1.9960,0.0085,0.0186,0.0762,-2.3593,1.4875,2.9700
2024-10-11T12:23:33.930Z,-0.0009,-1.0285,0.2282,0.1136,1.0574,-1.9960,0.0021,-0.0057,0.0810,-2.3593,1.4875,2.9700
2024-10-11T12:23:33.940Z,-0.0139,-0.9901,0.2072,0.1345,0.2658,-1.4092,-0.0073,-0.0232,0.0843,-2.3879,1.4876,2.9987
2024-10-11T12:23:33.951Z,-0.0326,-0.9682,0.1619,0.1345,0.2658,-1.4092,-0.0032,-0.0312,0.0844,-2.3879,1.4876,2.9987
2024-10-11T12:23:33.961Z,-0.0375,-0.9534,0.1192,0.1345,0.2658,-1.4092,0.0014,-0.0294,0.0854,-2.3879,1.4876,2.9987
2024-10-11T12:23:33.971Z,-0.0359,-0.9432,0.0961,0.4579,-0.4425,-0.3283,0.0177,-0.0202,0.0850,-2.4186,1.4880,3.0282
2024-10-11T12:23:33.981Z,-0.0361,-0.9389,0.0704,0.4579,-0.4425,-0.3283,0.0396,-0.0054,0.0762,-2.4186,1.4880,3.0282
2024-10-11T12:23:33.991Z,-0.0347,-0.9289,0.0379,0.4579,-0.4425,-0.3283,0.0603,0.0127,0.0671,-2.4186,1.4880,3.0282
2024-10-11T12:23:34.001Z,-0.0479,-0.9237,0.0048,0.4222,-0.6717,0.4942,0.0782,0.0402,0.0543,-2.4469,1.4868,3.0559
2024-10-11T12:23:34.011Z,-0.0470,-0.9181,0.0053,0.4222,-0.6717,0.4942,0.0894,0.0695,0.0381,-2.4469,1.4868,3.0559
2024-10-11T12:23:34.021Z,-0.0433,-0.9154,0.0301,0.4222,-0.6717,0.4942,0.0932,0.1004,0.0211,-2.4469,1.4868,3.0559
2024-10-11T12:23:34.031Z,-0.0319,-0.9189,0.0604,0.4815,-0.7876,0.5125,0.0942,0.1184,0.0075,-2.4613,1.4842,3.0724
2024-10-11T12:23:34.041Z,-0.0087,-0.9200,0.0371,0.4815,-0.7876,0.5125,0.0930,0.1304,-0.0060,-2.4613,1.4842,3.0724
2024-10-11T12:23:34.051Z,0.0015,-0.9183,-0.0007,0.4815,-0.7876,0.5125,0.0902,0.1394,-0.0139,-2.4613,1.4842,3.0724
2024-10-11T12:23:34.060Z,0.0039,-0.9174,0.0128,0.0301,-0.7670,0.9003,0.0842,0.1358,-0.0192,-2.4617,1.4814,3.0764
2024-10-11T12:23:34.071Z,0.0232,-0.9224,0.0362,0.0301,-0.7670,0.9003,0.0777,0.1303,-0.0243,-2.4617,1.4814,3.0764
2024-10-11T12:23:34.081Z,0.0401,-0.9264,0.0217,0.0301,-0.7670,0.9003,0.0742,0.1117,-0.0283,-2.4617,1.4814,3.0764
2024-10-11T12:23:34.090Z,0.0598,-0.9274,-0.0121,-0.3428,-0.6774,0.7107,0.0720,0.0949,-0.0241,-2.4554,1.4790,3.0736
2024-10-11T12:23:34.101Z,0.0843,-0.9099,-0.0402,-0.3428,-0.6774,0.7107,0.0710,0.0678,-0.0127,-2.4554,1.4790,3.0736
2024-10-11T12:23:34.111Z,0.1041,-0.8899,-0.0636,-0.3428,-0.6774,0.7107,0.0678,0.0468,0.0001,-2.4554,1.4790,3.0736
2024-10-11T12:23:34.121Z,0.0980,-0.8692,-0.0839,-0.9590,-1.0587,1.5520,0.0741,0.0318,0.0121,-2.4540,1.4769,3.0741
2024-10-11T12:23:34.131Z,0.0941,-0.8646,-0.1259,-0.9590,-1.0587,1.5520,0.0834,0.0150,0.0229,-2.4540,1.4769,3.0741
2024-10-11T12:23:34.140Z,0.1055,-0.8570,-0.1662,-0.9590,-1.0587,1.5520,0.1049,0.0088,0.0293,-2.4540,1.4769,3.0741
2024-10-11T12:23:34.151Z,0.0899,-0.8560,-0.1815,-0.9728,-1.3640,2.6040,0.1247,-0.0007,0.0384,-2.4633,1.4743,3.0836
2024-10-11T12:23:34.161Z,0.0851,-0.8613,-0.1434,-0.9728,-1.3640,2.6040,0.1433,-0.0097,0.0468,-2.4633,1.4743,3.0836
2024-10-11T12:23:34.173Z,0.0866,-0.8811,-0.1018,-0.7989,-1.0840,1.9224,0.1543,-0.0137,0.0493,-2.4794,1.4700,3.0992
2024-10-11T12:23:34.180Z,0.0822,-0.9058,-0.0511,-0.7989,-1.0840,1.9224,0.1665,-0.0223,0.0565,-2.4794,1.4700,3.0992
2024-10-11T12:23:34.191Z,0.0907,-0.9172,-0.0045,-0.7989,-1.0840,1.9224,0.1690,-0.0311,0.0651,-2.4794,1.4700,3.0992
2024-10-11T12:23:34.201Z,0.1051,-0.9240,0.0369,-0.7989,-1.0840,1.9224,0.1669,-0.0407,0.0742,-2.4794,1.4700,3.0992
2024-10-11T12:23:34.211Z,0.0850,-0.9243,0.0887,-1.0106,-0.6808,0.6166,0.1558,-0.0407,0.0854,-2.5010,1.4651,3.1194
2024-10-11T12:23:34.221Z,0.0762,-0.9173,0.1281,-1.0106,-0.6808,0.6166,0.1506,-0.0550,0.0946,-2.5010,1.4651,3.1194
2024-10-11T12:23:34.231Z,0.0624,-0.9020,0.1268,-1.0106,-0.6808,0.6166,0.1366,-0.0672,0.1019,-2.5010,1.4651,3.1194
2024-10-11T12:23:34.241Z,0.0475,-0.8956,0.0966,-0.5860,-0.9075,-0.1264,0.1337,-0.0791,0.1135,-2.5284,1.4607,-3.1386
2024-10-11T12:23:34.251Z,0.0635,-0.8954,0.0800,-0.5860,-0.9075,-0.1264,0.1281,-0.0804,0.1230,-2.5284,1.4607,-3.1386
2024-10-11T12:23:34.261Z,0.0266,-0.9100,0.1025,-0.5860,-0.9075,-0.1264,0.1236,-0.0831,0.1253,-2.5284,1.4607,-3.1386
2024-10-11T12:23:34.273Z,-0.0085,-0.9205,0.1277,-0.2198,-0.8034,0.0765,0.1157,-0.0850,0.1278,-2.5609,1.4569,-3.1091
2024-10-11T12:23:34.280Z,-0.0208,-0.9240,0.1202,-0.2198,-0.8034,0.0765,0.1084,-0.0817,0.1249,-2.5609,1.4569,-3.1091
2024-10-11T12:23:34.291Z,-0.0371,-0.9253,0.1145,-0.2198,-0.8034,0.0765,0.1017,-0.0718,0.1205,-2.5609,1.4569,-3.1091
2024-10-11T12:23:34.301Z,-0.0589,-0.9225,0.1178,0.3206,-0.6664,0.0426,0.0939,-0.0658,0.1139,-2.5917,1.4534,-3.0811
2024-10-11T12:23:34.311Z,-0.0915,-0.9055,0.1450,0.3206,-0.6664,0.0426,0.0770,-0.0572,0.0992,-2.5917,1.4534,-3.0811
2024-10-11T12:23:34.323Z,-0.1012,-0.8899,0.1692,0.8837,-1.0228,-0.5094,0.0625,-0.0420,0.0868,-2.6147,1.4509,-3.0603
2024-10-11T12:23:34.330Z,-0.0868,-0.8910,0.1730,0.8837,-1.0228,-0.5094,0.0567,-0.0373,0.0725,-2.6147,1.4509,-3.0603
2024-10-11T12:23:34.341Z,-0.0963,-0.8961,0.1494,0.8837,-1.0228,-0.5094,0.0477,-0.0332,0.0637,-2.6147,1.4509,-3.0603
2024-10-11T12:23:34.352Z,-0.0869,-0.8978,0.1395,0.7346,-0.9375,-0.1997,0.0451,-0.0266,0.0513,-2.6286,1.4493,-3.0475
2024-10-11T12:23:34.360Z,-0.0945,-0.8981,0.1633,0.7346,-0.9375,-0.1997,0.0347,-0.0162,0.0407,-2.6286,1.4493,-3.0475
2024-10-11T12:23:34.371Z,-0.0767,-0.9119,0.2096,0.7346,-0.9375,-0.1997,0.0226,-0.0093,0.0312,-2.6286,1.4493,-3.0475
2024-10-11T12:23:34.382Z,-0.0596,-0.9272,0.2414,0.4588,-0.6190,-1.2122,0.0088,0.0044,0.0251,-2.6358,1.4487,-3.0407
2024-10-11T12:23:34.390Z,-0.0547,-0.9438,0.2571,0.4588,-0.6190,-1.2122,-0.0121,0.0171,0.0183,-2.6358,1.4487,-3.0407
2024-10-11T12:23:34.400Z,-0.0526,-0.9434,0.2673,0.4588,-0.6190,-1.2122,-0.0286,0.0198,0.0107,-2.6358,1.4487,-3.0407
2024-10-11T12:23:34.412Z,-0.0831,-0.9480,0.2791,0.7206,-0.4312,-1.5462,-0.0466,0.0315,-0.0059,-2.6379,1.4496,-3.0381
2024-10-11T12:23:34.422Z,-0.0721,-0.9407,0.2487,0.7206,-0.4312,-1.5462,-0.0619,0.0357,-0.0138,-2.6379,1.4496,-3.0381
2024-10-11T12:23:34.430Z,-0.0583,-0.9166,0.1867,0.7206,-0.4312,-1.5462,-0.0721,0.0407,-0.0274,-2.6379,1.4496,-3.0381
2024-10-11T12:23:34.442Z,-0.0820,-0.8929,0.1774,0.6934,-0.9943,-0.5991,-0.0874,0.0421,-0.0478,-2.6320,1.4519,-3.0432
2024-10-11T12:23:34.450Z,-0.0765,-0.8868,0.1931,0.6934,-0.9943,-0.5991,-0.0989,0.0302,-0.0577,-2.6320,1.4519,-3.0432
2024-10-11T12:23:34.461Z,-0.0678,-0.8910,0.2066,0.6934,-0.9943,-0.5991,-0.1133,0.0278,-0.0679,-2.6320,1.4519,-3.0432
2024-10-11T12:23:34.473Z,-0.0500,-0.8978,0.1953,0.3785,-0.9245,-0.7597,-0.1232,0.0158,-0.0755,-2.6173,1.4554,-3.0575
2024-10-11T12:23:34.480Z,-0.0458,-0.9086,0.1642,0.3785,-0.9245,-0.7597,-0.1277,-0.0090,-0.0812,-2.6173,1.4554,-3.0575
2024-10-11T12:23:34.491Z,-0.0430,-0.9015,0.1380,0.3785,-0.9245,-0.7597,-0.1347,-0.0234,-0.0878,-2.6173,1.4554,-3.0575
2024-10-11T12:23:34.502Z,-0.0439,-0.8950,0.1553,0.3912,-0.9655,-0.4669,-0.1430,-0.0445,-0.1000,-2.5959,1.4597,-3.0800
2024-10-11T12:23:34.510Z,-0.0616,-0.8889,0.1767,0.3912,-0.9655,-0.4669,-0.1563,-0.0673,-0.1107,-2.5959,1.4597,-3.0800
2024-10-11T12:23:34.521Z,-0.0512,-0.8856,0.2109,0.3912,-0.9655,-0.4669,-0.1717,-0.0842,-0.1165,-2.5959,1.4597,-3.0800
2024-10-11T12:23:34.532Z,-0.0411,-0.8886,0.2275,0.3678,-1.0296,-1.2210,-0.1895,-0.1054,-0.1236,-2.5655,1.4651,-3.1131
2024-10-11T12:23:34.540Z,-0.0362,-0.8969,0.2301,0.3678,-1.0296,-1.2210,-0.2033,-0.1152,-0.1293,-2.5655,1.4651,-3.1131
2024-10-11T12:23:34.551Z,-0.0232,-0.8998,0.2321,0.3678,-1.0296,-1.2210,-0.2144,-0.1302,-0.1322,-2.5655,1.4651,-3.1131
2024-10-11T12:23:34.562Z,-0.0209,-0.9068,0.2316,0.2369,-0.8552,-1.2981,-0.2296,-0.1267,-0.1379,-2.5267,1.4716,3.1275
2024-10-11T12:23:34.572Z,-0.0269,-0.9127,0.2225,0.2369,-0.8552,-1.2981,-0.2397,-0.1308,-0.1406,-2.5267,1.4716,3.1275
2024-10-11T12:23:34.580Z,-0.0176,-0.9079,0.2202,0.2369,-0.8552,-1.2981,-0.2480,-0.1365,-0.1440,-2.5267,1.4716,3.1275
2024-10-11T12:23:34.592Z,-0.0033,-0.8934,0.2011,0.0467,-1.0293,-1.0425,-0.2497,-0.1386,-0.1391,-2.4797,1.4788,3.0764
2024-10-11T12:23:34.600Z,0.0334,-0.8852,0.1738,0.0467,-1.0293,-1.0425,-0.2519,-0.1347,-0.1359,-2.4797,1.4788,3.0764
2024-10-11T12:23:34.611Z,0.0409,-0.8805,0.1297,0.0467,-1.0293,-1.0425,-0.2498,-0.1208,-0.1293,-2.4797,1.4788,3.0764
2024-10-11T12:23:34.623Z,0.0431,-0.8616,0.0896,-0.3379,-1.3345,-0.0051,-0.2390,-0.1105,-0.1204,-2.4293,1.4857,3.0225
2024-10-11T12:23:34.630Z,0.0563,-0.8514,0.0469,-0.3379,-1.3345,-0.0051,-0.2250,-0.1038,-0.1142,-2.4293,1.4857,3.0225
2024-10-11T12:23:34.641Z,0.0689,-0.8373,0.0037,-0.3379,-1.3345,-0.0051,-0.2123,-0.0939,-0.1067,-2.4293,1.4857,3.0225
2024-10-11T12:23:34.651Z,0.0736,-0.8262,-0.0141,-0.5784,-1.7011,0.9425,-0.1945,-0.0856,-0.0983,-2.3811,1.4914,2.9714
2024-10-11T12:23:34.661Z,0.0691,-0.8113,-0.0437,-0.5784,-1.7011,0.9425,-0.1752,-0.0773,-0.0918,-2.3811,1.4914,2.9714
2024-10-11T12:23:34.671Z,0.0766,-0.8056,-0.0888,-0.5784,-1.7011,0.9425,-0.1469,-0.0756,-0.0841,-2.3811,1.4914,2.9714
2024-10-11T12:23:34.681Z,0.0689,-0.8023,-0.1310,-0.5017,-1.9087,2.0516,-0.1236,-0.0693,-0.0771,-2.3392,1.4950,2.9272
2024-10-11T12:23:34.691Z,0.0756,-0.8098,-0.1535,-0.5017,-1.9087,2.0516,-0.0912,-0.0724,-0.0696,-2.3392,1.4950,2.9272
2024-10-11T12:23:34.701Z,0.0806,-0.8131,-0.1579,-0.5017,-1.9087,2.0516,-0.0658,-0.0624,-0.0662,-2.3392,1.4950,2.9272
2024-10-11T12:23:34.711Z,0.0721,-0.8296,-0.1522,-0.5363,-1.6268,2.2085,-0.0384,-0.0590,-0.0587,-2.3088,1.4964,2.8948
2024-10-11T12:23:34.721Z,0.0867,-0.8428,-0.1590,-0.5363,-1.6268,2.2085,-0.0153,-0.0475,-0.0525,-2.3088,1.4964,2.8948
2024-10-11T12:23:34.731Z,0.0648,-0.8561,-0.1509,-0.5363,-1.6268,2.2085,0.0041,-0.0498,-0.0487,-2.3088,1.4964,2.8948
2024-10-11T12:23:34.742Z,0.0534,-0.8589,-0.1207,-0.3501,-1.3683,1.8133,0.0132,-0.0513,-0.0474,-2.2907,1.4958,2.8749
2024-10-11T12:23:34.750Z,0.0724,-0.8614,-0.0664,-0.3501,-1.3683,1.8133,0.0282,-0.0490,-0.0393,-2.2907,1.4958,2.8749
2024-10-11T12:23:34.761Z,0.0906,-0.8795,-0.0404,-0.3501,-1.3683,1.8133,0.0333,-0.0421,-0.0281,-2.2907,1.4958,2.8749
2024-10-11T12:23:34.771Z,0.1024,-0.8968,-0.0327,-0.8304,-0.9682,1.0147,0.0386,-0.0379,-0.0142,-2.2850,1.4946,2.8678
2024-10-11T12:23:34.781Z,0.1209,-0.9128,-0.0191,-0.8304,-0.9682,1.0147,0.0467,-0.0320,-0.0036,-2.2850,1.4946,2.8678
2024-10-11T12:23:34.790Z,0.1115,-0.9298,-0.0045,-0.8304,-0.9682,1.0147,0.0500,-0.0279,0.0101,-2.2850,1.4946,2.8678
2024-10-11T12:23:34.801Z,0.1047,-0.9410,0.0062,-0.8119,-0.5407,0.6563,0.0509,-0.0227,0.0201,-2.2950,1.4932,2.8767
2024-10-11T12:23:34.811Z,0.0897,-0.9456,0.0157,-0.8119,-0.5407,0.6563,0.0547,-0.0143,0.0312,-2.2950,1.4932,2.8767
2024-10-11T12:23:34.820Z,0.1015,-0.9593,0.0036,-0.8119,-0.5407,0.6563,0.0570,0.0019,0.0386,-2.2950,1.4932,2.8767
2024-10-11T12:23:34.831Z,0.0715,-0.9758,-0.0050,-0.4629,-0.1980,0.8044,0.0610,0.0152,0.0449,-2.3163,1.4918,2.8978
2024-10-11T12:23:34.840Z,0.0495,-0.9812,-0.0031,-0.4629,-0.1980,0.8044,0.0732,0.0251,0.0479,-2.3163,1.4918,2.8978
2024-10-11T12:23:34.850Z,0.0495,-0.9846,0.0033,-0.4629,-0.1980,0.8044,0.0787,0.0320,0.0563,-2.3163,1.4918,2.8978
2024-10-11T12:23:34.861Z,0.0546,-0.9972,0.0149,-0.3843,0.0322,0.6176,0.0807,0.0441,0.0597,-2.3438,1.4899,2.9261
2024-10-11T12:23:34.871Z,0.0558,-1.0168,0.0371,-0.3843,0.0322,0.6176,0.0807,0.0506,0.0647,-2.3438,1.4899,2.9261
2024-10-11T12:23:34.881Z,0.0475,-1.0502,0.0764,-0.3843,0.0322,0.6176,0.0753,0.0496,0.0696,-2.3438,1.4899,2.9261
2024-10-11T12:23:34.890Z,0.0451,-1.0812,0.1199,-0.3843,0.0322,0.6176,0.0560,0.0477,0.0740,-2.3438,1.4899,2.9261
2024-10-11T12:23:34.901Z,0.0290,-1.1063,0.1684,-0.2788,0.8636,-0.4379,0.0404,0.0551,0.0774,-2.3744,1.4884,2.9578
2024-10-11T12:23:34.911Z,0.0239,-1.1415,0.1702,-0.2788,0.8636,-0.4379,0.0328,0.0562,0.0720,-2.3744,1.4884,2.9578
2024-10-11T12:23:34.921Z,0.0086,-1.1816,0.1276,0.0443,1.8471,-0.4031,0.0267,0.0636,0.0731,-2.4031,1.4878,2.9878
2024-10-11T12:23:34.931Z,0.0132,-1.1958,0.1071,0.0443,1.8471,-0.4031,0.0217,0.0699,0.0698,-2.4031,1.4878,2.9878
2024-10-11T12:23:34.940Z,0.0265,-1.2021,0.1378,0.0443,1.8471,-0.4031,0.0153,0.0652,0.0722,-2.4031,1.4878,2.9878
2024-10-11T12:23:34.951Z,0.0329,-1.2162,0.1482,-0.1891,2.1717,-0.6551,0.0166,0.0529,0.0726,-2.4302,1.4875,3.0163
2024-10-11T12:23:34.961Z,0.0096,-1.2259,0.1523,-0.1891,2.1717,-0.6551,0.0153,0.0364,0.0731,-2.4302,1.4875,3.0163
2024-10-11T12:23:34.971Z,-0.0063,-1.2331,0.1634,-0.1891,2.1717,-0.6551,0.0152,0.0199,0.0645,-2.4302,1.4875,3.0163
2024-10-11T12:23:34.981Z,-0.0393,-1.2486,0.1843,0.4620,2.4907,-1.0231,0.0154,0.0115,0.0603,-2.4539,1.4873,3.0403
2024-10-11T12:23:34.990Z,-0.0116,-1.2582,0.1940,0.4620,2.4907,-1.0231,0.0165,0.0002,0.0597,-2.4539,1.4873,3.0403
2024-10-11T12:23:35.000Z,-0.0019,-1.2686,0.1855,0.4620,2.4907,-1.0231,0.0201,-0.0047,0.0575,-2.4539,1.4873,3.0403
2024-10-11T12:23:35.011Z,-0.0309,-1.2747,0.1745,0.3875,2.7241,-0.8712,0.0260,-0.0043,0.0547,-2.4749,1.4868,3.0609
2024-10-11T12:23:35.020Z,-0.0312,-1.2738,0.1668,0.3875,2.7241,-0.8712,0.0324,0.0001,0.0509,-2.4749,1.4868,3.0609
2024-10-11T12:23:35.031Z,-0.0345,-1.2887,0.1657,0.3875,2.7241,-0.8712,0.0429,0.0071,0.0487,-2.4749,1.4868,3.0609
2024-10-11T12:23:35.041Z,-0.0419,-1.3195,0.1371,0.4739,3.1980,-0.4470,0.0584,0.0195,0.0426,-2.4921,1.4855,3.0783
2024-10-11T12:23:35.051Z,-0.0470,-1.3288,0.0966,0.4739,3.1980,-0.4470,0.0725,0.0542,0.0364,-2.4921,1.4855,3.0783
2024-10-11T12:23:35.061Z,-0.0336,-1.3130,0.0834,0.4739,3.1980,-0.4470,0.0871,0.0822,0.0285,-2.4921,1.4855,3.0783
2024-10-11T12:23:35.071Z,-0.0435,-1.2880,0.0915,0.4856,2.8448,-0.0303,0.0911,0.1142,0.0136,-2.5022,1.4830,3.0909
2024-10-11T12:23:35.081Z,-0.0452,-1.2668,0.0929,0.4856,2.8448,-0.0303,0.0940,0.1407,0.0045,-2.5022,1.4830,3.0909
2024-10-11T12:23:35.090Z,-0.0491,-1.2404,0.1156,0.4856,2.8448,-0.0303,0.0898,0.1679,-0.0102,-2.5022,1.4830,3.0909
2024-10-11T12:23:35.101Z,-0.0374,-1.2241,0.0998,0.3836,2.2196,-0.0571,0.0937,0.1863,-0.0222,-2.4995,1.4801,3.0930
2024-10-11T12:23:35.111Z,-0.0224,-1.2067,0.0682,0.3836,2.2196,-0.0571,0.0952,0.2011,-0.0360,-2.4995,1.4801,3.0930
2024-10-11T12:23:35.120Z,0.0000,-1.2003,0.0548,0.3836,2.2196,-0.0571,0.0998,0.2124,-0.0444,-2.4995,1.4801,3.0930
2024-10-11T12:23:35.131Z,0.0227,-1.1979,0.0703,-0.1747,1.9696,0.1824,0.0980,0.2143,-0.0522,-2.4865,1.4771,3.0862
2024-10-11T12:23:35.141Z,0.0192,-1.1828,0.1149,-0.1747,1.9696,0.1824,0.0912,0.2137,-0.0597,-2.4865,1.4771,3.0862
2024-10-11T12:23:35.151Z,0.0361,-1.1582,0.1528,-0.1747,1.9696,0.1824,0.0835,0.2045,-0.0634,-2.4865,1.4771,3.0862
2024-10-11T12:23:35.161Z,0.0798,-1.1501,0.1755,-0.7570,1.5226,-0.8089,0.0684,0.1947,-0.0622,-2.4684,1.4746,3.0739
2024-10-11T12:23:35.171Z,0.0980,-1.1574,0.1895,-0.7570,1.5226,-0.8089,0.0564,0.1750,-0.0586,-2.4684,1.4746,3.0739
2024-10-11T12:23:35.180Z,0.0983,-1.1481,0.1790,-0.7570,1.5226,-0.8089,0.0506,0.1639,-0.0522,-2.4684,1.4746,3.0739
2024-10-11T12:23:35.192Z,0.1013,-1.1405,0.1517,-0.9199,1.4204,-0.4924,0.0458,0.1588,-0.0463,-2.4540,1.4730,3.0643
2024-10-11T12:23:35.200Z,0.1026,-1.1430,0.1064,-0.9199,1.4204,-0.4924,0.0440,0.1613,-0.0381,-2.4540,1.4730,3.0643
2024-10-11T12:23:35.211Z,0.1207,-1.1323,0.0981,-0.9199,1.4204,-0.4924,0.0400,0.1684,-0.0314,-2.4540,1.4730,3.0643
2024-10-11T12:23:35.220Z,0.1099,-1.1133,0.1101,-0.9765,1.1189,-0.1246,0.0330,0.1763,-0.0219,-2.4462,1.4718,3.0613
2024-10-11T12:23:35.231Z,0.0919,-1.0817,0.1209,-0.9765,1.1189,-0.1246,0.0207,0.1847,-0.0173,-2.4462,1.4718,3.0613
2024-10-11T12:23:35.240Z,0.0823,-1.0511,0.1411,-0.9765,1.1189,-0.1246,0.0080,0.1925,-0.0117,-2.4462,1.4718,3.0613
2024-10-11T12:23:35.251Z,0.0772,-1.0363,0.1384,-0.6750,0.3990,-0.3656,0.0011,0.1873,-0.0027,-2.4446,1.4715,3.0650
2024-10-11T12:23:35.261Z,0.0812,-1.0247,0.1320,-0.6750,0.3990,-0.3656,-0.0033,0.1751,0.0111,-2.4446,1.4715,3.0650
2024-10-11T12:23:35.270Z,0.0914,-1.0038,0.1486,-0.6750,0.3990,-0.3656,-0.0073,0.1599,0.0301,-2.4446,1.4715,3.0650
2024-10-11T12:23:35.280Z,0.0892,-1.0050,0.1740,-0.7955,0.1123,-0.7465,-0.0079,0.1479,0.0443,-2.4543,1.4717,3.0792
2024-10-11T12:23:35.290Z,0.0797,-1.0240,0.1637,-0.7955,0.1123,-0.7465,-0.0077,0.1356,0.0574,-2.4543,1.4717,3.0792
2024-10-11T12:23:35.300Z,0.0717,-1.0392,0.1453,-0.7955,0.1123,-0.7465,-0.0123,0.1245,0.0648,-2.4543,1.4717,3.0792
2024-10-11T12:23:35.310Z,0.0506,-1.0252,0.1621,-0.4120,0.2659,-0.6800,-0.0175,0.1199,0.0704,-2.4735,1.4722,3.1020
2024-10-11T12:23:35.321Z,0.0206,-1.0060,0.1957,-0.4120,0.2659,-0.6800,-0.0346,0.1238,0.0713,-2.4735,1.4722,3.1020
2024-10-11T12:23:35.330Z,0.0261,-0.9965,0.2000,-0.4120,0.2659,-0.6800,-0.0493,0.1157,0.0768,-2.4735,1.4722,3.1020
2024-10-11T12:23:35.343Z,0.0459,-0.9889,0.1714,-0.4352,-0.0601,-0.6715,-0.0604,0.1170,0.0805,-2.4967,1.4737,3.1284
2024-10-11T12:23:35.350Z,0.0304,-0.9877,0.1145,-0.4352,-0.0601,-0.6715,-0.0632,0.1131,0.0833,-2.4967,1.4737,3.1284
2024-10-11T12:23:35.361Z,0.0133,-0.9892,0.0899,-0.4352,-0.0601,-0.6715,-0.0582,0.1104,0.0831,-2.4967,1.4737,3.1284
2024-10-11T12:23:35.371Z,-0.0145,-0.9887,0.0689,0.1759,-0.0634,0.2852,-0.0550,0.1150,0.0738,-2.5212,1.4754,-3.1273
2024-10-11T12:23:35.381Z,-0.0491,-0.9881,0.0468,0.1759,-0.0634,0.2852,-0.0479,0.1165,0.0607,-2.5212,1.4754,-3.1273
2024-10-11T12:23:35.391Z,-0.0784,-0.9761,0.0516,0.1759,-0.0634,0.2852,-0.0438,0.1143,0.0416,-2.5212,1.4754,-3.1273
2024-10-11T12:23:35.401Z,-0.0945,-0.9758,0.0667,0.9088,-0.1840,0.2386,-0.0420,0.1144,0.0272,-2.5342,1.4768,-3.1111
2024-10-11T12:23:35.411Z,-0.0952,-0.9830,0.0901,0.9088,-0.1840,0.2386,-0.0398,0.1114,0.0102,-2.5342,1.4768,-3.1111
2024-10-11T12:23:35.421Z,-0.0733,-0.9923,0.1243,0.9088,-0.1840,0.2386,-0.0439,0.1319,-0.0009,-2.5342,1.4768,-3.1111
2024-10-11T12:23:35.431Z,-0.0807,-0.9808,0.1651,0.7522,-0.1713,-0.7606,-0.0520,0.1381,-0.0146,-2.5338,1.4780,-3.1085
2024-10-11T12:23:35.441Z,-0.0680,-0.9685,0.1974,0.7522,-0.1713,-0.7606,-0.0533,0.1326,-0.0223,-2.5338,1.4780,-3.1085
2024-10-11T12:23:35.451Z,-0.0640,-0.9750,0.1986,0.7522,-0.1713,-0.7606,-0.0636,0.1330,-0.0304,-2.5338,1.4780,-3.1085
2024-10-11T12:23:35.461Z,-0.0452,-0.9853,0.2129,0.3982,-0.0971,-1.2195,-0.0714,0.1488,-0.0395,-2.5241,1.4800,-3.1142
2024-10-11T12:23:35.470Z,-0.0564,-0.9847,0.2164,0.3982,-0.0971,-1.2195,-0.0821,0.1501,-0.0463,-2.5241,1.4800,-3.1142
2024-10-11T12:23:35.480Z,-0.0736,-0.9892,0.2156,0.3982,-0.0971,-1.2195,-0.0914,0.1566,-0.0540,-2.5241,1.4800,-3.1142
2024-10-11T12:23:35.491Z,-0.0720,-0.9809,0.2008,0.7033,-0.1486,-1.0918,-0.0979,0.1471,-0.0627,-2.5058,1.4827,-3.1283
2024-10-11T12:23:35.501Z,-0.0791,-0.9857,0.2002,0.7033,-0.1486,-1.0918,-0.1069,0.1513,-0.0747,-2.5058,1.4827,-3.1283
2024-10-11T12:23:35.511Z,-0.0663,-0.9895,0.2095,0.7033,-0.1486,-1.0918,-0.1134,0.1519,-0.0776,-2.5058,1.4827,-3.1283
2024-10-11T12:23:35.521Z,-0.0416,-0.9911,0.1968,0.4186,-0.0571,-1.0577,-0.1175,0.1464,-0.0851,-2.4784,1.4860,3.1317
2024-10-11T12:23:35.530Z,-0.0608,-0.9813,0.1603,0.4186,-0.0571,-1.0577,-0.1139,0.1407,-0.0916,-2.4784,1.4860,3.1317
2024-10-11T12:23:35.541Z,-0.0596,-0.9693,0.1213,0.4186,-0.0571,-1.0577,-0.1139,0.1449,-0.1009,-2.4784,1.4860,3.1317
2024-10-11T12:23:35.551Z,-0.0559,-0.9560,0.0939,0.5891,-0.4231,-0.1089,-0.1119,0.1424,-0.1128,-2.4401,1.4893,3.0976
2024-10-11T12:23:35.561Z,-0.0588,-0.9372,0.0834,0.5891,-0.4231,-0.1089,-0.1086,0.1296,-0.1195,-2.4401,1.4893,3.0976
2024-10-11T12:23:35.571Z,-0.0667,-0.9261,0.0630,0.5891,-0.4231,-0.1089,-0.1074,0.1192,-0.1315,-2.4401,1.4893,3.0976
2024-10-11T12:23:35.581Z,-0.0529,-0.9153,0.0356,0.5479,-0.8280,0.4298,-0.1003,0.1097,-0.1362,-2.3890,1.4921,3.0500
2024-10-11T12:23:35.591Z,-0.0146,-0.8973,0.0357,0.5479,-0.8280,0.4298,-0.0984,0.1064,-0.1379,-2.3890,1.4921,3.0500
2024-10-11T12:23:35.601Z,0.0023,-0.8930,0.0233,0.5479,-0.8280,0.4298,-0.0951,0.1055,-0.1389,-2.3890,1.4921,3.0500
2024-10-11T12:23:35.610Z,0.0025,-0.9019,0.0148,0.0966,-0.9328,0.6159,-0.0907,0.1038,-0.1415,-2.3311,1.4944,2.9951
2024-10-11T12:23:35.621Z,-0.0099,-0.9062,-0.0007,0.0966,-0.9328,0.6159,-0.0819,0.1057,-0.1448,-2.3311,1.4944,2.9951
2024-10-11T12:23:35.631Z,-0.0054,-0.9188,-0.0200,0.0966,-0.9328,0.6159,-0.0739,0.1053,-0.1483,-2.3311,1.4944,2.9951
2024-10-11T12:23:35.640Z,0.0063,-0.9217,-0.0219,0.0861,-0.7308,0.9226,-0.0674,0.1079,-0.1471,-2.2698,1.4957,2.9369
2024-10-11T12:23:35.651Z,0.0091,-0.9279,-0.0091,0.0861,-0.7308,0.9226,-0.0619,0.1142,-0.1427,-2.2698,1.4957,2.9369
2024-10-11T12:23:35.661Z,0.0181,-0.9260,0.0149,0.0861,-0.7308,0.9226,-0.0647,0.1198,-0.1421,-2.2698,1.4957,2.9369
2024-10-11T12:23:35.670Z,0.0194,-0.9310,0.0264,-0.0087,-0.6437,0.4642,-0.0636,0.1258,-0.1408,-2.2086,1.4965,2.8792
2024-10-11T12:23:35.681Z,0.0232,-0.9280,0.0099,-0.0087,-0.6437,0.4642,-0.0623,0.1404,-0.1366,-2.2086,1.4965,2.8792
2024-10-11T12:23:35.691Z,0.0323,-0.9246,-0.0170,-0.0087,-0.6437,0.4642,-0.0529,0.1528,-0.1312,-2.2086,1.4965,2.8792
2024-10-11T12:23:35.700Z,0.0375,-0.9252,-0.0392,-0.1434,-0.6991,1.0891,-0.0454,0.1659,-0.1262,-2.1523,1.4969,2.8275
2024-10-11T12:23:35.711Z,0.0338,-0.9287,-0.0458,-0.1434,-0.6991,1.0891,-0.0350,0.1710,-0.1206,-2.1523,1.4969,2.8275
2024-10-11T12:23:35.721Z,0.0381,-0.9325,-0.0494,-0.1434,-0.6991,1.0891,-0.0259,0.1859,-0.1184,-2.1523,1.4969,2.8275
2024-10-11T12:23:35.730Z,0.0543,-0.9344,-0.0609,-0.2855,-0.6213,1.2678,-0.0139,0.1912,-0.1109,-2.1060,1.4964,2.7866
2024-10-11T12:23:35.740Z,0.0528,-0.9272,-0.0500,-0.2855,-0.6213,1.2678,-0.0048,0.1967,-0.1041,-2.1060,1.4964,2.7866
2024-10-11T12:23:35.750Z,0.0499,-0.9153,-0.0436,-0.2855,-0.6213,1.2678,0.0048,0.2007,-0.1022,-2.1060,1.4964,2.7866
2024-10-11T12:23:35.760Z,0.0645,-0.9111,-0.0564,-0.3757,-0.8449,1.2552,0.0144,0.2090,-0.0935,-2.0712,1.4950,2.7578
2024-10-11T12:23:35.771Z,0.0762,-0.9053,-0.0737,-0.3757,-0.8449,1.2552,0.0300,0.2138,-0.0876,-2.0712,1.4950,2.7578
2024-10-11T12:23:35.781Z,0.0834,-0.9005,-0.0834,-0.3757,-0.8449,1.2552,0.0453,0.2186,-0.0794,-2.0712,1.4950,2.7578
2024-10-11T12:23:35.791Z,0.0826,-0.8946,-0.0650,-0.5083,-1.0040,1.3005,0.0612,0.2228,-0.0760,-2.0503,1.4927,2.7432
2024-10-11T12:23:35.800Z,0.0803,-0.8952,-0.0410,-0.5083,-1.0040,1.3005,0.0725,0.2184,-0.0711,-2.0503,1.4927,2.7432
2024-10-11T12:23:35.811Z,0.0825,-0.8984,-0.0397,-0.5083,-1.0040,1.3005,0.0866,0.2164,-0.0680,-2.0503,1.4927,2.7432
2024-10-11T12:23:35.821Z,0.1032,-0.9178,-0.0502,-0.7457,-0.7593,1.2401,0.0982,0.2134,-0.0580,-2.0414,1.4895,2.7405
2024-10-11T12:23:35.830Z,0.1192,-0.9259,-0.0395,-0.7457,-0.7593,1.2401,0.1079,0.2117,-0.0530,-2.0414,1.4895,2.7405
2024-10-11T12:23:35.841Z,0.1083,-0.9147,-0.0044,-0.7457,-0.7593,1.2401,0.1147,0.1988,-0.0464,-2.0414,1.4895,2.7405
2024-10-11T12:23:35.851Z,0.1367,-0.8913,0.0326,-1.0432,-1.0467,0.4223,0.1157,0.1806,-0.0364,-2.0434,1.4858,2.7479
2024-10-11T12:23:35.861Z,0.1416,-0.8883,0.0442,-1.0432,-1.0467,0.4223,0.1162,0.1798,-0.0244,-2.0434,1.4858,2.7479
2024-10-11T12:23:35.871Z,0.1475,-0.8872,0.0353,-1.0432,-1.0467,0.4223,0.1245,0.1721,-0.0119,-2.0434,1.4858,2.7479
2024-10-11T12:23:35.881Z,0.1393,-0.8886,0.0088,-1.0003,-1.0461,0.7711,0.1338,0.1724,-0.0021,-2.0565,1.4821,2.7660
2024-10-11T12:23:35.891Z,0.1152,-0.8936,-0.0106,-1.0003,-1.0461,0.7711,0.1478,0.1659,-0.0000,-2.0565,1.4821,2.7660
2024-10-11T12:23:35.901Z,0.1188,-0.8830,-0.0191,-1.0003,-1.0461,0.7711,0.1575,0.1620,0.0069,-2.0565,1.4821,2.7660
2024-10-11T12:23:35.910Z,0.1008,-0.8758,-0.0036,-0.6639,-1.1761,0.8684,0.1650,0.1507,0.0112,-2.0775,1.4777,2.7912
2024-10-11T12:23:35.921Z,0.1047,-0.8669,0.0207,-0.6639,-1.1761,0.8684,0.1739,0.1294,0.0114,-2.0775,1.4777,2.7912
2024-10-11T12:23:35.931Z,0.0963,-0.8647,0.0310,-0.6639,-1.1761,0.8684,0.1751,0.1195,0.0173,-2.0775,1.4777,2.7912
2024-10-11T12:23:35.941Z,0.0804,-0.8780,0.0477,-0.4816,-1.1369,0.4393,0.1790,0.1041,0.0161,-2.1007,1.4729,2.8175
2024-10-11T12:23:35.951Z,0.0847,-0.8859,0.0480,-0.4816,-1.1369,0.4393,0.1830,0.0861,0.0191,-2.1007,1.4729,2.8175
2024-10-11T12:23:35.960Z,0.0574,-0.8772,0.0442,-0.4816,-1.1369,0.4393,0.1874,0.0688,0.0152,-2.1007,1.4729,2.8175
2024-10-11T12:23:35.971Z,0.0412,-0.8632,0.0469,-0.1105,-1.3153,0.4936,0.1906,0.0427,0.0169,-2.1229,1.4677,2.8411
2024-10-11T12:23:35.981Z,0.0458,-0.8591,0.0585,-0.1105,-1.3153,0.4936,0.1874,0.0346,0.0140,-2.1229,1.4677,2.8411
2024-10-11T12:23:35.991Z,0.0532,-0.8711,0.0734,-0.1105,-1.3153,0.4936,0.1907,0.0169,0.0148,-2.1229,1.4677,2.8411
2024-10-11T12:23:36.001Z,0.0445,-0.8668,0.0680,-0.1590,-1.2634,0.4138,0.1968,0.0064,0.0153,-2.1431,1.4622,2.8610
2024-10-11T12:23:36.011Z,0.0642,-0.8673,0.0319,-0.1590,-1.2634,0.4138,0.2016,-0.0021,0.0209,-2.1431,1.4622,2.8610
2024-10-11T12:23:36.020Z,0.0696,-0.8811,0.0836,-0.1590,-1.2634,0.4138,0.1980,-0.0128,0.0156,-2.1431,1.4622,2.8610
2024-10-11T12:23:36.031Z,0.0511,-0.8886,0.1599,-0.1744,-1.0195,-0.5397,0.1888,-0.0097,0.0176,-2.1618,1.4567,2.8792
2024-10-11T12:23:36.042Z,0.0371,-0.8939,0.1441,-0.1744,-1.0195,-0.5397,0.1870,-0.0060,0.0162,-2.1618,1.4567,2.8792
2024-10-11T12:23:36.050Z,0.0576,-0.8965,0.0646,-0.1744,-1.0195,-0.5397,0.1938,-0.0079,0.0146,-2.1618,1.4567,2.8792
2024-10-11T12:23:36.060Z,0.0139,-0.8957,0.0354,0.2113,-0.9478,0.7866,0.2001,-0.0133,0.0077,-2.1774,1.4512,2.8940
2024-10-11T12:23:36.071Z,-0.0128,-0.8913,0.0468,0.2113,-0.9478,0.7866,0.2037,-0.0188,-0.0012,-2.1774,1.4512,2.8940
2024-10-11T12:23:36.081Z,0.0096,-0.8777,0.0516,0.2113,-0.9478,0.7866,0.2059,-0.0186,-0.0003,-2.1774,1.4512,2.8940
2024-10-11T12:23:36.091Z,0.0465,-0.8607,0.0647,-0.2105,-1.3012,0.5481,0.2015,-0.0128,0.0040,-2.1896,1.4453,2.9055
2024-10-11T12:23:36.101Z,0.0692,-0.8594,0.0690,-0.2105,-1.3012,0.5481,0.1997,-0.0055,0.0075,-2.1896,1.4453,2.9055
2024-10-11T12:23:36.111Z,0.0544,-0.8753,0.0867,-0.2105,-1.3012,0.5481,0.1940,-0.0069,0.0116,-2.1896,1.4453,2.9055
2024-10-11T12:23:36.121Z,0.0265,-0.8964,0.1474,0.0679,-0.9118,-0.2794,0.1846,-0.0216,0.0087,-2.2019,1.4398,2.9169
2024-10-11T12:23:36.131Z,-0.0075,-0.9209,0.1915,0.0679,-0.9118,-0.2794,0.1701,-0.0352,-0.0006,-2.2019,1.4398,2.9169
2024-10-11T12:23:36.141Z,-0.0299,-0.9566,0.2381,0.0679,-0.9118,-0.2794,0.1546,-0.0347,-0.0028,-2.2019,1.4398,2.9169
2024-10-11T12:23:36.151Z,0.0386,-0.9706,0.2536,-0.2147,-0.1957,-1.1669,0.1404,-0.0332,-0.0011,-2.2093,1.4353,2.9229
2024-10-11T12:23:36.161Z,0.0879,-0.9702,0.2429,-0.2147,-0.1957,-1.1669,0.1283,-0.0342,0.0015,-2.2093,1.4353,2.9229
2024-10-11T12:23:36.171Z,0.0338,-0.9719,0.2674,-0.2147,-0.1957,-1.1669,0.1106,-0.0340,0.0016,-2.2093,1.4353,2.9229
2024-10-11T12:23:36.181Z,0.0365,-0.9580,0.2888,-0.0721,-0.3298,-1.4944,0.0968,-0.0391,0.0084,-2.2156,1.4322,2.9277
2024-10-11T12:23:36.191Z,0.0361,-0.9534,0.2510,-0.0721,-0.3298,-1.4944,0.0856,-0.0535,0.0099,-2.2156,1.4322,2.9277
2024-10-11T12:23:36.200Z,0.0363,-0.9402,0.2122,-0.0721,-0.3298,-1.4944,0.0789,-0.0707,0.0064,-2.2156,1.4322,2.9277
2024-10-11T12:23:36.211Z,0.0090,-0.9281,0.2312,0.2237,-0.6235,-0.9814,0.0618,-0.0798,0.0056,-2.2206,1.4301,2.9304
2024-10-11T12:23:36.221Z,0.0186,-0.9184,0.2682,0.2237,-0.6235,-0.9814,0.0500,-0.0921,0.0099,-2.2206,1.4301,2.9304
2024-10-11T12:23:36.231Z,0.0384,-0.9176,0.2079,0.2237,-0.6235,-0.9814,0.0476,-0.0954,0.0097,-2.2206,1.4301,2.9304
2024-10-11T12:23:36.242Z,0.0554,-0.9199,0.1187,-0.2740,-0.6865,0.2599,0.0557,-0.1013,0.0152,-2.2257,1.4286,2.9323
2024-10-11T12:23:36.251Z,0.0650,-0.9114,0.0832,-0.2740,-0.6865,0.2599,0.0618,-0.1031,0.0209,-2.2257,1.4286,2.9323
2024-10-11T12:23:36.261Z,0.0654,-0.8980,0.0788,-0.2740,-0.6865,0.2599,0.0624,-0.1047,0.0245,-2.2257,1.4286,2.9323
2024-10-11T12:23:36.270Z,0.0485,-0.8677,0.0975,-0.2004,-1.2369,0.4258,0.0632,-0.1000,0.0301,-2.2341,1.4269,2.9372
2024-10-11T12:23:36.281Z,0.0703,-0.8468,0.0965,-0.2004,-1.2369,0.4258,0.0617,-0.0933,0.0395,-2.2341,1.4269,2.9372
2024-10-11T12:23:36.291Z,0.0666,-0.8451,0.0970,-0.2004,-1.2369,0.4258,0.0678,-0.0821,0.0484,-2.2341,1.4269,2.9372
2024-10-11T12:23:36.301Z,0.0477,-0.8484,0.0770,-0.1750,-1.3758,0.6671,0.0707,-0.0776,0.0553,-2.2469,1.4252,2.9471
2024-10-11T12:23:36.311Z,0.0308,-0.8485,0.0848,-0.1750,-1.3758,0.6671,0.0693,-0.0705,0.0603,-2.2469,1.4252,2.9471
2024-10-11T12:23:36.321Z,0.0292,-0.8551,0.1299,-0.1750,-1.3758,0.6671,0.0652,-0.0574,0.0694,-2.2469,1.4252,2.9471
2024-10-11T12:23:36.330Z,0.0541,-0.8751,0.1555,-0.3047,-1.0885,-0.1051,0.0612,-0.0455,0.0761,-2.2636,1.4236,2.9618
2024-10-11T12:23:36.341Z,0.0580,-0.8911,0.1363,-0.3047,-1.0885,-0.1051,0.0596,-0.0442,0.0835,-2.2636,1.4236,2.9618
2024-10-11T12:23:36.351Z,0.0300,-0.8891,0.1289,-0.3047,-1.0885,-0.1051,0.0543,-0.0457,0.0872,-2.2636,1.4236,2.9618
2024-10-11T12:23:36.361Z,-0.0169,-0.8938,0.1585,0.4207,-0.9239,-0.1805,0.0418,-0.0521,0.0848,-2.2827,1.4226,2.9790
2024-10-11T12:23:36.371Z,-0.0174,-0.9070,0.2065,0.4207,-0.9239,-0.1805,0.0275,-0.0557,0.0819,-2.2827,1.4226,2.9790
2024-10-11T12:23:36.381Z,-0.0053,-0.9224,0.1917,0.4207,-0.9239,-0.1805,0.0200,-0.0572,0.0866,-2.2827,1.4226,2.9790
2024-10-11T12:23:36.392Z,0.0174,-0.9335,0.1530,0.0305,-0.5245,-0.0627,0.0172,-0.0655,0.0893,-2.3008,1.4223,2.9948
2024-10-11T12:23:36.400Z,0.0038,-0.9546,0.1724,0.0305,-0.5245,-0.0627,0.0072,-0.0660,0.0873,-2.3008,1.4223,2.9948
2024-10-11T12:23:36.411Z,-0.0108,-0.9814,0.2317,0.0305,-0.5245,-0.0627,-0.0065,-0.0612,0.0823,-2.3008,1.4223,2.9948
2024-10-11T12:23:36.422Z,0.0066,-1.0043,0.2316,0.1150,0.1690,-0.8093,-0.0251,-0.0560,0.0760,-2.3172,1.4229,3.0089
2024-10-11T12:23:36.431Z,0.0102,-1.0109,0.1951,0.1150,0.1690,-0.8093,-0.0251,-0.0560,0.0760,-2.3172,1.4229,3.0089
2024-10-11T12:23:36.441Z,0.0112,-1.0037,0.1859,0.1150,0.1690,-0.8093,-0.0301,-0.0642,0.0682,-2.3172,1.4229,3.0089
2024-10-11T12:23:36.450Z,-0.0111,-1.0228,0.1960,0.3101,0.3557,-0.5249,-0.0370,-0.0796,0.0663,-2.3305,1.4241,3.0199
2024-10-11T12:23:36.461Z,-0.0249,-1.0437,0.2042,0.3101,0.3557,-0.5249,-0.0441,-0.0851,0.0585,-2.3305,1.4241,3.0199
2024-10-11T12:23:36.472Z,-0.0138,-1.0680,0.2133,0.3101,0.3557,-0.5249,-0.0565,-0.1186,0.0527,-2.3305,1.4241,3.0199
2024-10-11T12:23:36.482Z,-0.0034,-1.0915,0.2016,0.2054,1.0300,-0.5337,-0.0587,-0.1431,0.0524,-2.3406,1.4259,3.0265
2024-10-11T12:23:36.492Z,-0.0104,-1.1235,0.1776,0.2054,1.0300,-0.5337,-0.0587,-0.1431,0.0524,-2.3406,1.4259,3.0265
2024-10-11T12:23:36.502Z,-0.0054,-1.1549,0.1951,0.2054,1.0300,-0.5337,-0.0615,-0.1915,0.0582,-2.3406,1.4259,3.0265
2024-10-11T12:23:36.510Z,0.0050,-1.1844,0.2099,0.1231,1.9480,-0.6981,-0.0615,-0.1915,0.0582,-2.3510,1.4278,3.0314
2024-10-11T12:23:36.521Z,-0.0245,-1.2147,0.2336,0.1231,1.9480,-0.6981,-0.0767,-0.2234,0.0567,-2.3510,1.4278,3.0314
2024-10-11T12:23:36.532Z,-0.0448,-1.2344,0.2388,0.1231,1.9480,-0.6981,-0.0881,-0.2332,0.0544,-2.3510,1.4278,3.0314
2024-10-11T12:23:36.542Z,-0.0387,-1.2567,0.2252,0.5300,2.6420,-0.8127,-0.0881,-0.2332,0.0544,-2.3612,1.4304,3.0345
2024-10-11T12:23:36.551Z,-0.0477,-1.2781,0.2247,0.5300,2.6420,-0.8127,-0.1051,-0.2405,0.0491,-2.3612,1.4304,3.0345
2024-10-11T12:23:36.560Z,-0.0530,-1.2965,0.2163,0.5300,2.6420,-0.8127,-0.1051,-0.2405,0.0491,-2.3612,1.4304,3.0345
2024-10-11T12:23:36.571Z,-0.0454,-1.3342,0.1881,0.5832,3.4332,-0.4700,-0.1181,-0.2432,0.0303,-2.3685,1.4337,3.0344
2024-10-11T12:23:36.581Z,-0.0513,-1.3815,0.1690,0.5832,3.4332,-0.4700,-0.1256,-0.2541,0.0177,-2.3685,1.4337,3.0344
2024-10-11T12:23:36.592Z,-0.0788,-1.4053,0.1859,0.5832,3.4332,-0.4700,-0.1351,-0.2611,0.0034,-2.3685,1.4337,3.0344
2024-10-11T12:23:36.601Z,-0.0845,-1.4127,0.2193,0.9743,4.1347,-0.8541,-0.1438,-0.2772,-0.0082,-2.3688,1.4376,3.0267
2024-10-11T12:23:36.612Z,-0.0641,-1.4071,0.2038,0.9743,4.1347,-0.8541,-0.1473,-0.2877,-0.0208,-2.3688,1.4376,3.0267
2024-10-11T12:23:36.621Z,-0.0820,-1.3888,0.1701,0.9743,4.1347,-0.8541,-0.1541,-0.3016,-0.0274,-2.3688,1.4376,3.0267
2024-10-11T12:23:36.630Z,-0.0789,-1.3549,0.1462,0.8904,3.5181,-0.1657,-0.1541,-0.3016,-0.0274,-2.3601,1.4419,3.0091
2024-10-11T12:23:36.642Z,-0.0491,-1.3176,0.1588,0.8904,3.5181,-0.1657,-0.1718,-0.3251,-0.0348,-2.3601,1.4419,3.0091
2024-10-11T12:23:36.651Z,-0.0689,-1.2899,0.1746,0.8904,3.5181,-0.1657,-0.1766,-0.3341,-0.0337,-2.3601,1.4419,3.0091
2024-10-11T12:23:36.661Z,-0.0455,-1.2785,0.1635,0.5582,2.8082,-0.3698,-0.1778,-0.3391,-0.0324,-2.3462,1.4468,2.9852
2024-10-11T12:23:36.671Z,-0.0144,-1.2862,0.1169,0.5582,2.8082,-0.3698,-0.1833,-0.3414,-0.0276,-2.3462,1.4468,2.9852
2024-10-11T12:23:36.681Z,-0.0212,-1.2706,0.1284,0.5582,2.8082,-0.3698,-0.1925,-0.3430,-0.0207,-2.3462,1.4468,2.9852
2024-10-11T12:23:36.691Z,-0.0140,-1.2564,0.1573,0.3263,2.5702,-0.4534,-0.2051,-0.3425,-0.0180,-2.3325,1.4522,2.9611
2024-10-11T12:23:36.701Z,-0.0036,-1.2444,0.1849,0.3263,2.5702,-0.4534,-0.2141,-0.3454,-0.0182,-2.3325,1.4522,2.9611
2024-10-11T12:23:36.711Z,-0.0215,-1.2349,0.1790,0.3263,2.5702,-0.4534,-0.2185,-0.3423,-0.0187,-2.3325,1.4522,2.9611
2024-10-11T12:23:36.721Z,-0.0391,-1.2125,0.1523,0.6109,2.1108,-0.3678,-0.2216,-0.3294,-0.0134,-2.3175,1.4584,2.9358
2024-10-11T12:23:36.731Z,-0.0153,-1.1912,0.0951,0.6109,2.1108,-0.3678,-0.2125,-0.3118,-0.0062,-2.3175,1.4584,2.9358
2024-10-11T12:23:36.741Z,0.0422,-1.1953,0.0434,0.6109,2.1108,-0.3678,-0.2051,-0.2863,-0.0040,-2.3175,1.4584,2.9358
2024-10-11T12:23:36.751Z,0.0350,-1.1978,0.0131,-0.0469,1.9988,0.8941,-0.1974,-0.2721,-0.0075,-2.3034,1.4645,2.9126
2024-10-11T12:23:36.761Z,-0.0132,-1.2009,0.0078,-0.0469,1.9988,0.8941,-0.1845,-0.2660,-0.0129,-2.3034,1.4645,2.9126
2024-10-11T12:23:36.771Z,-0.0396,-1.1944,0.0116,-0.0469,1.9988,0.8941,-0.1737,-0.2650,-0.0152,-2.3034,1.4645,2.9126
2024-10-11T12:23:36.781Z,-0.0481,-1.1954,0.0270,0.7246,1.9716,0.6640,-0.1617,-0.2680,-0.0127,-2.2876,1.4697,2.8886
2024-10-11T12:23:36.791Z,-0.0329,-1.1979,0.0378,0.7246,1.9716,0.6640,-0.1567,-0.2488,-0.0062,-2.2876,1.4697,2.8886
2024-10-11T12:23:36.801Z,-0.0102,-1.1854,0.0525,0.7246,1.9716,0.6640,-0.1423,-0.2289,0.0035,-2.2876,1.4697,2.8886
2024-10-11T12:23:36.811Z,0.0304,-1.1837,0.0781,-0.0080,1.7273,0.1036,-0.1423,-0.2289,0.0035,-2.2752,1.4740,2.8684
2024-10-11T12:23:36.821Z,0.0304,-1.1837,0.0781,-0.0080,1.7273,0.1036,-0.0949,-0.1932,0.0115,-2.2752,1.4740,2.8684
2024-10-11T12:23:36.831Z,-0.0043,-1.2142,0.0935,-0.0080,1.7273,0.1036,-0.0656,-0.1711,0.0126,-2.2752,1.4740,2.8684
2024-10-11T12:23:36.841Z,-0.0386,-1.2413,0.1174,0.6462,2.4451,-0.2870,-0.0284,-0.1465,0.0115,-2.2713,1.4766,2.8589
2024-10-11T12:23:36.850Z,-0.0354,-1.2650,0.1097,0.6462,2.4451,-0.2870,0.0022,-0.1266,0.0155,-2.2713,1.4766,2.8589
2024-10-11T12:23:36.860Z,-0.0399,-1.2900,0.0798,0.6462,2.4451,-0.2870,0.0022,-0.1266,0.0155,-2.2713,1.4766,2.8589
2024-10-11T12:23:36.871Z,0.0049,-1.2998,0.1486,0.5057,3.0681,-0.1195,0.0514,-0.0888,0.0345,-2.2788,1.4764,2.8623
2024-10-11T12:23:36.881Z,0.0049,-1.2998,0.1486,0.5057,3.0681,-0.1195,0.0613,-0.0759,0.0450,-2.2788,1.4764,2.8623
2024-10-11T12:23:36.891Z,-0.0095,-1.2719,0.1846,0.5057,3.0681,-0.1195,0.0684,-0.0668,0.0497,-2.2788,1.4764,2.8623
2024-10-11T12:23:36.901Z,-0.0629,-1.2420,0.1986,0.9130,2.3924,-1.0506,0.0728,-0.0629,0.0494,-2.2983,1.4750,2.8790
2024-10-11T12:23:36.911Z,-0.0857,-1.2173,0.1984,0.9130,2.3924,-1.0506,0.0696,-0.0475,0.0540,-2.2983,1.4750,2.8790
2024-10-11T12:23:36.921Z,-0.0753,-1.1118,0.2166,0.9130,2.3924,-1.0506,0.0551,-0.0290,0.0512,-2.2983,1.4750,2.8790
2024-10-11T12:23:36.931Z,-0.0852,-1.0492,0.2394,0.9594,1.0554,-1.2573,0.0403,-0.0145,0.0487,-2.3187,1.4736,2.8980
2024-10-11T12:23:36.941Z,-0.0852,-1.0492,0.2394,0.9594,1.0554,-1.2573,0.0262,0.0218,0.0329,-2.3187,1.4736,2.8980
2024-10-11T12:23:36.951Z,-0.1267,-1.0071,0.2140,0.9594,1.0554,-1.2573,0.0150,0.0423,0.0292,-2.3187,1.4736,2.8980
2024-10-11T12:23:36.961Z,-0.1129,-0.9700,0.1922,1.2606,-0.2913,-0.9366,0.0099,0.0663,0.0267,-2.3311,1.4731,2.9110
2024-10-11T12:23:36.971Z,-0.0608,-0.9398,0.1772,1.2606,-0.2913,-0.9366,0.0146,0.0830,0.0221,-2.3311,1.4731,2.9110
2024-10-11T12:23:36.981Z,-0.0608,-0.9398,0.1772,1.2606,-0.2913,-0.9366,0.0348,0.0867,0.0110,-2.3311,1.4731,2.9110
2024-10-11T12:23:36.991Z,-0.1023,-0.9726,0.1530,0.8693,-0.3230,-0.6077,0.0559,0.0893,-0.0015,-2.3382,1.4725,2.9202
2024-10-11T12:23:37.001Z,-0.1050,-0.9775,0.1415,0.8693,-0.3230,-0.6077,0.0723,0.0882,-0.0107,-2.3382,1.4725,2.9202
2024-10-11T12:23:37.011Z,-0.1050,-0.9775,0.1415,0.8693,-0.3230,-0.6077,0.0749,0.0980,-0.0247,-2.3382,1.4725,2.9202
2024-10-11T12:23:37.021Z,-0.0623,-1.0051,0.1993,0.9454,-0.0609,-0.7132,0.0665,0.0983,-0.0351,-2.3386,1.4704,2.9231
2024-10-11T12:23:37.031Z,-0.0536,-1.0134,0.1828,0.9454,-0.0609,-0.7132,0.0517,0.0968,-0.0450,-2.3386,1.4704,2.9231
2024-10-11T12:23:37.041Z,-0.0312,-0.9957,0.1766,0.9454,-0.0609,-0.7132,0.0351,0.0826,-0.0486,-2.3386,1.4704,2.9231
2024-10-11T12:23:37.051Z,0.0114,-0.9791,0.1973,0.4690,-0.0183,-0.7845,0.0129,0.0684,-0.0500,-2.3290,1.4687,2.9159
2024-10-11T12:23:37.061Z,0.0114,-0.9791,0.1973,0.4690,-0.0183,-0.7845,-0.0018,0.0510,-0.0480,-2.3290,1.4687,2.9159
2024-10-11T12:23:37.071Z,0.0354,-0.9904,0.1324,0.4690,-0.0183,-0.7845,-0.0117,0.0289,-0.0500,-2.3290,1.4687,2.9159
2024-10-11T12:23:37.081Z,0.0361,-0.9928,0.1077,-0.1110,-0.0384,-0.2858,-0.0149,0.0044,-0.0516,-2.3154,1.4684,2.9034
2024-10-11T12:23:37.091Z,0.0423,-1.0029,0.0813,-0.1110,-0.0384,-0.2858,-0.0172,-0.0101,-0.0476,-2.3154,1.4684,2.9034
2024-10-11T12:23:37.101Z,0.0423,-1.0029,0.0813,-0.1110,-0.0384,-0.2858,-0.0199,-0.0255,-0.0427,-2.3154,1.4684,2.9034
2024-10-11T12:23:37.111Z,0.0752,-1.0084,0.0526,-0.5271,0.1324,0.4744,-0.0243,-0.0413,-0.0348,-2.3012,1.4685,2.8885
2024-10-11T12:23:37.121Z,0.0980,-0.9776,0.0431,-0.5271,0.1324,0.4744,-0.0361,-0.0591,-0.0314,-2.3012,1.4685,2.8885
2024-10-11T12:23:37.131Z,0.0697,-0.9724,0.0155,-0.5271,0.1324,0.4744,-0.0392,-0.0691,-0.0290,-2.3012,1.4685,2.8885
2024-10-11T12:23:37.141Z,0.0691,-0.9693,-0.0058,-0.4080,-0.2239,0.8448,-0.0442,-0.0772,-0.0230,-2.2898,1.4693,2.8752
2024-10-11T12:23:37.151Z,0.0841,-0.9776,-0.0261,-0.4080,-0.2239,0.8448,-0.0459,-0.0846,-0.0216,-2.2898,1.4693,2.8752
2024-10-11T12:23:37.160Z,0.0841,-0.9776,-0.0261,-0.4080,-0.2239,0.8448,-0.0533,-0.0821,-0.0157,-2.2898,1.4693,2.8752
2024-10-11T12:23:37.170Z,0.0677,-0.9744,-0.0104,-0.3638,-0.2314,1.0030,-0.0572,-0.0810,-0.0070,-2.2813,1.4705,2.8639
2024-10-11T12:23:37.181Z,0.0649,-0.9117,0.0432,-0.3638,-0.2314,1.0030,-0.0651,-0.0736,-0.0041,-2.2813,1.4705,2.8639
2024-10-11T12:23:37.191Z,0.0715,-0.8951,0.0280,-0.3638,-0.2314,1.0030,-0.0672,-0.0655,0.0094,-2.2813,1.4705,2.8639
2024-10-11T12:23:37.201Z,0.0926,-0.8697,0.0599,-0.4630,-1.0050,0.6409,-0.0712,-0.0472,0.0170,-2.2761,1.4724,2.8563
2024-10-11T12:23:37.211Z,0.0926,-0.8697,0.0599,-0.4630,-1.0050,0.6409,-0.0759,-0.0321,0.0253,-2.2761,1.4724,2.8563
2024-10-11T12:23:37.221Z,0.0547,-0.8551,0.0785,-0.4630,-1.0050,0.6409,-0.0666,-0.0252,0.0292,-2.2761,1.4724,2.8563
2024-10-11T12:23:37.231Z,0.0359,-0.8534,0.0591,-0.2442,-1.3710,0.1670,-0.0615,-0.0161,0.0328,-2.2777,1.4746,2.8566
2024-10-11T12:23:37.241Z,0.0332,-0.8428,0.0616,-0.2442,-1.3710,0.1670,-0.0586,0.0009,0.0349,-2.2777,1.4746,2.8566
2024-10-11T12:23:37.251Z,0.0327,-0.8366,0.0710,-0.2442,-1.3710,0.1670,-0.0536,0.0108,0.0333,-2.2777,1.4746,2.8566
2024-10-11T12:23:37.261Z,0.0327,-0.8366,0.0710,-0.0503,-1.5629,0.1848,-0.0513,0.0196,0.0295,-2.2831,1.4764,2.8617
2024-10-11T12:23:37.271Z,0.0003,-0.8417,0.0571,-0.0503,-1.5629,0.1848,-0.0405,0.0172,0.0282,-2.2831,1.4764,2.8617
2024-10-11T12:23:37.281Z,0.0269,-0.8513,0.0246,-0.0503,-1.5629,0.1848,-0.0341,0.0244,0.0275,-2.2831,1.4764,2.8617
2024-10-11T12:23:37.291Z,0.0593,-0.8458,0.0040,-0.0667,-1.4055,0.6622,-0.0296,0.0232,0.0336,-2.2888,1.4778,2.8677
2024-10-11T12:23:37.301Z,0.0584,-0.8433,-0.0018,-0.0667,-1.4055,0.6622,-0.0192,0.0153,0.0375,-2.2888,1.4778,2.8677
2024-10-11T12:23:37.311Z,0.0584,-0.8433,-0.0018,-0.0667,-1.4055,0.6622,-0.0102,0.0102,0.0417,-2.2888,1.4778,2.8677
2024-10-11T12:23:37.321Z,0.0449,-0.8308,-0.0439,-0.2165,-1.5209,1.0165,0.0016,0.0059,0.0449,-2.2994,1.4785,2.8785
2024-10-11T12:23:37.331Z,0.0739,-0.8021,-0.0517,-0.2165,-1.5209,1.0165,0.0148,0.0063,0.0505,-2.2994,1.4785,2.8785
2024-10-11T12:23:37.341Z,0.0864,-0.7883,-0.0612,-0.2165,-1.5209,1.0165,0.0277,0.0082,0.0576,-2.2994,1.4785,2.8785
2024-10-11T12:23:37.351Z,0.0752,-0.8022,-0.0510,-0.6196,-2.0202,1.4773,0.0413,0.0022,0.0644,-2.3177,1.4784,2.8967
2024-10-11T12:23:37.361Z,0.0752,-0.8022,-0.0510,-0.6196,-2.0202,1.4773,0.0467,0.0047,0.0685,-2.3177,1.4784,2.8967
2024-10-11T12:23:37.371Z,0.0589,-0.8143,0.0190,-0.6196,-2.0202,1.4773,0.0548,-0.0017,0.0735,-2.3177,1.4784,2.8967
2024-10-11T12:23:37.381Z,0.0575,-0.8250,0.0389,-0.3747,-1.7765,0.6695,0.0512,0.0014,0.0788,-2.3435,1.4774,2.9222
2024-10-11T12:23:37.391Z,0.0646,-0.8449,0.0542,-0.3747,-1.7765,0.6695,0.0552,0.0028,0.0874,-2.3435,1.4774,2.9222
2024-10-11T12:23:37.400Z,0.0775,-0.8471,0.0650,-0.3747,-1.7765,0.6695,0.0623,0.0019,0.0919,-2.3435,1.4774,2.9222
2024-10-11T12:23:37.411Z,0.0775,-0.8471,0.0650,-0.5698,-1.4432,0.2907,0.0689,-0.0001,0.0940,-2.3751,1.4763,2.9534
2024-10-11T12:23:37.421Z,0.0090,-0.8530,0.0195,-0.5698,-1.4432,0.2907,0.0743,-0.0046,0.0909,-2.3751,1.4763,2.9534
2024-10-11T12:23:37.431Z,-0.0129,-0.8515,0.0034,-0.5698,-1.4432,0.2907,0.0812,-0.0102,0.0880,-2.3751,1.4763,2.9534
2024-10-11T12:23:37.441Z,0.0023,-0.8505,0.0040,0.2641,-1.4103,0.8932,0.0838,-0.0157,0.0892,-2.4071,1.4745,2.9849
2024-10-11T12:23:37.451Z,0.0105,-0.8396,0.0331,0.2641,-1.4103,0.8932,0.0809,-0.0228,0.0877,-2.4071,1.4745,2.9849
2024-10-11T12:23:37.461Z,0.0119,-0.8361,0.0615,0.2641,-1.4103,0.8932,0.0831,-0.0225,0.0914,-2.4071,1.4745,2.9849
2024-10-11T12:23:37.470Z,0.0251,-0.8417,0.0666,-0.0131,-1.5698,0.3411,0.0778,-0.0185,0.0932,-2.4383,1.4725,3.0152
2024-10-11T12:23:37.481Z,0.0289,-0.8495,0.0697,-0.0131,-1.5698,0.3411,0.0759,-0.0249,0.0972,-2.4383,1.4725,3.0152
2024-10-11T12:23:37.491Z,0.0008,-0.8406,0.1128,-0.0131,-1.5698,0.3411,0.0635,-0.0240,0.0948,-2.4383,1.4725,3.0152
2024-10-11T12:23:37.501Z,-0.0188,-0.8423,0.1704,0.1188,-1.5218,-0.1981,0.0471,-0.0222,0.0926,-2.4696,1.4707,3.0456
2024-10-11T12:23:37.512Z,-0.0188,-0.8423,0.1704,0.1188,-1.5218,-0.1981,0.0331,-0.0169,0.0916,-2.4696,1.4707,3.0456
2024-10-11T12:23:37.521Z,-0.0045,-0.8613,0.1834,0.1188,-1.5218,-0.1981,0.0205,-0.0094,0.0934,-2.4696,1.4707,3.0456
2024-10-11T12:23:37.531Z,0.0132,-0.8560,0.1871,0.0872,-1.3202,-0.8117,0.0067,-0.0027,0.0960,-2.4983,1.4700,3.0735
2024-10-11T12:23:37.541Z,0.0101,-0.8689,0.2084,0.0872,-1.3202,-0.8117,-0.0092,0.0061,0.0955,-2.4983,1.4700,3.0735
2024-10-11T12:23:37.551Z,-0.0183,-0.8866,0.2321,0.0872,-1.3202,-0.8117,-0.0259,-0.0004,0.0861,-2.4983,1.4700,3.0735
2024-10-11T12:23:37.561Z,-0.0183,-0.8866,0.2321,0.2745,-1.0546,-1.3090,-0.0470,0.0000,0.0778,-2.5255,1.4706,3.1004
2024-10-11T12:23:37.571Z,-0.0633,-0.8992,0.2426,0.2745,-1.0546,-1.3090,-0.0694,-0.0081,0.0712,-2.5255,1.4706,3.1004
2024-10-11T12:23:37.581Z,-0.0368,-0.8916,0.2473,0.2745,-1.0546,-1.3090,-0.0870,-0.0178,0.0638,-2.5255,1.4706,3.1004
2024-10-11T12:23:37.591Z,-0.0476,-0.8834,0.2259,0.3749,-1.0214,-1.4553,-0.1038,-0.0218,0.0511,-2.5457,1.4728,3.1201
2024-10-11T12:23:37.601Z,-0.0595,-0.8816,0.2062,0.3749,-1.0214,-1.4553,-0.1218,-0.0236,0.0416,-2.5457,1.4728,3.1201
2024-10-11T12:23:37.612Z,-0.0591,-0.8705,0.1906,0.3749,-1.0214,-1.4553,-0.1361,-0.0233,0.0357,-2.5457,1.4728,3.1201
2024-10-11T12:23:37.620Z,-0.0239,-0.8532,0.1579,0.5536,-1.2530,-0.9252,-0.1427,-0.0219,0.0330,-2.5592,1.4765,3.1326
2024-10-11T12:23:37.630Z,0.0047,-0.8315,0.0983,0.5536,-1.2530,-0.9252,-0.1459,-0.0155,0.0324,-2.5592,1.4765,3.1326
2024-10-11T12:23:37.641Z,-0.0062,-0.8050,0.0360,0.5536,-1.2530,-0.9252,-0.1393,-0.0257,0.0310,-2.5592,1.4765,3.1326
2024-10-11T12:23:37.651Z,-0.0216,-0.7704,0.0083,0.0734,-1.9234,0.5609,-0.1347,-0.0265,0.0243,-2.5702,1.4807,-3.1407
2024-10-11T12:23:37.661Z,-0.0366,-0.7585,-0.0098,0.0734,-1.9234,0.5609,-0.1193,-0.0265,0.0193,-2.5702,1.4807,-3.1407
2024-10-11T12:23:37.670Z,-0.0279,-0.7620,-0.0516,0.0734,-1.9234,0.5609,-0.1080,-0.0335,0.0152,-2.5702,1.4807,-3.1407
2024-10-11T12:23:37.680Z,-0.0086,-0.7642,-0.0765,0.2282,-2.2994,1.3949,-0.0915,-0.0342,0.0143,-2.5771,1.4842,-3.1348
2024-10-11T12:23:37.691Z,-0.0208,-0.7619,-0.0690,0.2282,-2.2994,1.3949,-0.0804,-0.0315,0.0086,-2.5771,1.4842,-3.1348
2024-10-11T12:23:37.700Z,-0.0138,-0.7600,-0.0713,0.2282,-2.2994,1.3949,-0.0655,-0.0413,0.0080,-2.5771,1.4842,-3.1348
2024-10-11T12:23:37.711Z,-0.0098,-0.7592,-0.0756,0.1177,-2.3227,1.5169,-0.0515,-0.0391,0.0048,-2.5811,1.4864,-3.1324
2024-10-11T12:23:37.721Z,-0.0008,-0.7680,-0.0924,0.1177,-2.3227,1.5169,-0.0365,-0.0345,0.0051,-2.5811,1.4864,-3.1324
2024-10-11T12:23:37.731Z,0.0163,-0.7761,-0.0806,0.1177,-2.3227,1.5169,-0.0206,-0.0410,0.0090,-2.5811,1.4864,-3.1324
2024-10-11T12:23:37.741Z,-0.0015,-0.7786,-0.0437,-0.1821,-2.1583,1.5779,-0.0122,-0.0403,0.0059,-2.5847,1.4873,-3.1303
2024-10-11T12:23:37.751Z,-0.0265,-0.7812,-0.0227,-0.1821,-2.1583,1.5779,-0.0073,-0.0392,0.0041,-2.5847,1.4873,-3.1303
2024-10-11T12:23:37.762Z,-0.0175,-0.7910,-0.0287,-0.1821,-2.1583,1.5779,0.0018,-0.0308,0.0014,-2.5847,1.4873,-3.1303
2024-10-11T12:23:37.770Z,-0.0001,-0.7965,-0.0460,0.1342,-1.9997,1.1262,0.0189,-0.0309,0.0060,-2.5868,1.4874,-3.1296
2024-10-11T12:23:37.781Z,0.0256,-0.8020,-0.0471,0.1342,-1.9997,1.1262,0.0301,-0.0244,0.0113,-2.5868,1.4874,-3.1296
2024-10-11T12:23:37.791Z,0.0246,-0.8163,-0.0273,0.1342,-1.9997,1.1262,0.0387,-0.0134,0.0118,-2.5868,1.4874,-3.1296
2024-10-11T12:23:37.801Z,0.0172,-0.8301,-0.0010,-0.2368,-1.7412,1.0810,0.0391,-0.0054,0.0123,-2.5900,1.4865,-3.1272
2024-10-11T12:23:37.811Z,0.0168,-0.8397,0.0350,-0.2368,-1.7412,1.0810,0.0461,0.0036,0.0134,-2.5900,1.4865,-3.1272
2024-10-11T12:23:37.821Z,0.0186,-0.8533,0.0427,-0.2368,-1.7412,1.0810,0.0459,0.0074,0.0153,-2.5900,1.4865,-3.1272
2024-10-11T12:23:37.830Z,0.0070,-0.8663,0.0537,-0.1923,-1.3860,0.4223,0.0511,0.0078,0.0136,-2.5949,1.4850,-3.1226
2024-10-11T12:23:37.841Z,-0.0018,-0.8754,0.0634,-0.1923,-1.3860,0.4223,0.0556,0.0004,0.0139,-2.5949,1.4850,-3.1226
2024-10-11T12:23:37.851Z,0.0132,-0.8802,0.0736,-0.1923,-1.3860,0.4223,0.0509,0.0038,0.0154,-2.5949,1.4850,-3.1226
2024-10-11T12:23:37.861Z,0.0343,-0.8758,0.0970,-0.1790,-1.1360,0.1126,0.0498,0.0045,0.0188,-2.5998,1.4834,-3.1179
2024-10-11T12:23:37.870Z,0.0511,-0.8731,0.1216,-0.1790,-1.1360,0.1126,0.0399,0.0045,0.0259,-2.5998,1.4834,-3.1179
2024-10-11T12:23:37.880Z,0.0452,-0.8807,0.1225,-0.1790,-1.1360,0.1126,0.0377,0.0012,0.0296,-2.5998,1.4834,-3.1179
2024-10-11T12:23:37.890Z,0.0233,-0.8868,0.1311,-0.4481,-1.1253,-0.3365,0.0308,0.0017,0.0297,-2.6086,1.4821,-3.1092
2024-10-11T12:23:37.901Z,0.0166,-0.8811,0.1545,-0.4481,-1.1253,-0.3365,0.0183,-0.0071,0.0315,-2.6086,1.4821,-3.1092
2024-10-11T12:23:37.911Z,0.0146,-0.8810,0.1672,-0.4481,-1.1253,-0.3365,0.0072,-0.0047,0.0292,-2.6086,1.4821,-3.1092
2024-10-11T12:23:37.921Z,-0.0004,-0.8866,0.1626,-0.1608,-1.1238,-0.7708,-0.0037,-0.0096,0.0267,-2.6186,1.4816,-3.0997
2024-10-11T12:23:37.931Z,-0.0080,-0.8867,0.1646,-0.1608,-1.1238,-0.7708,-0.0113,-0.0169,0.0216,-2.6186,1.4816,-3.0997
2024-10-11T12:23:37.941Z,-0.0066,-0.8936,0.1651,-0.1608,-1.1238,-0.7708,-0.0146,-0.0267,0.0191,-2.6186,1.4816,-3.0997
2024-10-11T12:23:37.951Z,0.0032,-0.8991,0.1708,0.0081,-1.0036,-0.7456,-0.0233,-0.0280,0.0176,-2.6262,1.4819,-3.0929
2024-10-11T12:23:37.961Z,0.0090,-0.8979,0.1807,0.0081,-1.0036,-0.7456,-0.0334,-0.0280,0.0168,-2.6262,1.4819,-3.0929
2024-10-11T12:23:37.971Z,0.0170,-0.8989,0.1678,0.0081,-1.0036,-0.7456,-0.0397,-0.0310,0.0158,-2.6262,1.4819,-3.0929
2024-10-11T12:23:37.981Z,0.0131,-0.9003,0.1603,-0.2228,-0.9506,-0.7677,-0.0457,-0.0351,0.0131,-2.6314,1.4828,-3.0887
2024-10-11T12:23:37.991Z,-0.0080,-0.9028,0.1544,-0.2228,-0.9506,-0.7677,-0.0475,-0.0360,0.0120,-2.6314,1.4828,-3.0887
2024-10-11T12:23:38.001Z,0.0163,-0.9049,0.1303,-0.2228,-0.9506,-0.7677,-0.0492,-0.0304,0.0129,-2.6314,1.4828,-3.0887
2024-10-11T12:23:38.011Z,0.0485,-0.9030,0.1138,-0.2594,-0.8993,-0.3956,-0.0547,-0.0267,0.0192,-2.6364,1.4841,-3.0849
2024-10-11T12:23:38.021Z,0.0478,-0.8958,0.1347,-0.2594,-0.8993,-0.3956,-0.0645,-0.0211,0.0203,-2.6364,1.4841,-3.0849
2024-10-11T12:23:38.030Z,0.0304,-0.8942,0.1386,-0.2594,-0.8993,-0.3956,-0.0702,-0.0158,0.0227,-2.6364,1.4841,-3.0849
2024-10-11T12:23:38.041Z,0.0383,-0.9060,0.1179,-0.3470,-0.9882,-0.5192,-0.0750,-0.0150,0.0247,-2.6454,1.4858,-3.0768
2024-10-11T12:23:38.051Z,0.0285,-0.9114,0.1194,-0.3470,-0.9882,-0.5192,-0.0819,-0.0106,0.0224,-2.6454,1.4858,-3.0768
2024-10-11T12:23:38.061Z,0.0066,-0.9232,0.1311,-0.3470,-0.9882,-0.5192,-0.0864,-0.0136,0.0208,-2.6454,1.4858,-3.0768
2024-10-11T12:23:38.071Z,0.0065,-0.9458,0.1254,-0.1076,-0.6914,-0.4851,-0.0927,-0.0163,0.0179,-2.6559,1.4881,-3.0670
2024-10-11T12:23:38.081Z,0.0056,-0.9525,0.1357,-0.1076,-0.6914,-0.4851,-0.1002,-0.0167,0.0132,-2.6559,1.4881,-3.0670
2024-10-11T12:23:38.091Z,-0.0111,-0.9436,0.1455,-0.1076,-0.6914,-0.4851,-0.1085,-0.0177,0.0067,-2.6559,1.4881,-3.0670
2024-10-11T12:23:38.101Z,-0.0198,-0.9414,0.1310,0.0523,-0.5299,-0.6566,-0.1140,-0.0222,0.0000,-2.6635,1.4911,-3.0601
2024-10-11T12:23:38.111Z,-0.0285,-0.9385,0.1073,0.0523,-0.5299,-0.6566,-0.1160,-0.0339,-0.0049,-2.6635,1.4911,-3.0601
2024-10-11T12:23:38.121Z,-0.0244,-0.9296,0.0673,0.0523,-0.5299,-0.6566,-0.1171,-0.0396,-0.0132,-2.6635,1.4911,-3.0601
2024-10-11T12:23:38.130Z,-0.0518,-0.9157,0.0383,0.2032,-0.6836,0.1265,-0.1135,-0.0475,-0.0274,-2.6635,1.4946,-3.0612
2024-10-11T12:23:38.141Z,-0.0495,-0.9020,0.0334,0.2032,-0.6836,0.1265,-0.1163,-0.0530,-0.0313,-2.6635,1.4946,-3.0612
2024-10-11T12:23:38.150Z,-0.0110,-0.8848,0.0297,0.2032,-0.6836,0.1265,-0.1166,-0.0625,-0.0377,-2.6635,1.4946,-3.0612
2024-10-11T12:23:38.162Z,-0.0163,-0.8941,0.0206,0.0390,-1.1147,0.4461,-0.1178,-0.0765,-0.0413,-2.6539,1.4981,-3.0728
2024-10-11T12:23:38.170Z,-0.0360,-0.9151,0.0300,0.0390,-1.1147,0.4461,-0.1203,-0.0877,-0.0458,-2.6539,1.4981,-3.0728
2024-10-11T12:23:38.181Z,-0.0322,-0.9428,0.0490,0.0390,-1.1147,0.4461,-0.1165,-0.0900,-0.0483,-2.6539,1.4981,-3.0728
2024-10-11T12:23:38.191Z,0.0088,-0.9831,0.0334,0.2547,-0.4978,0.2046,-0.1092,-0.0902,-0.0460,-2.6374,1.5017,-3.0920
2024-10-11T12:23:38.201Z,0.0473,-1.0138,0.0141,0.2547,-0.4978,0.2046,-0.1064,-0.0803,-0.0424,-2.6374,1.5017,-3.0920
2024-10-11T12:23:38.211Z,0.0271,-1.0064,0.0318,0.2547,-0.4978,0.2046,-0.1060,-0.0805,-0.0398,-2.6374,1.5017,-3.0920
2024-10-11T12:23:38.221Z,0.0064,-0.9955,0.0469,-0.2453,0.0692,0.2964,-0.1075,-0.0818,-0.0413,-2.6209,1.5049,-3.1113
2024-10-11T12:23:38.231Z,0.0042,-0.9949,0.0211,-0.2453,0.0692,0.2964,-0.1095,-0.0897,-0.0398,-2.6209,1.5049,-3.1113
2024-10-11T12:23:38.241Z,0.0059,-0.9926,0.0132,-0.2453,0.0692,0.2964,-0.1146,-0.0950,-0.0388,-2.6209,1.5049,-3.1113
2024-10-11T12:23:38.251Z,0.0201,-0.9960,0.0053,-0.0846,-0.0491,0.5072,-0.1198,-0.0971,-0.0375,-2.6033,1.5082,-3.1318
2024-10-11T12:23:38.261Z,0.0018,-1.0113,0.0028,-0.0846,-0.0491,0.5072,-0.1223,-0.0980,-0.0389,-2.6033,1.5082,-3.1318
2024-10-11T12:23:38.271Z,0.0059,-1.0197,-0.0111,-0.0846,-0.0491,0.5072,-0.1159,-0.1043,-0.0362,-2.6033,1.5082,-3.1318
2024-10-11T12:23:38.281Z,0.0208,-1.0306,-0.0406,-0.0821,0.2138,0.7214,-0.1030,-0.1026,-0.0331,-2.5850,1.5117,3.1298
2024-10-11T12:23:38.291Z,0.0252,-1.0412,-0.0669,-0.0821,0.2138,0.7214,-0.0917,-0.0919,-0.0290,-2.5850,1.5117,3.1298
2024-10-11T12:23:38.300Z,0.0540,-1.0369,-0.0668,-0.0821,0.2138,0.7214,-0.0806,-0.0731,-0.0229,-2.5850,1.5117,3.1298
2024-10-11T12:23:38.311Z,0.0429,-1.0453,-0.0594,-0.5223,0.3758,1.1790,-0.0648,-0.0593,-0.0186,-2.5699,1.5144,3.1119
