time,gFx,gFy,gFz,ax,ay,az,wx,wy,wz,yaw,pitch,roll
2024-10-11T12:31:59.844Z,-0.0044,-0.9832,0.1696,-0.0438,-0.0328,-0.0654,0.0084,-0.0099,-0.0019,-2.6328,1.4068,-3.0870
2024-10-11T12:31:59.853Z,-0.0015,-0.9823,0.1689,-0.0438,-0.0328,-0.0654,0.0072,-0.0126,0.0022,-2.6328,1.4068,-3.0870
2024-10-11T12:31:59.863Z,0.0016,-0.9820,0.1664,-0.1033,-0.0442,-0.0315,0.0098,-0.0119,0.0045,-2.6335,1.4066,-3.0870
2024-10-11T12:31:59.873Z,0.0006,-0.9836,0.1663,-0.1033,-0.0442,-0.0315,0.0051,-0.0104,0.0057,-2.6335,1.4066,-3.0870
2024-10-11T12:31:59.883Z,-0.0000,-0.9819,0.1638,-0.1033,-0.0442,-0.0315,0.0064,-0.0127,0.0046,-2.6335,1.4066,-3.0870
2024-10-11T12:31:59.892Z,-0.0017,-0.9816,0.1631,-0.0715,-0.0486,0.0031,0.0060,-0.0094,0.0051,-2.6344,1.4064,-3.0866
2024-10-11T12:31:59.903Z,-0.0004,-0.9811,0.1603,-0.0715,-0.0486,0.0031,0.0091,-0.0126,0.0063,-2.6344,1.4064,-3.0866
2024-10-11T12:31:59.913Z,-0.0012,-0.9817,0.1585,-0.0715,-0.0486,0.0031,0.0073,-0.0082,0.0058,-2.6344,1.4064,-3.0866
2024-10-11T12:31:59.923Z,-0.0047,-0.9802,0.1590,-0.0428,-0.0613,0.0466,0.0040,-0.0107,0.0065,-2.6355,1.4061,-3.0861
2024-10-11T12:31:59.933Z,-0.0060,-0.9791,0.1601,-0.0428,-0.0613,0.0466,0.0054,-0.0125,0.0074,-2.6355,1.4061,-3.0861
2024-10-11T12:31:59.942Z,-0.0037,-0.9801,0.1623,-0.0428,-0.0613,0.0466,0.0046,-0.0132,0.0060,-2.6355,1.4061,-3.0861
2024-10-11T12:31:59.953Z,-0.0048,-0.9801,0.1640,-0.0429,-0.0617,-0.0015,0.0048,-0.0149,0.0081,-2.6367,1.4059,-3.0856
2024-10-11T12:31:59.963Z,-0.0043,-0.9805,0.1645,-0.0429,-0.0617,-0.0015,0.0045,-0.0184,0.0083,-2.6367,1.4059,-3.0856
2024-10-11T12:31:59.973Z,-0.0033,-0.9821,0.1672,-0.0429,-0.0617,-0.0015,0.0057,-0.0201,0.0080,-2.6367,1.4059,-3.0856
2024-10-11T12:31:59.983Z,-0.0039,-0.9838,0.1715,-0.0520,-0.0254,-0.0735,0.0016,-0.0226,0.0109,-2.6379,1.4058,-3.0853
2024-10-11T12:31:59.992Z,-0.0035,-0.9870,0.1718,-0.0520,-0.0254,-0.0735,0.0018,-0.0277,0.0111,-2.6379,1.4058,-3.0853
2024-10-11T12:32:00.002Z,-0.0037,-0.9876,0.1690,-0.0520,-0.0254,-0.0735,0.0014,-0.0287,0.0108,-2.6379,1.4058,-3.0853
2024-10-11T12:32:00.013Z,-0.0029,-0.9905,0.1639,-0.0636,0.0402,0.0010,-0.0016,-0.0334,0.0124,-2.6399,1.4057,-3.0844
2024-10-11T12:32:00.023Z,-0.0026,-0.9907,0.1633,-0.0636,0.0402,0.0010,-0.0034,-0.0355,0.0148,-2.6399,1.4057,-3.0844
2024-10-11T12:32:00.033Z,-0.0035,-0.9944,0.1611,-0.0636,0.0402,0.0010,-0.0041,-0.0416,0.0138,-2.6399,1.4057,-3.0844
2024-10-11T12:32:00.042Z,-0.0032,-0.9951,0.1574,-0.0626,0.0848,0.0650,-0.0029,-0.0426,0.0138,-2.6425,1.4058,-3.0834
2024-10-11T12:32:00.052Z,-0.0040,-0.9941,0.1581,-0.0626,0.0848,0.0650,-0.0043,-0.0408,0.0141,-2.6425,1.4058,-3.0834
2024-10-11T12:32:00.063Z,-0.0068,-0.9981,0.1569,-0.0626,0.0848,0.0650,-0.0035,-0.0458,0.0149,-2.6425,1.4058,-3.0834
2024-10-11T12:32:00.073Z,-0.0026,-0.9953,0.1539,-0.0693,0.0871,0.0982,-0.0039,-0.0470,0.0126,-2.6450,1.4058,-3.0825
2024-10-11T12:32:00.084Z,-0.0073,-0.9970,0.1555,-0.0693,0.0871,0.0982,-0.0043,-0.0482,0.0113,-2.6450,1.4058,-3.0825
2024-10-11T12:32:00.092Z,-0.0043,-0.9932,0.1547,-0.0693,0.0871,0.0982,-0.0023,-0.0486,0.0135,-2.6450,1.4058,-3.0825
2024-10-11T12:32:00.104Z,-0.0075,-0.9948,0.1536,-0.0231,0.0822,0.1011,-0.0006,-0.0480,0.0141,-2.6476,1.4058,-3.0816
2024-10-11T12:32:00.113Z,-0.0090,-0.9944,0.1532,-0.0231,0.0822,0.1011,-0.0025,-0.0473,0.0139,-2.6476,1.4058,-3.0816
2024-10-11T12:32:00.123Z,-0.0096,-0.9955,0.1552,-0.0231,0.0822,0.1011,-0.0006,-0.0447,0.0127,-2.6476,1.4058,-3.0816
2024-10-11T12:32:00.134Z,-0.0150,-0.9946,0.1542,0.0486,0.0806,0.0959,0.0015,-0.0441,0.0141,-2.6502,1.4057,-3.0807
2024-10-11T12:32:00.142Z,-0.0172,-0.9931,0.1540,0.0486,0.0806,0.0959,0.0014,-0.0400,0.0107,-2.6502,1.4057,-3.0807
2024-10-11T12:32:00.152Z,-0.0175,-0.9890,0.1550,0.0486,0.0806,0.0959,0.0014,-0.0389,0.0111,-2.6502,1.4057,-3.0807
2024-10-11T12:32:00.163Z,-0.0169,-0.9872,0.1582,0.0666,0.0074,0.0575,0.0028,-0.0360,0.0072,-2.6523,1.4057,-3.0800
2024-10-11T12:32:00.173Z,-0.0184,-0.9863,0.1602,0.0666,0.0074,0.0575,-0.0014,-0.0354,0.0083,-2.6523,1.4057,-3.0800
2024-10-11T12:32:00.183Z,-0.0171,-0.9844,0.1633,0.0666,0.0074,0.0575,0.0006,-0.0308,0.0074,-2.6523,1.4057,-3.0800
2024-10-11T12:32:00.192Z,-0.0177,-0.9845,0.1646,0.0733,-0.0184,-0.0051,-0.0013,-0.0277,0.0071,-2.6540,1.4056,-3.0795
2024-10-11T12:32:00.202Z,-0.0175,-0.9840,0.1628,0.0733,-0.0184,-0.0051,-0.0017,-0.0282,0.0053,-2.6540,1.4056,-3.0795
2024-10-11T12:32:00.213Z,-0.0178,-0.9845,0.1635,0.0733,-0.0184,-0.0051,0.0003,-0.0239,0.0055,-2.6540,1.4056,-3.0795
2024-10-11T12:32:00.223Z,-0.0180,-0.9836,0.1613,0.0761,-0.0271,0.0275,-0.0001,-0.0234,0.0045,-2.6554,1.4056,-3.0792
2024-10-11T12:32:00.233Z,-0.0190,-0.9849,0.1576,0.0761,-0.0271,0.0275,-0.0007,-0.0218,0.0043,-2.6554,1.4056,-3.0792
2024-10-11T12:32:00.242Z,-0.0157,-0.9864,0.1558,0.0761,-0.0271,0.0275,-0.0019,-0.0192,0.0068,-2.6554,1.4056,-3.0792
2024-10-11T12:32:00.253Z,-0.0173,-0.9880,0.1564,0.0681,0.0153,0.0750,-0.0014,-0.0190,0.0042,-2.6567,1.4057,-3.0788
2024-10-11T12:32:00.263Z,-0.0192,-0.9878,0.1533,0.0681,0.0153,0.0750,-0.0027,-0.0162,0.0029,-2.6567,1.4057,-3.0788
2024-10-11T12:32:00.273Z,-0.0180,-0.9872,0.1539,0.0681,0.0153,0.0750,-0.0011,-0.0163,0.0044,-2.6567,1.4057,-3.0788
2024-10-11T12:32:00.283Z,-0.0195,-0.9877,0.1569,0.0891,0.0128,0.0697,-0.0020,-0.0115,0.0044,-2.6580,1.4057,-3.0782
2024-10-11T12:32:00.292Z,-0.0195,-0.9880,0.1579,0.0891,0.0128,0.0697,-0.0034,-0.0061,0.0034,-2.6580,1.4057,-3.0782
2024-10-11T12:32:00.303Z,-0.0200,-0.9865,0.1578,0.0891,0.0128,0.0697,-0.0018,-0.0048,0.0042,-2.6580,1.4057,-3.0782
2024-10-11T12:32:00.313Z,-0.0217,-0.9886,0.1605,0.1091,0.0216,0.0337,-0.0045,-0.0015,0.0051,-2.6594,1.4058,-3.0772
2024-10-11T12:32:00.323Z,-0.0220,-0.9887,0.1626,0.1091,0.0216,0.0337,-0.0007,0.0020,0.0051,-2.6594,1.4058,-3.0772
2024-10-11T12:32:00.333Z,-0.0226,-0.9891,0.1657,0.1091,0.0216,0.0337,-0.0052,0.0078,0.0024,-2.6594,1.4058,-3.0772
2024-10-11T12:32:00.342Z,-0.0244,-0.9895,0.1675,0.1343,0.0304,-0.0369,-0.0059,0.0070,0.0028,-2.6605,1.4060,-3.0762
2024-10-11T12:32:00.353Z,-0.0244,-0.9905,0.1681,0.1343,0.0304,-0.0369,-0.0059,0.0109,0.0034,-2.6605,1.4060,-3.0762
2024-10-11T12:32:00.363Z,-0.0228,-0.9898,0.1702,0.1343,0.0304,-0.0369,-0.0118,0.0133,0.0011,-2.6605,1.4060,-3.0762
2024-10-11T12:32:00.373Z,-0.0245,-0.9912,0.1693,0.1334,0.0462,-0.0579,-0.0101,0.0124,0.0025,-2.6614,1.4063,-3.0752
2024-10-11T12:32:00.383Z,-0.0254,-0.9917,0.1707,0.1334,0.0462,-0.0579,-0.0134,0.0138,0.0015,-2.6614,1.4063,-3.0752
2024-10-11T12:32:00.392Z,-0.0253,-0.9914,0.1717,0.1334,0.0462,-0.0579,-0.0125,0.0138,0.0046,-2.6614,1.4063,-3.0752
2024-10-11T12:32:00.403Z,-0.0235,-0.9910,0.1725,0.1230,0.0435,-0.0934,-0.0160,0.0182,-0.0011,-2.6620,1.4067,-3.0744
2024-10-11T12:32:00.413Z,-0.0253,-0.9894,0.1723,0.1230,0.0435,-0.0934,-0.0174,0.0173,0.0001,-2.6620,1.4067,-3.0744
2024-10-11T12:32:00.423Z,-0.0249,-0.9895,0.1703,0.1230,0.0435,-0.0934,-0.0207,0.0206,-0.0018,-2.6620,1.4067,-3.0744
2024-10-11T12:32:00.433Z,-0.0231,-0.9905,0.1697,0.1177,0.0377,-0.0706,-0.0188,0.0220,-0.0038,-2.6625,1.4072,-3.0735
2024-10-11T12:32:00.442Z,-0.0241,-0.9916,0.1659,0.1177,0.0377,-0.0706,-0.0216,0.0245,-0.0033,-2.6625,1.4072,-3.0735
2024-10-11T12:32:00.453Z,-0.0244,-0.9901,0.1626,0.1177,0.0377,-0.0706,-0.0168,0.0249,-0.0034,-2.6625,1.4072,-3.0735
2024-10-11T12:32:00.463Z,-0.0237,-0.9927,0.1598,0.1232,0.0589,0.0213,-0.0156,0.0255,-0.0018,-2.6628,1.4077,-3.0727
2024-10-11T12:32:00.473Z,-0.0220,-0.9902,0.1578,0.1232,0.0589,0.0213,-0.0146,0.0272,-0.0049,-2.6628,1.4077,-3.0727
2024-10-11T12:32:00.483Z,-0.0212,-0.9888,0.1580,0.1232,0.0589,0.0213,-0.0182,0.0304,-0.0060,-2.6628,1.4077,-3.0727
2024-10-11T12:32:00.492Z,-0.0182,-0.9861,0.1585,0.0686,-0.0064,0.0302,-0.0170,0.0292,-0.0078,-2.6625,1.4081,-3.0724
2024-10-11T12:32:00.503Z,-0.0144,-0.9868,0.1577,0.0686,-0.0064,0.0302,-0.0149,0.0337,-0.0077,-2.6625,1.4081,-3.0724
2024-10-11T12:32:00.513Z,-0.0134,-0.9857,0.1562,0.0686,-0.0064,0.0302,-0.0138,0.0322,-0.0045,-2.6625,1.4081,-3.0724
2024-10-11T12:32:00.523Z,-0.0101,-0.9839,0.1568,-0.0108,-0.0290,0.0426,-0.0143,0.0333,-0.0058,-2.6620,1.4085,-3.0721
2024-10-11T12:32:00.534Z,-0.0102,-0.9841,0.1587,-0.0108,-0.0290,0.0426,-0.0114,0.0335,-0.0050,-2.6620,1.4085,-3.0721
2024-10-11T12:32:00.542Z,-0.0108,-0.9843,0.1563,-0.0108,-0.0290,0.0426,-0.0123,0.0330,-0.0041,-2.6620,1.4085,-3.0721
2024-10-11T12:32:00.553Z,-0.0140,-0.9839,0.1566,0.0267,-0.0300,0.0417,-0.0084,0.0330,-0.0044,-2.6616,1.4088,-3.0717
2024-10-11T12:32:00.563Z,-0.0187,-0.9823,0.1535,0.0267,-0.0300,0.0417,-0.0100,0.0292,-0.0056,-2.6616,1.4088,-3.0717
2024-10-11T12:32:00.573Z,-0.0202,-0.9799,0.1526,0.0267,-0.0300,0.0417,-0.0077,0.0304,-0.0062,-2.6616,1.4088,-3.0717
2024-10-11T12:32:00.583Z,-0.0247,-0.9819,0.1512,0.1322,-0.0494,0.0917,-0.0069,0.0268,-0.0079,-2.6608,1.4091,-3.0719
2024-10-11T12:32:00.592Z,-0.0258,-0.9815,0.1506,0.1322,-0.0494,0.0917,-0.0053,0.0265,-0.0101,-2.6608,1.4091,-3.0719
2024-10-11T12:32:00.602Z,-0.0240,-0.9791,0.1494,0.1322,-0.0494,0.0917,-0.0030,0.0229,-0.0124,-2.6608,1.4091,-3.0719
2024-10-11T12:32:00.613Z,-0.0227,-0.9781,0.1483,0.1148,-0.0870,0.1196,0.0003,0.0208,-0.0118,-2.6589,1.4092,-3.0733
2024-10-11T12:32:00.623Z,-0.0238,-0.9791,0.1464,0.1148,-0.0870,0.1196,0.0023,0.0189,-0.0151,-2.6589,1.4092,-3.0733
2024-10-11T12:32:00.633Z,-0.0220,-0.9790,0.1468,0.1148,-0.0870,0.1196,0.0047,0.0190,-0.0143,-2.6589,1.4092,-3.0733
2024-10-11T12:32:00.642Z,-0.0177,-0.9796,0.1472,0.0691,-0.0726,0.1325,0.0085,0.0177,-0.0164,-2.6564,1.4091,-3.0755
2024-10-11T12:32:00.653Z,-0.0179,-0.9803,0.1471,0.0691,-0.0726,0.1325,0.0093,0.0193,-0.0183,-2.6564,1.4091,-3.0755
2024-10-11T12:32:00.663Z,-0.0172,-0.9792,0.1497,0.0691,-0.0726,0.1325,0.0085,0.0169,-0.0152,-2.6564,1.4091,-3.0755
2024-10-11T12:32:00.673Z,-0.0142,-0.9778,0.1511,0.0385,-0.0897,0.0966,0.0095,0.0178,-0.0140,-2.6539,1.4088,-3.0777
2024-10-11T12:32:00.684Z,-0.0110,-0.9768,0.1535,0.0385,-0.0897,0.0966,0.0130,0.0180,-0.0133,-2.6539,1.4088,-3.0777
2024-10-11T12:32:00.692Z,-0.0112,-0.9768,0.1573,0.0385,-0.0897,0.0966,0.0093,0.0212,-0.0151,-2.6539,1.4088,-3.0777
2024-10-11T12:32:00.703Z,-0.0131,-0.9770,0.1602,0.0300,-0.0969,0.0106,0.0123,0.0231,-0.0127,-2.6517,1.4085,-3.0795
2024-10-11T12:32:00.713Z,-0.0099,-0.9763,0.1632,0.0300,-0.0969,0.0106,0.0114,0.0246,-0.0141,-2.6517,1.4085,-3.0795
2024-10-11T12:32:00.723Z,-0.0090,-0.9774,0.1633,0.0300,-0.0969,0.0106,0.0084,0.0275,-0.0143,-2.6517,1.4085,-3.0795
2024-10-11T12:32:00.733Z,-0.0095,-0.9783,0.1666,-0.0035,-0.0838,-0.0494,0.0104,0.0297,-0.0102,-2.6497,1.4082,-3.0808
2024-10-11T12:32:00.743Z,-0.0094,-0.9791,0.1671,-0.0035,-0.0838,-0.0494,0.0099,0.0322,-0.0114,-2.6497,1.4082,-3.0808
2024-10-11T12:32:00.754Z,-0.0062,-0.9801,0.1698,-0.0035,-0.0838,-0.0494,0.0102,0.0310,-0.0077,-2.6497,1.4082,-3.0808
2024-10-11T12:32:00.764Z,-0.0096,-0.9822,0.1707,-0.0007,-0.0445,-0.0870,0.0100,0.0347,-0.0128,-2.6480,1.4080,-3.0818
2024-10-11T12:32:00.773Z,-0.0111,-0.9826,0.1693,-0.0007,-0.0445,-0.0870,0.0070,0.0368,-0.0103,-2.6480,1.4080,-3.0818
2024-10-11T12:32:00.785Z,-0.0094,-0.9850,0.1665,-0.0007,-0.0445,-0.0870,0.0102,0.0373,-0.0094,-2.6480,1.4080,-3.0818
2024-10-11T12:32:00.792Z,-0.0099,-0.9887,0.1670,0.0033,0.0196,-0.0478,0.0092,0.0403,-0.0099,-2.6464,1.4077,-3.0826
2024-10-11T12:32:00.803Z,-0.0098,-0.9902,0.1666,0.0033,0.0196,-0.0478,0.0113,0.0413,-0.0069,-2.6464,1.4077,-3.0826
2024-10-11T12:32:00.813Z,-0.0092,-0.9928,0.1657,0.0033,0.0196,-0.0478,0.0087,0.0418,-0.0072,-2.6464,1.4077,-3.0826
2024-10-11T12:32:00.823Z,-0.0081,-0.9930,0.1655,-0.0146,0.0618,-0.0301,0.0085,0.0425,-0.0098,-2.6451,1.4074,-3.0828
2024-10-11T12:32:00.833Z,-0.0089,-0.9928,0.1636,-0.0146,0.0618,-0.0301,0.0088,0.0429,-0.0098,-2.6451,1.4074,-3.0828
2024-10-11T12:32:00.843Z,-0.0098,-0.9951,0.1629,-0.0146,0.0618,-0.0301,0.0099,0.0441,-0.0075,-2.6451,1.4074,-3.0828
2024-10-11T12:32:00.853Z,-0.0117,-0.9931,0.1629,0.0218,0.0632,-0.0024,0.0080,0.0435,-0.0077,-2.6437,1.4071,-3.0832
2024-10-11T12:32:00.863Z,-0.0117,-0.9932,0.1629,0.0218,0.0632,-0.0024,0.0090,0.0424,-0.0072,-2.6437,1.4071,-3.0832
2024-10-11T12:32:00.873Z,-0.0120,-0.9901,0.1630,0.0218,0.0632,-0.0024,0.0093,0.0465,-0.0094,-2.6437,1.4071,-3.0832
2024-10-11T12:32:00.884Z,-0.0095,-0.9890,0.1665,0.0008,0.0235,-0.0350,0.0085,0.0420,-0.0086,-2.6422,1.4069,-3.0836
2024-10-11T12:32:00.892Z,-0.0062,-0.9855,0.1665,0.0008,0.0235,-0.0350,0.0053,0.0444,-0.0072,-2.6422,1.4069,-3.0836
2024-10-11T12:32:00.903Z,-0.0069,-0.9863,0.1672,0.0008,0.0235,-0.0350,0.0036,0.0457,-0.0070,-2.6422,1.4069,-3.0836
2024-10-11T12:32:00.913Z,-0.0076,-0.9831,0.1686,-0.0172,-0.0340,-0.0538,0.0071,0.0451,-0.0102,-2.6406,1.4067,-3.0840
2024-10-11T12:32:00.923Z,-0.0051,-0.9837,0.1698,-0.0172,-0.0340,-0.0538,0.0004,0.0471,-0.0089,-2.6406,1.4067,-3.0840
2024-10-11T12:32:00.933Z,-0.0063,-0.9847,0.1689,-0.0172,-0.0340,-0.0538,0.0026,0.0468,-0.0082,-2.6406,1.4067,-3.0840
2024-10-11T12:32:00.943Z,-0.0015,-0.9847,0.1702,-0.0769,-0.0177,-0.0688,0.0010,0.0452,-0.0097,-2.6393,1.4066,-3.0843
2024-10-11T12:32:00.953Z,-0.0034,-0.9836,0.1712,-0.0769,-0.0177,-0.0688,0.0045,0.0455,-0.0082,-2.6393,1.4066,-3.0843
2024-10-11T12:32:00.963Z,-0.0032,-0.9848,0.1718,-0.0769,-0.0177,-0.0688,0.0037,0.0468,-0.0092,-2.6393,1.4066,-3.0843
2024-10-11T12:32:00.973Z,-0.0017,-0.9873,0.1699,-0.0743,0.0073,-0.0648,0.0003,0.0429,-0.0075,-2.6377,1.4065,-3.0847
2024-10-11T12:32:00.985Z,-0.0015,-0.9873,0.1678,-0.0743,0.0073,-0.0648,-0.0009,0.0425,-0.0069,-2.6377,1.4065,-3.0847
2024-10-11T12:32:00.992Z,-0.0008,-0.9900,0.1661,-0.0743,0.0073,-0.0648,-0.0013,0.0406,-0.0077,-2.6377,1.4065,-3.0847
2024-10-11T12:32:01.003Z,0.0007,-0.9902,0.1657,-0.0976,0.0358,-0.0244,-0.0017,0.0364,-0.0067,-2.6365,1.4065,-3.0850
2024-10-11T12:32:01.013Z,-0.0008,-0.9922,0.1646,-0.0976,0.0358,-0.0244,-0.0019,0.0355,-0.0080,-2.6365,1.4065,-3.0850
2024-10-11T12:32:01.022Z,0.0004,-0.9924,0.1601,-0.0976,0.0358,-0.0244,-0.0004,0.0340,-0.0065,-2.6365,1.4065,-3.0850
2024-10-11T12:32:01.034Z,-0.0005,-0.9932,0.1582,-0.0852,0.0653,0.0495,0.0012,0.0330,-0.0049,-2.6351,1.4065,-3.0856
2024-10-11T12:32:01.042Z,-0.0016,-0.9940,0.1561,-0.0852,0.0653,0.0495,-0.0019,0.0316,-0.0068,-2.6351,1.4065,-3.0856
2024-10-11T12:32:01.053Z,-0.0010,-0.9917,0.1570,-0.0852,0.0653,0.0495,0.0004,0.0296,-0.0044,-2.6351,1.4065,-3.0856
2024-10-11T12:32:01.063Z,-0.0020,-0.9892,0.1565,-0.0694,0.0261,0.0664,0.0014,0.0289,-0.0085,-2.6338,1.4065,-3.0862
2024-10-11T12:32:01.073Z,-0.0047,-0.9871,0.1570,-0.0694,0.0261,0.0664,-0.0013,0.0288,-0.0078,-2.6338,1.4065,-3.0862
2024-10-11T12:32:01.084Z,-0.0061,-0.9851,0.1592,-0.0694,0.0261,0.0664,0.0016,0.0249,-0.0064,-2.6338,1.4065,-3.0862
2024-10-11T12:32:01.092Z,-0.0030,-0.9820,0.1614,-0.0582,-0.0447,0.0187,-0.0012,0.0251,-0.0084,-2.6323,1.4065,-3.0871
2024-10-11T12:32:01.103Z,-0.0051,-0.9821,0.1647,-0.0582,-0.0447,0.0187,-0.0003,0.0261,-0.0087,-2.6323,1.4065,-3.0871
2024-10-11T12:32:01.113Z,-0.0051,-0.9848,0.1661,-0.0582,-0.0447,0.0187,-0.0001,0.0238,-0.0081,-2.6323,1.4065,-3.0871
2024-10-11T12:32:01.123Z,-0.0042,-0.9827,0.1647,-0.0448,-0.0382,-0.0137,-0.0019,0.0259,-0.0085,-2.6307,1.4066,-3.0881
2024-10-11T12:32:01.134Z,-0.0051,-0.9837,0.1623,-0.0448,-0.0382,-0.0137,-0.0044,0.0272,-0.0108,-2.6307,1.4066,-3.0881
2024-10-11T12:32:01.142Z,-0.0042,-0.9850,0.1616,-0.0448,-0.0382,-0.0137,-0.0035,0.0275,-0.0090,-2.6307,1.4066,-3.0881
2024-10-11T12:32:01.153Z,-0.0023,-0.9855,0.1604,-0.0609,-0.0105,0.0268,-0.0034,0.0283,-0.0105,-2.6287,1.4067,-3.0896
2024-10-11T12:32:01.163Z,-0.0033,-0.9877,0.1605,-0.0609,-0.0105,0.0268,-0.0035,0.0335,-0.0082,-2.6287,1.4067,-3.0896
2024-10-11T12:32:01.173Z,-0.0054,-0.9889,0.1597,-0.0609,-0.0105,0.0268,0.0006,0.0324,-0.0095,-2.6287,1.4067,-3.0896
2024-10-11T12:32:01.184Z,-0.0054,-0.9904,0.1605,-0.0289,0.0379,0.0262,-0.0047,0.0365,-0.0099,-2.6270,1.4067,-3.0906
2024-10-11T12:32:01.193Z,-0.0062,-0.9911,0.1607,-0.0289,0.0379,0.0262,-0.0019,0.0378,-0.0093,-2.6270,1.4067,-3.0906
2024-10-11T12:32:01.204Z,-0.0078,-0.9896,0.1600,-0.0289,0.0379,0.0262,-0.0004,0.0394,-0.0118,-2.6270,1.4067,-3.0906
2024-10-11T12:32:01.213Z,-0.0081,-0.9897,0.1587,-0.0004,0.0302,0.0433,-0.0006,0.0379,-0.0111,-2.6250,1.4067,-3.0917
2024-10-11T12:32:01.223Z,-0.0069,-0.9896,0.1569,-0.0004,0.0302,0.0433,-0.0034,0.0418,-0.0107,-2.6250,1.4067,-3.0917
2024-10-11T12:32:01.233Z,-0.0090,-0.9878,0.1562,-0.0004,0.0302,0.0433,-0.0014,0.0408,-0.0094,-2.6250,1.4067,-3.0917
2024-10-11T12:32:01.242Z,-0.0091,-0.9883,0.1564,0.0118,0.0171,0.0658,-0.0031,0.0428,-0.0107,-2.6227,1.4068,-3.0930
2024-10-11T12:32:01.253Z,-0.0107,-0.9855,0.1572,0.0118,0.0171,0.0658,-0.0041,0.0463,-0.0105,-2.6227,1.4068,-3.0930
2024-10-11T12:32:01.263Z,-0.0114,-0.9839,0.1555,0.0118,0.0171,0.0658,-0.0041,0.0433,-0.0119,-2.6227,1.4068,-3.0930
2024-10-11T12:32:01.273Z,-0.0151,-0.9836,0.1558,0.0713,-0.0294,0.0702,-0.0037,0.0442,-0.0106,-2.6209,1.4069,-3.0937
2024-10-11T12:32:01.283Z,-0.0187,-0.9853,0.1547,0.0713,-0.0294,0.0702,-0.0074,0.0441,-0.0114,-2.6209,1.4069,-3.0937
2024-10-11T12:32:01.292Z,-0.0181,-0.9843,0.1561,0.0713,-0.0294,0.0702,-0.0046,0.0448,-0.0117,-2.6209,1.4069,-3.0937
2024-10-11T12:32:01.303Z,-0.0196,-0.9824,0.1582,0.1171,-0.0412,0.0444,-0.0088,0.0443,-0.0125,-2.6189,1.4071,-3.0946
2024-10-11T12:32:01.313Z,-0.0182,-0.9833,0.1586,0.1171,-0.0412,0.0444,-0.0062,0.0478,-0.0113,-2.6189,1.4071,-3.0946
2024-10-11T12:32:01.323Z,-0.0191,-0.9838,0.1602,0.1171,-0.0412,0.0444,-0.0111,0.0469,-0.0095,-2.6189,1.4071,-3.0946
2024-10-11T12:32:01.333Z,-0.0160,-0.9831,0.1602,0.0833,-0.0350,0.0227,-0.0083,0.0471,-0.0119,-2.6168,1.4074,-3.0955
2024-10-11T12:32:01.342Z,-0.0145,-0.9830,0.1575,0.0833,-0.0350,0.0227,-0.0081,0.0465,-0.0137,-2.6168,1.4074,-3.0955
2024-10-11T12:32:01.353Z,-0.0140,-0.9855,0.1561,0.0833,-0.0350,0.0227,-0.0094,0.0485,-0.0126,-2.6168,1.4074,-3.0955
2024-10-11T12:32:01.363Z,-0.0114,-0.9870,0.1553,0.0390,0.0029,0.0686,-0.0075,0.0490,-0.0094,-2.6153,1.4076,-3.0958
2024-10-11T12:32:01.373Z,-0.0067,-0.9884,0.1535,0.0390,0.0029,0.0686,-0.0059,0.0492,-0.0090,-2.6153,1.4076,-3.0958
2024-10-11T12:32:01.383Z,-0.0075,-0.9880,0.1524,0.0390,0.0029,0.0686,-0.0040,0.0499,-0.0064,-2.6153,1.4076,-3.0958
2024-10-11T12:32:01.392Z,-0.0057,-0.9904,0.1495,-0.0177,0.0356,0.1238,-0.0047,0.0506,-0.0050,-2.6145,1.4078,-3.0953
2024-10-11T12:32:01.403Z,-0.0047,-0.9901,0.1493,-0.0177,0.0356,0.1238,-0.0031,0.0515,-0.0050,-2.6145,1.4078,-3.0953
2024-10-11T12:32:01.413Z,-0.0053,-0.9880,0.1502,-0.0177,0.0356,0.1238,0.0002,0.0521,-0.0038,-2.6145,1.4078,-3.0953
2024-10-11T12:32:01.424Z,-0.0088,-0.9879,0.1503,0.0114,0.0110,0.1153,-0.0004,0.0523,-0.0082,-2.6139,1.4078,-3.0946
2024-10-11T12:32:01.434Z,-0.0114,-0.9893,0.1477,0.0114,0.0110,0.1153,0.0021,0.0485,-0.0060,-2.6139,1.4078,-3.0946
2024-10-11T12:32:01.442Z,-0.0083,-0.9868,0.1494,0.0114,0.0110,0.1153,0.0027,0.0440,-0.0061,-2.6139,1.4078,-3.0946
2024-10-11T12:32:01.452Z,-0.0087,-0.9866,0.1504,0.0099,-0.0016,0.1150,0.0027,0.0449,-0.0059,-2.6130,1.4078,-3.0944
2024-10-11T12:32:01.463Z,-0.0086,-0.9850,0.1511,0.0099,-0.0016,0.1150,0.0052,0.0443,-0.0066,-2.6130,1.4078,-3.0944
2024-10-11T12:32:01.473Z,-0.0111,-0.9819,0.1533,0.0099,-0.0016,0.1150,0.0081,0.0432,-0.0075,-2.6130,1.4078,-3.0944
2024-10-11T12:32:01.483Z,-0.0115,-0.9808,0.1555,0.0384,-0.0580,0.0662,0.0083,0.0416,-0.0100,-2.6115,1.4076,-3.0948
2024-10-11T12:32:01.492Z,-0.0096,-0.9841,0.1576,0.0384,-0.0580,0.0662,0.0107,0.0390,-0.0083,-2.6115,1.4076,-3.0948
2024-10-11T12:32:01.502Z,-0.0088,-0.9841,0.1590,0.0384,-0.0580,0.0662,0.0087,0.0393,-0.0101,-2.6115,1.4076,-3.0948
2024-10-11T12:32:01.513Z,-0.0079,-0.9850,0.1611,0.0039,-0.0165,0.0137,0.0132,0.0392,-0.0109,-2.6099,1.4074,-3.0954
2024-10-11T12:32:01.523Z,-0.0062,-0.9859,0.1661,0.0039,-0.0165,0.0137,0.0121,0.0363,-0.0114,-2.6099,1.4074,-3.0954
2024-10-11T12:32:01.533Z,-0.0028,-0.9856,0.1676,0.0039,-0.0165,0.0137,0.0098,0.0415,-0.0108,-2.6099,1.4074,-3.0954
2024-10-11T12:32:01.542Z,-0.0036,-0.9863,0.1691,-0.0369,-0.0028,-0.0620,0.0127,0.0384,-0.0079,-2.6082,1.4071,-3.0962
2024-10-11T12:32:01.552Z,0.0001,-0.9881,0.1700,-0.0369,-0.0028,-0.0620,0.0102,0.0445,-0.0077,-2.6082,1.4071,-3.0962
2024-10-11T12:32:01.563Z,0.0029,-0.9882,0.1707,-0.0369,-0.0028,-0.0620,0.0114,0.0411,-0.0049,-2.6082,1.4071,-3.0962
2024-10-11T12:32:01.573Z,0.0047,-0.9898,0.1731,-0.1182,0.0317,-0.0980,0.0112,0.0417,-0.0050,-2.6071,1.4068,-3.0963
2024-10-11T12:32:01.583Z,0.0048,-0.9900,0.1734,-0.1182,0.0317,-0.0980,0.0096,0.0407,-0.0041,-2.6071,1.4068,-3.0963
2024-10-11T12:32:01.592Z,0.0048,-0.9898,0.1735,-0.1182,0.0317,-0.0980,0.0111,0.0396,-0.0006,-2.6071,1.4068,-3.0963
2024-10-11T12:32:01.603Z,0.0037,-0.9893,0.1728,-0.1093,0.0274,-0.0920,0.0099,0.0371,-0.0005,-2.6066,1.4064,-3.0959
2024-10-11T12:32:01.613Z,0.0044,-0.9892,0.1720,-0.1093,0.0274,-0.0920,0.0079,0.0363,0.0009,-2.6066,1.4064,-3.0959
2024-10-11T12:32:01.623Z,0.0013,-0.9896,0.1758,-0.1093,0.0274,-0.0920,0.0079,0.0330,-0.0003,-2.6066,1.4064,-3.0959
2024-10-11T12:32:01.632Z,0.0014,-0.9903,0.1758,-0.0881,0.0379,-0.1183,0.0057,0.0332,0.0012,-2.6066,1.4062,-3.0951
2024-10-11T12:32:01.642Z,0.0022,-0.9874,0.1765,-0.0881,0.0379,-0.1183,0.0054,0.0281,0.0000,-2.6066,1.4062,-3.0951
2024-10-11T12:32:01.653Z,0.0033,-0.9866,0.1790,-0.0881,0.0379,-0.1183,0.0044,0.0261,0.0005,-2.6066,1.4062,-3.0951
2024-10-11T12:32:01.663Z,0.0071,-0.9864,0.1779,-0.1457,-0.0003,-0.1381,0.0019,0.0259,0.0034,-2.6067,1.4060,-3.0944
2024-10-11T12:32:01.673Z,0.0045,-0.9864,0.1784,-0.1457,-0.0003,-0.1381,-0.0019,0.0212,0.0043,-2.6067,1.4060,-3.0944
2024-10-11T12:32:01.683Z,0.0018,-0.9838,0.1762,-0.1457,-0.0003,-0.1381,-0.0044,0.0202,0.0032,-2.6067,1.4060,-3.0944
2024-10-11T12:32:01.692Z,0.0007,-0.9842,0.1749,-0.0828,-0.0219,-0.1074,-0.0052,0.0180,0.0031,-2.6064,1.4059,-3.0944
2024-10-11T12:32:01.703Z,-0.0018,-0.9855,0.1753,-0.0828,-0.0219,-0.1074,-0.0059,0.0148,0.0036,-2.6064,1.4059,-3.0944
2024-10-11T12:32:01.713Z,-0.0010,-0.9845,0.1752,-0.0828,-0.0219,-0.1074,-0.0066,0.0118,0.0008,-2.6064,1.4059,-3.0944
2024-10-11T12:32:01.723Z,-0.0036,-0.9848,0.1758,-0.0386,-0.0163,-0.1152,-0.0045,0.0096,0.0016,-2.6053,1.4058,-3.0954
2024-10-11T12:32:01.733Z,-0.0018,-0.9855,0.1746,-0.0386,-0.0163,-0.1152,-0.0036,0.0065,0.0011,-2.6053,1.4058,-3.0954
2024-10-11T12:32:01.742Z,0.0009,-0.9863,0.1751,-0.0386,-0.0163,-0.1152,-0.0065,0.0028,0.0018,-2.6053,1.4058,-3.0954
2024-10-11T12:32:01.753Z,0.0002,-0.9888,0.1712,-0.0741,0.0235,-0.0679,-0.0058,0.0017,0.0025,-2.6042,1.4056,-3.0967
2024-10-11T12:32:01.763Z,0.0024,-0.9897,0.1708,-0.0741,0.0235,-0.0679,-0.0015,0.0004,-0.0010,-2.6042,1.4056,-3.0967
2024-10-11T12:32:01.773Z,0.0019,-0.9895,0.1698,-0.0741,0.0235,-0.0679,-0.0012,-0.0003,0.0022,-2.6042,1.4056,-3.0967
2024-10-11T12:32:01.783Z,0.0011,-0.9925,0.1681,-0.0817,0.0606,-0.0354,-0.0017,0.0001,0.0027,-2.6036,1.4054,-3.0975
2024-10-11T12:32:01.792Z,0.0019,-0.9922,0.1662,-0.0817,0.0606,-0.0354,-0.0001,-0.0004,0.0008,-2.6036,1.4054,-3.0975
2024-10-11T12:32:01.803Z,0.0022,-0.9919,0.1643,-0.0817,0.0606,-0.0354,-0.0014,-0.0003,-0.0001,-2.6036,1.4054,-3.0975
2024-10-11T12:32:01.813Z,0.0007,-0.9897,0.1649,-0.0783,0.0333,-0.0036,-0.0050,0.0003,0.0022,-2.6039,1.4054,-3.0975
2024-10-11T12:32:01.823Z,-0.0001,-0.9875,0.1664,-0.0783,0.0333,-0.0036,-0.0004,-0.0017,0.0021,-2.6039,1.4054,-3.0975
2024-10-11T12:32:01.833Z,-0.0027,-0.9854,0.1684,-0.0783,0.0333,-0.0036,-0.0030,-0.0022,0.0011,-2.6039,1.4054,-3.0975
2024-10-11T12:32:01.842Z,-0.0043,-0.9825,0.1682,-0.0283,-0.0381,-0.0367,-0.0035,-0.0029,0.0007,-2.6039,1.4054,-3.0978
2024-10-11T12:32:01.853Z,-0.0021,-0.9788,0.1678,-0.0283,-0.0381,-0.0367,-0.0056,-0.0004,-0.0002,-2.6039,1.4054,-3.0978
2024-10-11T12:32:01.864Z,-0.0030,-0.9798,0.1682,-0.0283,-0.0381,-0.0367,-0.0048,-0.0047,0.0023,-2.6039,1.4054,-3.0978
2024-10-11T12:32:01.874Z,-0.0039,-0.9790,0.1672,-0.0319,-0.0726,-0.0269,-0.0024,0.0012,-0.0001,-2.6039,1.4054,-3.0981
2024-10-11T12:32:01.883Z,-0.0030,-0.9786,0.1674,-0.0319,-0.0726,-0.0269,-0.0021,0.0012,0.0006,-2.6039,1.4054,-3.0981
2024-10-11T12:32:01.892Z,-0.0042,-0.9790,0.1665,-0.0319,-0.0726,-0.0269,-0.0014,0.0006,0.0008,-2.6039,1.4054,-3.0981
2024-10-11T12:32:01.903Z,-0.0041,-0.9801,0.1654,-0.0297,-0.0619,-0.0100,0.0011,0.0002,0.0023,-2.6040,1.4055,-3.0982
2024-10-11T12:32:01.913Z,-0.0038,-0.9808,0.1642,-0.0297,-0.0619,-0.0100,-0.0007,0.0009,-0.0012,-2.6040,1.4055,-3.0982
2024-10-11T12:32:01.923Z,-0.0051,-0.9822,0.1641,-0.0297,-0.0619,-0.0100,0.0030,0.0013,-0.0005,-2.6040,1.4055,-3.0982
2024-10-11T12:32:01.933Z,-0.0045,-0.9844,0.1621,-0.0252,-0.0195,0.0233,-0.0017,0.0023,-0.0012,-2.6040,1.4055,-3.0984
2024-10-11T12:32:01.942Z,-0.0061,-0.9838,0.1618,-0.0252,-0.0195,0.0233,-0.0012,0.0013,-0.0032,-2.6040,1.4055,-3.0984
2024-10-11T12:32:01.953Z,-0.0060,-0.9849,0.1604,-0.0252,-0.0195,0.0233,0.0008,-0.0003,-0.0022,-2.6040,1.4055,-3.0984
2024-10-11T12:32:01.963Z,-0.0050,-0.9865,0.1616,-0.0198,0.0009,0.0280,-0.0016,-0.0013,-0.0020,-2.6037,1.4054,-3.0990
2024-10-11T12:32:01.973Z,-0.0036,-0.9856,0.1604,-0.0198,0.0009,0.0280,-0.0004,0.0004,-0.0003,-2.6037,1.4054,-3.0990
2024-10-11T12:32:01.983Z,-0.0037,-0.9859,0.1628,-0.0198,0.0009,0.0280,-0.0021,-0.0010,0.0004,-2.6037,1.4054,-3.0990
2024-10-11T12:32:01.992Z,-0.0014,-0.9867,0.1612,-0.0541,0.0034,0.0327,-0.0009,-0.0023,-0.0025,-2.6034,1.4054,-3.0996
2024-10-11T12:32:02.003Z,-0.0021,-0.9868,0.1634,-0.0541,0.0034,0.0327,-0.0005,-0.0033,-0.0009,-2.6034,1.4054,-3.0996
2024-10-11T12:32:02.013Z,-0.0022,-0.9893,0.1621,-0.0541,0.0034,0.0327,0.0023,-0.0019,-0.0009,-2.6034,1.4054,-3.0996
2024-10-11T12:32:02.022Z,-0.0023,-0.9872,0.1629,-0.0451,0.0079,0.0158,0.0023,-0.0024,-0.0003,-2.6034,1.4053,-3.1000
2024-10-11T12:32:02.033Z,-0.0027,-0.9878,0.1639,-0.0451,0.0079,0.0158,0.0015,0.0004,-0.0002,-2.6034,1.4053,-3.1000
2024-10-11T12:32:02.042Z,-0.0022,-0.9862,0.1641,-0.0451,0.0079,0.0158,0.0009,-0.0005,0.0008,-2.6034,1.4053,-3.1000
2024-10-11T12:32:02.054Z,-0.0024,-0.9836,0.1655,-0.0434,-0.0273,-0.0097,0.0025,-0.0014,-0.0004,-2.6033,1.4054,-3.1004
2024-10-11T12:32:02.063Z,-0.0021,-0.9839,0.1682,-0.0434,-0.0273,-0.0097,0.0040,-0.0030,0.0037,-2.6033,1.4054,-3.1004
2024-10-11T12:32:02.073Z,-0.0011,-0.9826,0.1682,-0.0434,-0.0273,-0.0097,0.0025,-0.0035,-0.0006,-2.6033,1.4054,-3.1004
2024-10-11T12:32:02.083Z,-0.0025,-0.9829,0.1695,-0.0407,-0.0335,-0.0484,-0.0004,-0.0034,0.0019,-2.6028,1.4054,-3.1012
2024-10-11T12:32:02.092Z,-0.0031,-0.9851,0.1677,-0.0407,-0.0335,-0.0484,0.0020,-0.0069,0.0023,-2.6028,1.4054,-3.1012
2024-10-11T12:32:02.103Z,-0.0042,-0.9851,0.1649,-0.0407,-0.0335,-0.0484,0.0002,-0.0046,0.0047,-2.6028,1.4054,-3.1012
2024-10-11T12:32:02.113Z,-0.0045,-0.9848,0.1652,-0.0205,-0.0146,-0.0061,0.0009,-0.0068,0.0008,-2.6030,1.4053,-3.1015
2024-10-11T12:32:02.123Z,-0.0095,-0.9858,0.1626,-0.0205,-0.0146,-0.0061,0.0010,-0.0062,0.0043,-2.6030,1.4053,-3.1015
2024-10-11T12:32:02.133Z,-0.0094,-0.9850,0.1596,-0.0205,-0.0146,-0.0061,0.0003,-0.0085,0.0025,-2.6030,1.4053,-3.1015
2024-10-11T12:32:02.142Z,-0.0099,-0.9837,0.1597,0.0330,-0.0261,0.0491,0.0013,-0.0096,0.0045,-2.6031,1.4052,-3.1019
2024-10-11T12:32:02.154Z,-0.0110,-0.9850,0.1591,0.0330,-0.0261,0.0491,0.0009,-0.0115,0.0017,-2.6031,1.4052,-3.1019
2024-10-11T12:32:02.163Z,-0.0107,-0.9839,0.1588,0.0330,-0.0261,0.0491,0.0009,-0.0115,0.0017,-2.6031,1.4052,-3.1019
2024-10-11T12:32:02.173Z,-0.0113,-0.9830,0.1583,0.0476,-0.0324,0.0640,0.0005,-0.0141,0.0020,-2.6034,1.4051,-3.1022
2024-10-11T12:32:02.183Z,-0.0107,-0.9810,0.1586,0.0476,-0.0324,0.0640,0.0001,-0.0136,0.0024,-2.6034,1.4051,-3.1022
2024-10-11T12:32:02.192Z,-0.0111,-0.9812,0.1581,0.0476,-0.0324,0.0640,-0.0016,-0.0147,-0.0003,-2.6034,1.4051,-3.1022
2024-10-11T12:32:02.203Z,-0.0127,-0.9814,0.1589,0.0610,-0.0477,0.0580,-0.0015,-0.0146,0.0025,-2.6038,1.4051,-3.1025
2024-10-11T12:32:02.213Z,-0.0109,-0.9812,0.1579,0.0610,-0.0477,0.0580,0.0002,-0.0142,0.0020,-2.6038,1.4051,-3.1025
2024-10-11T12:32:02.222Z,-0.0101,-0.9827,0.1600,0.0610,-0.0477,0.0580,-0.0003,-0.0124,0.0011,-2.6038,1.4051,-3.1025
2024-10-11T12:32:02.233Z,-0.0099,-0.9826,0.1565,0.0338,-0.0362,0.0814,-0.0004,-0.0085,0.0032,-2.6045,1.4051,-3.1025
2024-10-11T12:32:02.242Z,-0.0111,-0.9837,0.1552,0.0338,-0.0362,0.0814,0.0006,-0.0075,0.0033,-2.6045,1.4051,-3.1025
2024-10-11T12:32:02.254Z,-0.0083,-0.9846,0.1533,0.0338,-0.0362,0.0814,0.0028,-0.0060,0.0049,-2.6045,1.4051,-3.1025
2024-10-11T12:32:02.263Z,-0.0091,-0.9861,0.1528,0.0246,-0.0020,0.1187,0.0028,-0.0060,0.0049,-2.6057,1.4050,-3.1018
2024-10-11T12:32:02.274Z,-0.0103,-0.9861,0.1509,0.0246,-0.0020,0.1187,0.0064,-0.0052,0.0037,-2.6057,1.4050,-3.1018
2024-10-11T12:32:02.284Z,-0.0139,-0.9873,0.1513,0.0246,-0.0020,0.1187,0.0089,-0.0048,0.0056,-2.6057,1.4050,-3.1018
2024-10-11T12:32:02.293Z,-0.0130,-0.9893,0.1525,0.0617,0.0295,0.1226,0.0089,-0.0048,0.0056,-2.6071,1.4049,-3.1008
2024-10-11T12:32:02.304Z,-0.0144,-0.9914,0.1546,0.0617,0.0295,0.1226,0.0094,-0.0004,0.0021,-2.6071,1.4049,-3.1008
2024-10-11T12:32:02.314Z,-0.0156,-0.9905,0.1565,0.0617,0.0295,0.1226,0.0094,-0.0038,0.0006,-2.6071,1.4049,-3.1008
2024-10-11T12:32:02.324Z,-0.0188,-0.9928,0.1617,0.1017,0.0515,0.0661,0.0094,-0.0038,0.0006,-2.6078,1.4046,-3.1004
2024-10-11T12:32:02.334Z,-0.0188,-0.9928,0.1617,0.1017,0.0515,0.0661,0.0073,-0.0042,-0.0046,-2.6078,1.4046,-3.1004
2024-10-11T12:32:02.342Z,-0.0195,-0.9925,0.1609,0.1017,0.0515,0.0661,0.0073,-0.0042,-0.0046,-2.6078,1.4046,-3.1004
2024-10-11T12:32:02.354Z,-0.0175,-0.9913,0.1621,0.1056,0.0499,0.0336,0.0091,-0.0091,-0.0048,-2.6074,1.4044,-3.1012
2024-10-11T12:32:02.364Z,-0.0130,-0.9888,0.1649,0.1056,0.0499,0.0336,0.0060,-0.0099,-0.0039,-2.6074,1.4044,-3.1012
2024-10-11T12:32:02.374Z,-0.0092,-0.9888,0.1696,0.1056,0.0499,0.0336,0.0061,-0.0119,-0.0036,-2.6074,1.4044,-3.1012
2024-10-11T12:32:02.384Z,-0.0109,-0.9885,0.1698,0.0428,0.0235,-0.0397,0.0040,-0.0127,-0.0041,-2.6069,1.4042,-3.1023
2024-10-11T12:32:02.392Z,-0.0091,-0.9915,0.1715,0.0428,0.0235,-0.0397,0.0040,-0.0127,-0.0041,-2.6069,1.4042,-3.1023
2024-10-11T12:32:02.403Z,-0.0066,-0.9933,0.1734,0.0428,0.0235,-0.0397,0.0020,-0.0107,-0.0010,-2.6069,1.4042,-3.1023
2024-10-11T12:32:02.413Z,-0.0043,-0.9934,0.1734,-0.0207,0.0715,-0.0739,0.0036,-0.0095,-0.0003,-2.6066,1.4041,-3.1031
2024-10-11T12:32:02.424Z,-0.0028,-0.9969,0.1732,-0.0207,0.0715,-0.0739,-0.0007,-0.0042,-0.0039,-2.6066,1.4041,-3.1031
2024-10-11T12:32:02.433Z,-0.0038,-0.9962,0.1732,-0.0207,0.0715,-0.0739,-0.0013,-0.0027,-0.0006,-2.6066,1.4041,-3.1031
2024-10-11T12:32:02.442Z,-0.0037,-0.9979,0.1766,-0.0258,0.1154,-0.1059,-0.0013,-0.0027,-0.0006,-2.6067,1.4041,-3.1036
2024-10-11T12:32:02.454Z,-0.0060,-0.9962,0.1779,-0.0258,0.1154,-0.1059,-0.0069,0.0014,0.0024,-2.6067,1.4041,-3.1036
2024-10-11T12:32:02.463Z,-0.0080,-0.9955,0.1788,-0.0258,0.1154,-0.1059,-0.0067,0.0025,0.0008,-2.6067,1.4041,-3.1036
2024-10-11T12:32:02.473Z,-0.0106,-0.9953,0.1797,0.0415,0.0892,-0.1375,-0.0089,0.0035,0.0006,-2.6072,1.4042,-3.1033
2024-10-11T12:32:02.484Z,-0.0114,-0.9976,0.1777,0.0415,0.0892,-0.1375,-0.0093,0.0032,0.0021,-2.6072,1.4042,-3.1033
2024-10-11T12:32:02.493Z,-0.0114,-0.9976,0.1777,0.0415,0.0892,-0.1375,-0.0110,0.0016,0.0041,-2.6072,1.4042,-3.1033
2024-10-11T12:32:02.503Z,-0.0112,-0.9956,0.1774,0.0469,0.0918,-0.1169,-0.0110,0.0016,0.0041,-2.6079,1.4045,-3.1028
2024-10-11T12:32:02.514Z,-0.0111,-0.9971,0.1757,0.0469,0.0918,-0.1169,-0.0138,0.0032,0.0039,-2.6079,1.4045,-3.1028
2024-10-11T12:32:02.524Z,-0.0106,-0.9958,0.1752,0.0469,0.0918,-0.1169,-0.0148,0.0041,0.0015,-2.6079,1.4045,-3.1028
2024-10-11T12:32:02.534Z,-0.0093,-0.9948,0.1752,0.0268,0.0837,-0.0993,-0.0188,0.0044,0.0054,-2.6088,1.4048,-3.1021
2024-10-11T12:32:02.542Z,-0.0112,-0.9939,0.1752,0.0268,0.0837,-0.0993,-0.0188,0.0044,0.0054,-2.6088,1.4048,-3.1021
2024-10-11T12:32:02.555Z,-0.0097,-0.9933,0.1706,0.0553,0.0479,-0.0242,-0.0174,0.0065,0.0031,-2.6101,1.4052,-3.1008
2024-10-11T12:32:02.563Z,-0.0124,-0.9912,0.1672,0.0553,0.0479,-0.0242,-0.0208,0.0037,0.0037,-2.6101,1.4052,-3.1008
2024-10-11T12:32:02.572Z,-0.0101,-0.9910,0.1650,0.0553,0.0479,-0.0242,-0.0208,0.0037,0.0037,-2.6101,1.4052,-3.1008
2024-10-11T12:32:02.583Z,-0.0107,-0.9878,0.1625,0.0553,0.0479,-0.0242,-0.0192,0.0020,0.0051,-2.6101,1.4052,-3.1008
2024-10-11T12:32:02.592Z,-0.0091,-0.9883,0.1616,0.0212,0.0189,0.0255,-0.0192,0.0020,0.0051,-2.6115,1.4057,-3.0996
2024-10-11T12:32:02.603Z,-0.0087,-0.9862,0.1616,0.0212,0.0189,0.0255,-0.0184,0.0035,0.0033,-2.6115,1.4057,-3.0996
2024-10-11T12:32:02.613Z,-0.0094,-0.9865,0.1630,0.0212,0.0189,0.0255,-0.0195,0.0017,0.0055,-2.6115,1.4057,-3.0996
2024-10-11T12:32:02.624Z,-0.0076,-0.9865,0.1613,0.0051,0.0001,0.0240,-0.0191,0.0053,0.0067,-2.6128,1.4062,-3.0985
2024-10-11T12:32:02.633Z,-0.0071,-0.9841,0.1608,0.0051,0.0001,0.0240,-0.0159,0.0026,0.0054,-2.6128,1.4062,-3.0985
2024-10-11T12:32:02.643Z,-0.0063,-0.9837,0.1603,0.0051,0.0001,0.0240,-0.0153,0.0031,0.0075,-2.6128,1.4062,-3.0985
2024-10-11T12:32:02.653Z,-0.0055,-0.9828,0.1595,-0.0175,-0.0372,0.0363,-0.0153,0.0031,0.0075,-2.6144,1.4067,-3.0971
2024-10-11T12:32:02.663Z,-0.0032,-0.9835,0.1594,-0.0175,-0.0372,0.0363,-0.0140,0.0021,0.0085,-2.6144,1.4067,-3.0971
2024-10-11T12:32:02.675Z,-0.0054,-0.9812,0.1604,-0.0078,-0.0529,0.0240,-0.0144,0.0032,0.0076,-2.6160,1.4071,-3.0957
2024-10-11T12:32:02.683Z,-0.0056,-0.9799,0.1597,-0.0078,-0.0529,0.0240,-0.0131,0.0026,0.0105,-2.6160,1.4071,-3.0957
2024-10-11T12:32:02.693Z,-0.0056,-0.9799,0.1597,-0.0078,-0.0529,0.0240,-0.0156,0.0047,0.0065,-2.6160,1.4071,-3.0957
2024-10-11T12:32:02.706Z,-0.0067,-0.9779,0.1603,-0.0075,-0.0668,0.0400,-0.0108,0.0036,0.0066,-2.6178,1.4074,-3.0941
2024-10-11T12:32:02.713Z,-0.0062,-0.9794,0.1586,-0.0075,-0.0668,0.0400,-0.0106,0.0034,0.0064,-2.6178,1.4074,-3.0941
2024-10-11T12:32:02.723Z,-0.0062,-0.9794,0.1586,-0.0075,-0.0668,0.0400,-0.0093,0.0041,0.0069,-2.6178,1.4074,-3.0941
2024-10-11T12:32:02.734Z,-0.0066,-0.9793,0.1588,-0.0075,-0.0668,0.0400,-0.0086,0.0062,0.0047,-2.6178,1.4074,-3.0941
2024-10-11T12:32:02.743Z,-0.0083,-0.9811,0.1587,0.0043,-0.0551,0.0340,-0.0084,0.0056,0.0034,-2.6190,1.4077,-3.0930
2024-10-11T12:32:02.754Z,-0.0093,-0.9812,0.1583,0.0043,-0.0551,0.0340,-0.0050,0.0071,0.0020,-2.6190,1.4077,-3.0930
2024-10-11T12:32:02.763Z,-0.0101,-0.9820,0.1565,0.0043,-0.0551,0.0340,-0.0067,0.0074,0.0036,-2.6190,1.4077,-3.0930
2024-10-11T12:32:02.773Z,-0.0130,-0.9837,0.1546,0.0495,-0.0305,0.0728,-0.0057,0.0116,0.0013,-2.6196,1.4079,-3.0925
2024-10-11T12:32:02.783Z,-0.0142,-0.9859,0.1526,0.0495,-0.0305,0.0728,-0.0035,0.0105,0.0012,-2.6196,1.4079,-3.0925
2024-10-11T12:32:02.794Z,-0.0117,-0.9850,0.1534,0.0495,-0.0305,0.0728,-0.0017,0.0122,-0.0001,-2.6196,1.4079,-3.0925
2024-10-11T12:32:02.804Z,-0.0115,-0.9855,0.1546,0.0346,-0.0125,0.0713,-0.0017,0.0123,0.0017,-2.6198,1.4080,-3.0922
2024-10-11T12:32:02.813Z,-0.0124,-0.9874,0.1530,0.0346,-0.0125,0.0713,0.0007,0.0154,-0.0005,-2.6198,1.4080,-3.0922
2024-10-11T12:32:02.823Z,-0.0127,-0.9873,0.1527,0.0346,-0.0125,0.0713,0.0016,0.0162,0.0026,-2.6198,1.4080,-3.0922
2024-10-11T12:32:02.833Z,-0.0135,-0.9863,0.1548,0.0530,-0.0045,0.0689,0.0038,0.0148,0.0016,-2.6201,1.4080,-3.0917
2024-10-11T12:32:02.843Z,-0.0119,-0.9863,0.1555,0.0530,-0.0045,0.0689,0.0040,0.0168,0.0022,-2.6201,1.4080,-3.0917
2024-10-11T12:32:02.856Z,-0.0129,-0.9866,0.1577,0.0394,-0.0138,0.0189,0.0059,0.0179,0.0025,-2.6211,1.4080,-3.0905
2024-10-11T12:32:02.864Z,-0.0119,-0.9848,0.1614,0.0394,-0.0138,0.0189,0.0055,0.0189,0.0013,-2.6211,1.4080,-3.0905
2024-10-11T12:32:02.873Z,-0.0119,-0.9848,0.1614,0.0394,-0.0138,0.0189,0.0066,0.0207,-0.0015,-2.6211,1.4080,-3.0905
2024-10-11T12:32:02.884Z,-0.0146,-0.9834,0.1663,0.0493,-0.0494,-0.0555,0.0059,0.0214,0.0029,-2.6219,1.4079,-3.0894
2024-10-11T12:32:02.892Z,-0.0135,-0.9817,0.1676,0.0493,-0.0494,-0.0555,0.0053,0.0220,0.0022,-2.6219,1.4079,-3.0894
2024-10-11T12:32:02.904Z,-0.0152,-0.9805,0.1676,0.0493,-0.0494,-0.0555,0.0033,0.0233,0.0034,-2.6219,1.4079,-3.0894
2024-10-11T12:32:02.913Z,-0.0137,-0.9814,0.1660,0.0599,-0.0537,-0.0365,0.0025,0.0214,0.0024,-2.6225,1.4078,-3.0884
2024-10-11T12:32:02.922Z,-0.0147,-0.9813,0.1658,0.0599,-0.0537,-0.0365,0.0048,0.0234,0.0045,-2.6225,1.4078,-3.0884
2024-10-11T12:32:02.933Z,-0.0164,-0.9824,0.1631,0.0599,-0.0537,-0.0365,0.0027,0.0239,0.0003,-2.6225,1.4078,-3.0884
2024-10-11T12:32:02.943Z,-0.0142,-0.9825,0.1617,0.0599,-0.0537,-0.0365,0.0027,0.0257,0.0006,-2.6225,1.4078,-3.0884
2024-10-11T12:32:02.954Z,-0.0153,-0.9833,0.1621,0.0635,-0.0334,0.0008,0.0014,0.0250,0.0032,-2.6232,1.4077,-3.0872
2024-10-11T12:32:02.963Z,-0.0159,-0.9837,0.1603,0.0635,-0.0334,0.0008,0.0000,0.0263,0.0045,-2.6232,1.4077,-3.0872
2024-10-11T12:32:02.974Z,-0.0159,-0.9837,0.1603,0.0739,-0.0395,0.0110,0.0004,0.0271,0.0020,-2.6240,1.4076,-3.0859
2024-10-11T12:32:02.983Z,-0.0185,-0.9818,0.1607,0.0739,-0.0395,0.0110,-0.0018,0.0272,-0.0002,-2.6240,1.4076,-3.0859
2024-10-11T12:32:02.993Z,-0.0185,-0.9818,0.1607,0.0739,-0.0395,0.0110,-0.0017,0.0275,0.0008,-2.6240,1.4076,-3.0859
2024-10-11T12:32:03.005Z,-0.0159,-0.9825,0.1618,0.0467,-0.0413,0.0079,-0.0012,0.0294,0.0001,-2.6249,1.4075,-3.0844
2024-10-11T12:32:03.014Z,-0.0150,-0.9852,0.1597,0.0467,-0.0413,0.0079,0.0018,0.0288,0.0002,-2.6249,1.4075,-3.0844
2024-10-11T12:32:03.024Z,-0.0136,-0.9850,0.1576,0.0467,-0.0413,0.0079,0.0016,0.0287,-0.0015,-2.6249,1.4075,-3.0844
2024-10-11T12:32:03.034Z,-0.0136,-0.9850,0.1576,0.0524,0.0159,0.0472,0.0026,0.0310,-0.0034,-2.6255,1.4075,-3.0832
2024-10-11T12:32:03.043Z,-0.0148,-0.9883,0.1575,0.0524,0.0159,0.0472,0.0052,0.0291,-0.0042,-2.6255,1.4075,-3.0832
2024-10-11T12:32:03.053Z,-0.0089,-0.9913,0.1540,0.0524,0.0159,0.0472,0.0058,0.0297,-0.0047,-2.6255,1.4075,-3.0832
2024-10-11T12:32:03.063Z,-0.0089,-0.9913,0.1540,-0.0184,0.0448,0.0706,0.0082,0.0289,-0.0031,-2.6254,1.4073,-3.0826
2024-10-11T12:32:03.074Z,-0.0058,-0.9912,0.1546,-0.0184,0.0448,0.0706,0.0047,0.0286,-0.0046,-2.6254,1.4073,-3.0826
2024-10-11T12:32:03.083Z,-0.0053,-0.9905,0.1553,-0.0184,0.0448,0.0706,0.0072,0.0284,-0.0044,-2.6254,1.4073,-3.0826
2024-10-11T12:32:03.094Z,-0.0053,-0.9905,0.1553,-0.0451,0.0378,0.0565,0.0069,0.0233,-0.0048,-2.6249,1.4071,-3.0825
2024-10-11T12:32:03.104Z,-0.0037,-0.9892,0.1561,-0.0451,0.0378,0.0565,0.0077,0.0210,-0.0044,-2.6249,1.4071,-3.0825
2024-10-11T12:32:03.113Z,-0.0035,-0.9878,0.1571,-0.0451,0.0378,0.0565,0.0097,0.0170,-0.0017,-2.6249,1.4071,-3.0825
2024-10-11T12:32:03.124Z,-0.0066,-0.9866,0.1552,-0.0296,0.0005,0.0757,0.0097,0.0170,-0.0017,-2.6246,1.4068,-3.0825
2024-10-11T12:32:03.133Z,-0.0070,-0.9874,0.1564,-0.0296,0.0005,0.0757,0.0094,0.0175,-0.0017,-2.6246,1.4068,-3.0825
2024-10-11T12:32:03.143Z,-0.0070,-0.9874,0.1564,-0.0296,0.0005,0.0757,0.0114,0.0109,-0.0044,-2.6246,1.4068,-3.0825
2024-10-11T12:32:03.154Z,-0.0062,-0.9872,0.1566,0.0057,-0.0116,0.0439,0.0120,0.0091,-0.0039,-2.6240,1.4065,-3.0830
2024-10-11T12:32:03.163Z,-0.0127,-0.9861,0.1619,0.0057,-0.0116,0.0439,0.0114,0.0063,-0.0024,-2.6240,1.4065,-3.0830
2024-10-11T12:32:03.174Z,-0.0117,-0.9849,0.1649,0.0057,-0.0116,0.0439,0.0120,0.0029,-0.0070,-2.6240,1.4065,-3.0830
2024-10-11T12:32:03.183Z,-0.0117,-0.9849,0.1649,0.0365,-0.0300,-0.0227,0.0134,0.0003,-0.0073,-2.6228,1.4062,-3.0843
2024-10-11T12:32:03.192Z,-0.0131,-0.9834,0.1659,0.0365,-0.0300,-0.0227,0.0129,-0.0023,-0.0104,-2.6228,1.4062,-3.0843
2024-10-11T12:32:03.205Z,-0.0150,-0.9811,0.1674,0.0365,-0.0300,-0.0227,0.0089,-0.0048,-0.0105,-2.6228,1.4062,-3.0843
2024-10-11T12:32:03.214Z,-0.0150,-0.9811,0.1674,0.0130,-0.0425,-0.0575,0.0109,-0.0053,-0.0096,-2.6211,1.4059,-3.0864
2024-10-11T12:32:03.223Z,-0.0073,-0.9825,0.1700,0.0130,-0.0425,-0.0575,0.0121,-0.0072,-0.0085,-2.6211,1.4059,-3.0864
2024-10-11T12:32:03.233Z,-0.0036,-0.9824,0.1701,0.0130,-0.0425,-0.0575,0.0082,-0.0099,-0.0092,-2.6211,1.4059,-3.0864
2024-10-11T12:32:03.243Z,-0.0036,-0.9824,0.1701,-0.0560,-0.0352,-0.0766,0.0069,-0.0081,-0.0072,-2.6195,1.4056,-3.0884
2024-10-11T12:32:03.254Z,-0.0002,-0.9837,0.1713,-0.0560,-0.0352,-0.0766,0.0075,-0.0076,-0.0087,-2.6195,1.4056,-3.0884
2024-10-11T12:32:03.263Z,-0.0005,-0.9839,0.1714,-0.0560,-0.0352,-0.0766,0.0034,-0.0017,-0.0069,-2.6195,1.4056,-3.0884
2024-10-11T12:32:03.273Z,-0.0005,-0.9839,0.1714,-0.0560,-0.0352,-0.0766,0.0034,0.0014,-0.0048,-2.6195,1.4056,-3.0884
2024-10-11T12:32:03.283Z,0.0008,-0.9853,0.1742,-0.1013,-0.0164,-0.0858,-0.0020,0.0066,-0.0054,-2.6183,1.4055,-3.0900
2024-10-11T12:32:03.292Z,0.0008,-0.9853,0.1742,-0.1013,-0.0164,-0.0858,-0.0012,0.0077,-0.0036,-2.6183,1.4055,-3.0900
2024-10-11T12:32:03.305Z,-0.0012,-0.9861,0.1723,-0.0516,0.0230,-0.0662,-0.0040,0.0120,-0.0058,-2.6176,1.4055,-3.0907
2024-10-11T12:32:03.313Z,-0.0022,-0.9878,0.1697,-0.0516,0.0230,-0.0662,-0.0042,0.0104,-0.0060,-2.6176,1.4055,-3.0907
2024-10-11T12:32:03.323Z,-0.0035,-0.9902,0.1666,-0.0516,0.0230,-0.0662,-0.0058,0.0142,-0.0028,-2.6176,1.4055,-3.0907
2024-10-11T12:32:03.333Z,-0.0035,-0.9902,0.1666,-0.0341,0.0250,-0.0024,-0.0040,0.0128,-0.0036,-2.6169,1.4055,-3.0913
2024-10-11T12:32:03.343Z,-0.0091,-0.9906,0.1647,-0.0341,0.0250,-0.0024,-0.0033,0.0139,-0.0033,-2.6169,1.4055,-3.0913
2024-10-11T12:32:03.354Z,-0.0073,-0.9921,0.1623,-0.0341,0.0250,-0.0024,-0.0049,0.0145,-0.0040,-2.6169,1.4055,-3.0913
2024-10-11T12:32:03.364Z,-0.0073,-0.9921,0.1623,-0.0078,0.0578,0.0004,-0.0058,0.0146,-0.0056,-2.6157,1.4056,-3.0922
2024-10-11T12:32:03.373Z,-0.0070,-0.9931,0.1638,-0.0078,0.0578,0.0004,-0.0028,0.0170,-0.0063,-2.6157,1.4056,-3.0922
2024-10-11T12:32:03.383Z,-0.0099,-0.9956,0.1634,-0.0078,0.0578,0.0004,-0.0067,0.0173,-0.0075,-2.6157,1.4056,-3.0922
2024-10-11T12:32:03.393Z,-0.0099,-0.9956,0.1634,0.0162,0.0746,-0.0064,-0.0060,0.0162,-0.0060,-2.6146,1.4057,-3.0931
2024-10-11T12:32:03.404Z,-0.0082,-0.9927,0.1650,0.0162,0.0746,-0.0064,-0.0074,0.0154,-0.0075,-2.6146,1.4057,-3.0931
2024-10-11T12:32:03.413Z,-0.0096,-0.9929,0.1648,0.0162,0.0746,-0.0064,-0.0053,0.0169,-0.0042,-2.6146,1.4057,-3.0931
2024-10-11T12:32:03.424Z,-0.0096,-0.9929,0.1648,-0.0101,0.0497,0.0144,-0.0052,0.0151,-0.0028,-2.6138,1.4058,-3.0937
2024-10-11T12:32:03.433Z,-0.0067,-0.9896,0.1611,-0.0101,0.0497,0.0144,-0.0068,0.0162,-0.0036,-2.6138,1.4058,-3.0937
2024-10-11T12:32:03.442Z,-0.0063,-0.9883,0.1602,-0.0101,0.0497,0.0144,-0.0079,0.0165,-0.0017,-2.6138,1.4058,-3.0937
2024-10-11T12:32:03.454Z,-0.0071,-0.9867,0.1616,-0.0070,0.0028,0.0224,-0.0073,0.0151,-0.0025,-2.6136,1.4060,-3.0937
2024-10-11T12:32:03.463Z,-0.0086,-0.9874,0.1599,-0.0070,0.0028,0.0224,-0.0057,0.0150,-0.0010,-2.6136,1.4060,-3.0937
2024-10-11T12:32:03.474Z,-0.0087,-0.9856,0.1606,-0.0070,0.0028,0.0224,-0.0057,0.0145,0.0008,-2.6136,1.4060,-3.0937
2024-10-11T12:32:03.483Z,-0.0087,-0.9856,0.1606,0.0255,-0.0359,0.0385,-0.0048,0.0146,0.0006,-2.6140,1.4061,-3.0931
2024-10-11T12:32:03.492Z,-0.0087,-0.9815,0.1566,0.0255,-0.0359,0.0385,-0.0052,0.0152,0.0033,-2.6140,1.4061,-3.0931
2024-10-11T12:32:03.503Z,-0.0080,-0.9828,0.1555,0.0255,-0.0359,0.0385,-0.0046,0.0157,0.0012,-2.6140,1.4061,-3.0931
2024-10-11T12:32:03.513Z,-0.0080,-0.9828,0.1555,0.0005,-0.0591,0.1024,-0.0017,0.0145,0.0018,-2.6147,1.4063,-3.0922
2024-10-11T12:32:03.523Z,-0.0081,-0.9805,0.1532,0.0005,-0.0591,0.1024,-0.0021,0.0153,0.0030,-2.6147,1.4063,-3.0922
2024-10-11T12:32:03.533Z,-0.0101,-0.9802,0.1517,0.0005,-0.0591,0.1024,0.0004,0.0141,0.0038,-2.6147,1.4063,-3.0922
2024-10-11T12:32:03.542Z,-0.0101,-0.9802,0.1517,0.0218,-0.0732,0.1059,0.0004,0.0119,0.0037,-2.6157,1.4063,-3.0910
2024-10-11T12:32:03.553Z,-0.0088,-0.9811,0.1506,0.0218,-0.0732,0.1059,-0.0016,0.0116,0.0055,-2.6157,1.4063,-3.0910
2024-10-11T12:32:03.563Z,-0.0122,-0.9814,0.1506,0.0218,-0.0732,0.1059,0.0020,0.0121,0.0051,-2.6157,1.4063,-3.0910
2024-10-11T12:32:03.574Z,-0.0122,-0.9814,0.1506,0.0400,-0.0484,0.1097,0.0045,0.0113,0.0043,-2.6169,1.4062,-3.0897
2024-10-11T12:32:03.583Z,-0.0136,-0.9822,0.1519,0.0400,-0.0484,0.1097,0.0049,0.0109,0.0046,-2.6169,1.4062,-3.0897
2024-10-11T12:32:03.593Z,-0.0158,-0.9808,0.1549,0.0400,-0.0484,0.1097,0.0017,0.0101,0.0068,-2.6169,1.4062,-3.0897
2024-10-11T12:32:03.604Z,-0.0154,-0.9819,0.1560,0.0656,-0.0449,0.0755,0.0038,0.0104,0.0075,-2.6182,1.4062,-3.0884
2024-10-11T12:32:03.613Z,-0.0168,-0.9834,0.1541,0.0656,-0.0449,0.0755,0.0041,0.0103,0.0057,-2.6182,1.4062,-3.0884
2024-10-11T12:32:03.622Z,-0.0168,-0.9834,0.1541,0.0656,-0.0449,0.0755,0.0053,0.0083,0.0064,-2.6182,1.4062,-3.0884
2024-10-11T12:32:03.633Z,-0.0159,-0.9871,0.1542,0.0688,0.0061,0.0932,0.0075,0.0095,0.0049,-2.6195,1.4061,-3.0871
2024-10-11T12:32:03.642Z,-0.0145,-0.9879,0.1545,0.0688,0.0061,0.0932,0.0107,0.0093,0.0046,-2.6195,1.4061,-3.0871
2024-10-11T12:32:03.653Z,-0.0131,-0.9880,0.1547,0.0688,0.0061,0.0932,0.0095,0.0107,0.0034,-2.6195,1.4061,-3.0871
2024-10-11T12:32:03.663Z,-0.0120,-0.9898,0.1547,0.0275,0.0330,0.0895,0.0117,0.0099,0.0023,-2.6208,1.4059,-3.0857
2024-10-11T12:32:03.673Z,-0.0112,-0.9889,0.1599,0.0275,0.0330,0.0895,0.0120,0.0121,0.0028,-2.6208,1.4059,-3.0857
2024-10-11T12:32:03.683Z,-0.0122,-0.9901,0.1626,0.0275,0.0330,0.0895,0.0123,0.0122,0.0030,-2.6208,1.4059,-3.0857
2024-10-11T12:32:03.694Z,-0.0122,-0.9901,0.1626,0.0220,0.0334,-0.0055,0.0129,0.0160,0.0059,-2.6220,1.4056,-3.0843
2024-10-11T12:32:03.703Z,-0.0107,-0.9899,0.1647,0.0220,0.0334,-0.0055,0.0082,0.0165,0.0033,-2.6220,1.4056,-3.0843
2024-10-11T12:32:03.713Z,-0.0145,-0.9911,0.1661,0.0220,0.0334,-0.0055,0.0081,0.0167,0.0031,-2.6220,1.4056,-3.0843
2024-10-11T12:32:03.724Z,-0.0145,-0.9911,0.1661,0.0327,0.0335,-0.0423,0.0085,0.0166,0.0008,-2.6228,1.4053,-3.0833
2024-10-11T12:32:03.733Z,-0.0129,-0.9884,0.1707,0.0327,0.0335,-0.0423,0.0097,0.0198,0.0025,-2.6228,1.4053,-3.0833
2024-10-11T12:32:03.742Z,-0.0138,-0.9882,0.1722,0.0327,0.0335,-0.0423,0.0092,0.0205,0.0018,-2.6228,1.4053,-3.0833
2024-10-11T12:32:03.753Z,-0.0151,-0.9889,0.1745,0.0527,0.0259,-0.0965,0.0063,0.0194,0.0005,-2.6234,1.4051,-3.0824
2024-10-11T12:32:03.762Z,-0.0170,-0.9891,0.1756,0.0527,0.0259,-0.0965,0.0086,0.0247,-0.0001,-2.6234,1.4051,-3.0824
2024-10-11T12:32:03.773Z,-0.0170,-0.9891,0.1756,0.0527,0.0259,-0.0965,0.0077,0.0230,0.0019,-2.6234,1.4051,-3.0824
2024-10-11T12:32:03.783Z,-0.0170,-0.9884,0.1779,0.0703,0.0205,-0.1281,0.0091,0.0247,-0.0022,-2.6236,1.4049,-3.0817
2024-10-11T12:32:03.792Z,-0.0155,-0.9870,0.1783,0.0703,0.0205,-0.1281,0.0032,0.0260,-0.0035,-2.6236,1.4049,-3.0817
2024-10-11T12:32:03.803Z,-0.0176,-0.9850,0.1777,0.0703,0.0205,-0.1281,0.0039,0.0318,-0.0012,-2.6236,1.4049,-3.0817
2024-10-11T12:32:03.813Z,-0.0188,-0.9859,0.1761,0.0869,-0.0035,-0.1086,0.0012,0.0330,-0.0043,-2.6231,1.4047,-3.0815
2024-10-11T12:32:03.823Z,-0.0186,-0.9846,0.1763,0.0869,-0.0035,-0.1086,0.0008,0.0341,-0.0064,-2.6231,1.4047,-3.0815
2024-10-11T12:32:03.833Z,-0.0204,-0.9836,0.1740,0.0869,-0.0035,-0.1086,-0.0013,0.0346,-0.0062,-2.6231,1.4047,-3.0815
2024-10-11T12:32:03.842Z,-0.0204,-0.9836,0.1740,0.0927,-0.0384,-0.0476,-0.0049,0.0402,-0.0076,-2.6221,1.4048,-3.0817
2024-10-11T12:32:03.852Z,-0.0193,-0.9801,0.1664,0.0927,-0.0384,-0.0476,-0.0054,0.0409,-0.0086,-2.6221,1.4048,-3.0817
2024-10-11T12:32:03.864Z,-0.0142,-0.9772,0.1647,0.0927,-0.0384,-0.0476,-0.0070,0.0431,-0.0101,-2.6221,1.4048,-3.0817
2024-10-11T12:32:03.874Z,-0.0142,-0.9772,0.1647,0.0570,-0.0979,0.0049,-0.0085,0.0469,-0.0101,-2.6207,1.4049,-3.0820
2024-10-11T12:32:03.883Z,-0.0138,-0.9762,0.1601,0.0570,-0.0979,0.0049,-0.0089,0.0471,-0.0106,-2.6207,1.4049,-3.0820
2024-10-11T12:32:03.892Z,-0.0141,-0.9790,0.1599,0.0570,-0.0979,0.0049,-0.0093,0.0494,-0.0132,-2.6207,1.4049,-3.0820
2024-10-11T12:32:03.903Z,-0.0128,-0.9797,0.1599,0.0301,-0.0647,0.0463,-0.0089,0.0500,-0.0122,-2.6191,1.4051,-3.0824
2024-10-11T12:32:03.913Z,-0.0121,-0.9816,0.1615,0.0301,-0.0647,0.0463,-0.0062,0.0519,-0.0141,-2.6191,1.4051,-3.0824
2024-10-11T12:32:03.923Z,-0.0128,-0.9830,0.1618,0.0301,-0.0647,0.0463,-0.0045,0.0534,-0.0143,-2.6191,1.4051,-3.0824
2024-10-11T12:32:03.933Z,-0.0079,-0.9876,0.1627,-0.0177,0.0122,0.0185,-0.0050,0.0548,-0.0121,-2.6172,1.4052,-3.0830
2024-10-11T12:32:03.943Z,-0.0072,-0.9892,0.1641,-0.0177,0.0122,0.0185,0.0008,0.0569,-0.0141,-2.6172,1.4052,-3.0830
2024-10-11T12:32:03.953Z,-0.0076,-0.9915,0.1669,-0.0177,0.0122,0.0185,0.0001,0.0579,-0.0153,-2.6172,1.4052,-3.0830
2024-10-11T12:32:03.963Z,-0.0047,-0.9944,0.1659,-0.0476,0.0797,-0.0135,-0.0000,0.0581,-0.0161,-2.6148,1.4052,-3.0838
2024-10-11T12:32:03.973Z,-0.0040,-0.9972,0.1685,-0.0476,0.0797,-0.0135,0.0057,0.0566,-0.0154,-2.6148,1.4052,-3.0838
2024-10-11T12:32:03.983Z,-0.0039,-0.9950,0.1684,-0.0476,0.0797,-0.0135,0.0063,0.0504,-0.0139,-2.6148,1.4052,-3.0838
2024-10-11T12:32:03.993Z,-0.0031,-0.9936,0.1686,-0.0608,0.0720,-0.0386,0.0089,0.0498,-0.0140,-2.6122,1.4051,-3.0850
2024-10-11T12:32:04.003Z,-0.0027,-0.9946,0.1713,-0.0608,0.0720,-0.0386,0.0075,0.0481,-0.0131,-2.6122,1.4051,-3.0850
2024-10-11T12:32:04.013Z,-0.0053,-0.9935,0.1706,-0.0608,0.0720,-0.0386,0.0069,0.0449,-0.0124,-2.6122,1.4051,-3.0850
2024-10-11T12:32:04.023Z,-0.0053,-0.9935,0.1706,-0.0308,0.0574,-0.0761,0.0046,0.0415,-0.0131,-2.6100,1.4049,-3.0861
2024-10-11T12:32:04.033Z,-0.0060,-0.9919,0.1727,-0.0308,0.0574,-0.0761,0.0028,0.0408,-0.0116,-2.6100,1.4049,-3.0861
2024-10-11T12:32:04.043Z,-0.0076,-0.9915,0.1705,-0.0308,0.0574,-0.0761,-0.0012,0.0412,-0.0115,-2.6100,1.4049,-3.0861
2024-10-11T12:32:04.053Z,-0.0074,-0.9880,0.1704,-0.0156,0.0168,-0.0539,0.0012,0.0375,-0.0124,-2.6077,1.4049,-3.0874
2024-10-11T12:32:04.063Z,-0.0076,-0.9861,0.1720,-0.0156,0.0168,-0.0539,-0.0034,0.0396,-0.0142,-2.6077,1.4049,-3.0874
2024-10-11T12:32:04.074Z,-0.0088,-0.9847,0.1713,-0.0156,0.0168,-0.0539,-0.0020,0.0403,-0.0139,-2.6077,1.4049,-3.0874
2024-10-11T12:32:04.084Z,-0.0070,-0.9827,0.1712,-0.0167,-0.0346,-0.0623,-0.0042,0.0435,-0.0132,-2.6055,1.4049,-3.0886
2024-10-11T12:32:04.093Z,-0.0044,-0.9843,0.1709,-0.0167,-0.0346,-0.0623,-0.0069,0.0454,-0.0109,-2.6055,1.4049,-3.0886
2024-10-11T12:32:04.103Z,-0.0008,-0.9836,0.1705,-0.0167,-0.0346,-0.0623,-0.0071,0.0471,-0.0117,-2.6055,1.4049,-3.0886
2024-10-11T12:32:04.113Z,0.0023,-0.9834,0.1691,-0.1068,-0.0286,-0.0431,-0.0064,0.0496,-0.0078,-2.6036,1.4051,-3.0894
2024-10-11T12:32:04.123Z,0.0036,-0.9854,0.1708,-0.1068,-0.0286,-0.0431,-0.0071,0.0495,-0.0056,-2.6036,1.4051,-3.0894
2024-10-11T12:32:04.133Z,0.0047,-0.9881,0.1723,-0.1068,-0.0286,-0.0431,-0.0100,0.0532,-0.0047,-2.6036,1.4051,-3.0894
2024-10-11T12:32:04.143Z,0.0046,-0.9900,0.1701,-0.1302,0.0355,-0.0545,-0.0119,0.0516,-0.0042,-2.6027,1.4053,-3.0889
2024-10-11T12:32:04.153Z,0.0043,-0.9942,0.1715,-0.1302,0.0355,-0.0545,-0.0101,0.0519,-0.0021,-2.6027,1.4053,-3.0889
2024-10-11T12:32:04.163Z,0.0017,-0.9948,0.1716,-0.1302,0.0355,-0.0545,-0.0107,0.0520,0.0003,-2.6027,1.4053,-3.0889
2024-10-11T12:32:04.173Z,0.0007,-0.9929,0.1684,-0.0936,0.0638,-0.0408,-0.0081,0.0488,0.0005,-2.6025,1.4056,-3.0878
2024-10-11T12:32:04.183Z,0.0005,-0.9931,0.1669,-0.0936,0.0638,-0.0408,-0.0099,0.0469,0.0017,-2.6025,1.4056,-3.0878
2024-10-11T12:32:04.193Z,-0.0028,-0.9931,0.1668,-0.0936,0.0638,-0.0408,-0.0097,0.0444,0.0021,-2.6025,1.4056,-3.0878
2024-10-11T12:32:04.203Z,-0.0018,-0.9892,0.1660,-0.0713,0.0272,-0.0198,-0.0070,0.0416,0.0053,-2.6026,1.4058,-3.0866
2024-10-11T12:32:04.213Z,-0.0027,-0.9871,0.1679,-0.0713,0.0272,-0.0198,-0.0098,0.0410,0.0029,-2.6026,1.4058,-3.0866
2024-10-11T12:32:04.223Z,-0.0049,-0.9847,0.1678,-0.0713,0.0272,-0.0198,-0.0068,0.0322,0.0057,-2.6026,1.4058,-3.0866
2024-10-11T12:32:04.233Z,-0.0062,-0.9819,0.1708,-0.0300,-0.0450,-0.0684,-0.0081,0.0310,0.0043,-2.6033,1.4059,-3.0852
2024-10-11T12:32:04.243Z,-0.0070,-0.9797,0.1686,-0.0300,-0.0450,-0.0684,-0.0080,0.0263,0.0071,-2.6033,1.4059,-3.0852
2024-10-11T12:32:04.253Z,-0.0082,-0.9786,0.1684,-0.0300,-0.0450,-0.0684,-0.0101,0.0242,0.0065,-2.6033,1.4059,-3.0852
2024-10-11T12:32:04.263Z,-0.0065,-0.9794,0.1679,-0.0291,-0.0692,-0.0413,-0.0075,0.0224,0.0086,-2.6044,1.4061,-3.0836
2024-10-11T12:32:04.273Z,-0.0059,-0.9788,0.1670,-0.0291,-0.0692,-0.0413,-0.0085,0.0158,0.0110,-2.6044,1.4061,-3.0836
2024-10-11T12:32:04.283Z,-0.0058,-0.9768,0.1643,-0.0291,-0.0692,-0.0413,-0.0072,0.0163,0.0073,-2.6044,1.4061,-3.0836
2024-10-11T12:32:04.294Z,-0.0050,-0.9765,0.1607,-0.0472,-0.0985,0.0272,-0.0078,0.0117,0.0104,-2.6060,1.4063,-3.0818
2024-10-11T12:32:04.304Z,-0.0026,-0.9783,0.1582,-0.0472,-0.0985,0.0272,-0.0097,0.0100,0.0101,-2.6060,1.4063,-3.0818
2024-10-11T12:32:04.313Z,-0.0011,-0.9769,0.1568,-0.0472,-0.0985,0.0272,-0.0082,0.0048,0.0150,-2.6060,1.4063,-3.0818
2024-10-11T12:32:04.323Z,-0.0007,-0.9801,0.1578,-0.0929,-0.0635,0.0538,-0.0107,0.0019,0.0131,-2.6084,1.4065,-3.0795
2024-10-11T12:32:04.333Z,-0.0014,-0.9812,0.1560,-0.0929,-0.0635,0.0538,-0.0101,-0.0053,0.0112,-2.6084,1.4065,-3.0795
2024-10-11T12:32:04.343Z,-0.0027,-0.9830,0.1565,-0.0929,-0.0635,0.0538,-0.0077,-0.0091,0.0122,-2.6084,1.4065,-3.0795
2024-10-11T12:32:04.353Z,-0.0029,-0.9836,0.1578,-0.0746,-0.0286,0.0515,-0.0079,-0.0133,0.0135,-2.6110,1.4066,-3.0775
2024-10-11T12:32:04.363Z,-0.0021,-0.9842,0.1567,-0.0746,-0.0286,0.0515,-0.0051,-0.0215,0.0136,-2.6110,1.4066,-3.0775
2024-10-11T12:32:04.373Z,-0.0042,-0.9851,0.1569,-0.0746,-0.0286,0.0515,-0.0064,-0.0250,0.0134,-2.6110,1.4066,-3.0775
2024-10-11T12:32:04.383Z,-0.0011,-0.9850,0.1552,-0.0937,-0.0158,0.0762,-0.0059,-0.0286,0.0123,-2.6134,1.4068,-3.0760
2024-10-11T12:32:04.393Z,-0.0023,-0.9841,0.1539,-0.0937,-0.0158,0.0762,-0.0034,-0.0339,0.0128,-2.6134,1.4068,-3.0760
2024-10-11T12:32:04.403Z,-0.0004,-0.9831,0.1510,-0.0937,-0.0158,0.0762,-0.0031,-0.0391,0.0154,-2.6134,1.4068,-3.0760
2024-10-11T12:32:04.414Z,-0.0034,-0.9862,0.1506,-0.0735,-0.0034,0.1206,-0.0015,-0.0405,0.0138,-2.6158,1.4068,-3.0750
2024-10-11T12:32:04.423Z,-0.0048,-0.9890,0.1487,-0.0735,-0.0034,0.1206,-0.0003,-0.0415,0.0139,-2.6158,1.4068,-3.0750
2024-10-11T12:32:04.433Z,-0.0064,-0.9898,0.1473,-0.0735,-0.0034,0.1206,0.0038,-0.0442,0.0129,-2.6158,1.4068,-3.0750
2024-10-11T12:32:04.443Z,-0.0064,-0.9898,0.1473,-0.0331,0.0281,0.1400,0.0054,-0.0445,0.0124,-2.6178,1.4067,-3.0745
2024-10-11T12:32:04.453Z,-0.0097,-0.9909,0.1481,-0.0331,0.0281,0.1400,0.0089,-0.0446,0.0114,-2.6178,1.4067,-3.0745
2024-10-11T12:32:04.463Z,-0.0103,-0.9902,0.1486,-0.0331,0.0281,0.1400,0.0105,-0.0451,0.0097,-2.6178,1.4067,-3.0745
2024-10-11T12:32:04.474Z,-0.0107,-0.9889,0.1522,-0.0025,0.0231,0.1083,0.0109,-0.0461,0.0087,-2.6191,1.4065,-3.0748
2024-10-11T12:32:04.482Z,-0.0128,-0.9880,0.1539,-0.0025,0.0231,0.1083,0.0132,-0.0455,0.0073,-2.6191,1.4065,-3.0748
2024-10-11T12:32:04.492Z,-0.0105,-0.9884,0.1566,-0.0025,0.0231,0.1083,0.0105,-0.0468,0.0051,-2.6191,1.4065,-3.0748
2024-10-11T12:32:04.503Z,-0.0113,-0.9869,0.1596,0.0048,0.0037,0.0381,0.0111,-0.0429,0.0040,-2.6199,1.4062,-3.0757
2024-10-11T12:32:04.513Z,-0.0118,-0.9876,0.1602,0.0048,0.0037,0.0381,0.0133,-0.0431,0.0018,-2.6199,1.4062,-3.0757
2024-10-11T12:32:04.523Z,-0.0125,-0.9877,0.1620,0.0048,0.0037,0.0381,0.0120,-0.0366,0.0009,-2.6199,1.4062,-3.0757
2024-10-11T12:32:04.533Z,-0.0111,-0.9852,0.1692,0.0042,-0.0121,-0.0524,0.0104,-0.0373,-0.0002,-2.6202,1.4059,-3.0768
2024-10-11T12:32:04.542Z,-0.0085,-0.9849,0.1716,0.0042,-0.0121,-0.0524,0.0099,-0.0350,-0.0014,-2.6202,1.4059,-3.0768
2024-10-11T12:32:04.553Z,-0.0093,-0.9851,0.1714,0.0042,-0.0121,-0.0524,0.0073,-0.0339,-0.0051,-2.6202,1.4059,-3.0768
2024-10-11T12:32:04.563Z,-0.0102,-0.9841,0.1738,-0.0024,-0.0220,-0.0952,0.0063,-0.0317,-0.0038,-2.6202,1.4056,-3.0781
2024-10-11T12:32:04.573Z,-0.0111,-0.9835,0.1753,-0.0024,-0.0220,-0.0952,0.0068,-0.0313,-0.0065,-2.6202,1.4056,-3.0781
2024-10-11T12:32:04.583Z,-0.0095,-0.9849,0.1769,-0.0024,-0.0220,-0.0952,0.0045,-0.0322,-0.0077,-2.6202,1.4056,-3.0781
2024-10-11T12:32:04.592Z,-0.0085,-0.9846,0.1773,-0.0155,-0.0170,-0.1277,0.0029,-0.0305,-0.0052,-2.6194,1.4055,-3.0801
2024-10-11T12:32:04.603Z,-0.0104,-0.9853,0.1759,-0.0155,-0.0170,-0.1277,0.0000,-0.0303,-0.0067,-2.6194,1.4055,-3.0801
2024-10-11T12:32:04.613Z,-0.0100,-0.9856,0.1738,-0.0155,-0.0170,-0.1277,0.0017,-0.0325,-0.0052,-2.6194,1.4055,-3.0801
2024-10-11T12:32:04.623Z,-0.0089,-0.9875,0.1737,-0.0085,0.0111,-0.0920,-0.0017,-0.0289,-0.0072,-2.6184,1.4054,-3.0822
2024-10-11T12:32:04.633Z,-0.0077,-0.9878,0.1746,-0.0085,0.0111,-0.0920,-0.0038,-0.0312,-0.0048,-2.6184,1.4054,-3.0822
2024-10-11T12:32:04.642Z,-0.0077,-0.9889,0.1732,-0.0085,0.0111,-0.0920,-0.0060,-0.0288,-0.0061,-2.6184,1.4054,-3.0822
2024-10-11T12:32:04.652Z,-0.0078,-0.9917,0.1722,-0.0154,0.0520,-0.0782,-0.0061,-0.0288,-0.0082,-2.6173,1.4056,-3.0844
2024-10-11T12:32:04.663Z,-0.0058,-0.9943,0.1706,-0.0154,0.0520,-0.0782,-0.0072,-0.0292,-0.0069,-2.6173,1.4056,-3.0844
2024-10-11T12:32:04.673Z,-0.0052,-0.9948,0.1707,-0.0154,0.0520,-0.0782,-0.0095,-0.0300,-0.0061,-2.6173,1.4056,-3.0844
2024-10-11T12:32:04.683Z,-0.0041,-0.9976,0.1679,-0.0490,0.1100,-0.0384,-0.0105,-0.0315,-0.0071,-2.6164,1.4058,-3.0865
2024-10-11T12:32:04.692Z,-0.0035,-0.9978,0.1664,-0.0490,0.1100,-0.0384,-0.0105,-0.0355,-0.0057,-2.6164,1.4058,-3.0865
2024-10-11T12:32:04.703Z,-0.0015,-0.9971,0.1631,-0.0490,0.1100,-0.0384,-0.0129,-0.0336,-0.0063,-2.6164,1.4058,-3.0865
2024-10-11T12:32:04.713Z,-0.0009,-0.9982,0.1611,-0.0767,0.1153,0.0259,-0.0118,-0.0351,-0.0040,-2.6156,1.4061,-3.0885
2024-10-11T12:32:04.724Z,-0.0003,-1.0007,0.1600,-0.0767,0.1153,0.0259,-0.0098,-0.0383,-0.0008,-2.6156,1.4061,-3.0885
2024-10-11T12:32:04.733Z,0.0002,-0.9990,0.1591,-0.0767,0.1153,0.0259,-0.0127,-0.0380,-0.0044,-2.6156,1.4061,-3.0885
2024-10-11T12:32:04.743Z,-0.0007,-0.9979,0.1596,-0.0761,0.1115,0.0378,-0.0108,-0.0419,0.0004,-2.6155,1.4064,-3.0901
2024-10-11T12:32:04.752Z,-0.0015,-0.9965,0.1593,-0.0761,0.1115,0.0378,-0.0123,-0.0413,-0.0003,-2.6155,1.4064,-3.0901
2024-10-11T12:32:04.763Z,-0.0037,-0.9945,0.1601,-0.0761,0.1115,0.0378,-0.0133,-0.0388,-0.0018,-2.6155,1.4064,-3.0901
2024-10-11T12:32:04.773Z,-0.0044,-0.9932,0.1566,-0.0366,0.0653,0.0640,-0.0104,-0.0399,-0.0001,-2.6154,1.4067,-3.0916
2024-10-11T12:32:04.783Z,-0.0046,-0.9901,0.1577,-0.0366,0.0653,0.0640,-0.0136,-0.0408,-0.0005,-2.6154,1.4067,-3.0916
2024-10-11T12:32:04.793Z,-0.0043,-0.9891,0.1590,-0.0366,0.0653,0.0640,-0.0143,-0.0403,0.0002,-2.6154,1.4067,-3.0916
2024-10-11T12:32:04.803Z,-0.0047,-0.9863,0.1564,-0.0319,-0.0032,0.0628,-0.0134,-0.0411,0.0000,-2.6154,1.4071,-3.0931
2024-10-11T12:32:04.813Z,-0.0043,-0.9827,0.1548,-0.0319,-0.0032,0.0628,-0.0109,-0.0413,0.0007,-2.6154,1.4071,-3.0931
2024-10-11T12:32:04.823Z,-0.0063,-0.9812,0.1573,-0.0319,-0.0032,0.0628,-0.0107,-0.0381,0.0013,-2.6154,1.4071,-3.0931
2024-10-11T12:32:04.833Z,-0.0069,-0.9813,0.1588,-0.0081,-0.0527,0.0361,-0.0109,-0.0339,0.0039,-2.6159,1.4074,-3.0939
2024-10-11T12:32:04.843Z,-0.0067,-0.9834,0.1567,-0.0081,-0.0527,0.0361,-0.0110,-0.0311,0.0043,-2.6159,1.4074,-3.0939
2024-10-11T12:32:04.853Z,-0.0073,-0.9819,0.1574,-0.0081,-0.0527,0.0361,-0.0102,-0.0274,0.0062,-2.6159,1.4074,-3.0939
2024-10-11T12:32:04.863Z,-0.0063,-0.9814,0.1571,-0.0143,-0.0518,0.0497,-0.0106,-0.0243,0.0042,-2.6170,1.4077,-3.0940
2024-10-11T12:32:04.873Z,-0.0071,-0.9828,0.1582,-0.0143,-0.0518,0.0497,-0.0117,-0.0214,0.0061,-2.6170,1.4077,-3.0940
2024-10-11T12:32:04.883Z,-0.0102,-0.9825,0.1582,-0.0143,-0.0518,0.0497,-0.0094,-0.0177,0.0060,-2.6170,1.4077,-3.0940
2024-10-11T12:32:04.893Z,-0.0114,-0.9828,0.1595,0.0354,-0.0389,0.0243,-0.0077,-0.0150,0.0072,-2.6184,1.4079,-3.0934
2024-10-11T12:32:04.903Z,-0.0101,-0.9846,0.1618,0.0354,-0.0389,0.0243,-0.0051,-0.0178,0.0070,-2.6184,1.4079,-3.0934
2024-10-11T12:32:04.913Z,-0.0110,-0.9839,0.1647,0.0354,-0.0389,0.0243,-0.0061,-0.0146,0.0077,-2.6184,1.4079,-3.0934
2024-10-11T12:32:04.923Z,-0.0109,-0.9842,0.1662,0.0295,-0.0255,-0.0431,-0.0057,-0.0125,0.0095,-2.6200,1.4081,-3.0926
2024-10-11T12:32:04.933Z,-0.0120,-0.9850,0.1680,0.0295,-0.0255,-0.0431,-0.0067,-0.0167,0.0076,-2.6200,1.4081,-3.0926
2024-10-11T12:32:04.943Z,-0.0134,-0.9844,0.1679,0.0295,-0.0255,-0.0431,-0.0050,-0.0126,0.0069,-2.6200,1.4081,-3.0926
2024-10-11T12:32:04.953Z,-0.0126,-0.9822,0.1692,0.0443,-0.0450,-0.0741,-0.0077,-0.0158,0.0093,-2.6219,1.4083,-3.0914
2024-10-11T12:32:04.963Z,-0.0110,-0.9813,0.1694,0.0443,-0.0450,-0.0741,-0.0082,-0.0131,0.0089,-2.6219,1.4083,-3.0914
2024-10-11T12:32:04.973Z,-0.0106,-0.9814,0.1673,0.0443,-0.0450,-0.0741,-0.0063,-0.0142,0.0113,-2.6219,1.4083,-3.0914
2024-10-11T12:32:04.983Z,-0.0106,-0.9827,0.1647,0.0220,-0.0411,-0.0323,-0.0075,-0.0104,0.0102,-2.6240,1.4085,-3.0899
2024-10-11T12:32:04.992Z,-0.0105,-0.9816,0.1625,0.0220,-0.0411,-0.0323,-0.0084,-0.0103,0.0091,-2.6240,1.4085,-3.0899
2024-10-11T12:32:05.003Z,-0.0130,-0.9806,0.1601,0.0220,-0.0411,-0.0323,-0.0073,-0.0080,0.0113,-2.6240,1.4085,-3.0899
2024-10-11T12:32:05.013Z,-0.0122,-0.9788,0.1580,0.0351,-0.0795,0.0314,-0.0089,-0.0058,0.0123,-2.6266,1.4086,-3.0879
2024-10-11T12:32:05.023Z,-0.0135,-0.9781,0.1568,0.0351,-0.0795,0.0314,-0.0068,-0.0038,0.0108,-2.6266,1.4086,-3.0879
2024-10-11T12:32:05.033Z,-0.0114,-0.9774,0.1560,0.0351,-0.0795,0.0314,-0.0036,-0.0064,0.0134,-2.6266,1.4086,-3.0879
2024-10-11T12:32:05.043Z,-0.0129,-0.9766,0.1559,0.0384,-0.1013,0.0508,-0.0057,-0.0062,0.0133,-2.6292,1.4087,-3.0857
2024-10-11T12:32:05.053Z,-0.0149,-0.9768,0.1577,0.0384,-0.1013,0.0508,-0.0033,-0.0049,0.0119,-2.6292,1.4087,-3.0857
2024-10-11T12:32:05.063Z,-0.0138,-0.9788,0.1550,0.0384,-0.1013,0.0508,-0.0040,-0.0042,0.0122,-2.6292,1.4087,-3.0857
2024-10-11T12:32:05.073Z,-0.0145,-0.9796,0.1539,0.0504,-0.0715,0.0697,-0.0029,-0.0025,0.0119,-2.6319,1.4088,-3.0835
2024-10-11T12:32:05.083Z,-0.0192,-0.9810,0.1540,0.0504,-0.0715,0.0697,-0.0047,-0.0014,0.0119,-2.6319,1.4088,-3.0835
2024-10-11T12:32:05.092Z,-0.0206,-0.9833,0.1522,0.0504,-0.0715,0.0697,-0.0044,-0.0009,0.0121,-2.6319,1.4088,-3.0835
2024-10-11T12:32:05.103Z,-0.0209,-0.9857,0.1514,0.1098,-0.0116,0.0933,-0.0028,0.0011,0.0123,-2.6343,1.4089,-3.0813
2024-10-11T12:32:05.113Z,-0.0212,-0.9828,0.1531,0.1098,-0.0116,0.0933,0.0003,-0.0001,0.0096,-2.6343,1.4089,-3.0813
2024-10-11T12:32:05.123Z,-0.0215,-0.9848,0.1542,0.1098,-0.0116,0.0933,-0.0004,0.0020,0.0127,-2.6343,1.4089,-3.0813
2024-10-11T12:32:05.133Z,-0.0234,-0.9859,0.1539,0.1311,-0.0097,0.0687,-0.0014,0.0068,0.0083,-2.6365,1.4089,-3.0793
2024-10-11T12:32:05.142Z,-0.0216,-0.9856,0.1551,0.1311,-0.0097,0.0687,0.0011,0.0065,0.0054,-2.6365,1.4089,-3.0793
2024-10-11T12:32:05.153Z,-0.0220,-0.9862,0.1555,0.1311,-0.0097,0.0687,0.0025,0.0095,0.0082,-2.6365,1.4089,-3.0793
2024-10-11T12:32:05.163Z,-0.0226,-0.9891,0.1541,0.1200,0.0211,0.0676,0.0043,0.0097,0.0080,-2.6383,1.4088,-3.0775
2024-10-11T12:32:05.174Z,-0.0209,-0.9906,0.1546,0.1200,0.0211,0.0676,0.0075,0.0117,0.0059,-2.6383,1.4088,-3.0775
2024-10-11T12:32:05.184Z,-0.0205,-0.9941,0.1552,0.1200,0.0211,0.0676,0.0061,0.0136,0.0058,-2.6383,1.4088,-3.0775
2024-10-11T12:32:05.192Z,-0.0240,-0.9930,0.1524,0.1313,0.0596,0.0860,0.0067,0.0153,0.0066,-2.6399,1.4086,-3.0759
2024-10-11T12:32:05.203Z,-0.0261,-0.9930,0.1515,0.1313,0.0596,0.0860,0.0132,0.0156,0.0046,-2.6399,1.4086,-3.0759
2024-10-11T12:32:05.213Z,-0.0251,-0.9898,0.1509,0.1313,0.0596,0.0860,0.0099,0.0158,0.0017,-2.6399,1.4086,-3.0759
2024-10-11T12:32:05.224Z,-0.0235,-0.9883,0.1494,0.1241,0.0141,0.1180,0.0112,0.0192,0.0025,-2.6408,1.4083,-3.0748
2024-10-11T12:32:05.233Z,-0.0243,-0.9865,0.1536,0.1241,0.0141,0.1180,0.0096,0.0177,0.0013,-2.6408,1.4083,-3.0748
2024-10-11T12:32:05.243Z,-0.0210,-0.9819,0.1530,0.1241,0.0141,0.1180,0.0117,0.0203,0.0013,-2.6408,1.4083,-3.0748
2024-10-11T12:32:05.253Z,-0.0201,-0.9802,0.1519,0.0896,-0.0649,0.0959,0.0103,0.0226,-0.0014,-2.6415,1.4080,-3.0737
2024-10-11T12:32:05.263Z,-0.0189,-0.9778,0.1534,0.0896,-0.0649,0.0959,0.0130,0.0241,0.0004,-2.6415,1.4080,-3.0737
2024-10-11T12:32:05.273Z,-0.0178,-0.9749,0.1529,0.0896,-0.0649,0.0959,0.0124,0.0261,0.0012,-2.6415,1.4080,-3.0737
2024-10-11T12:32:05.283Z,-0.0186,-0.9762,0.1526,0.0731,-0.1033,0.0921,0.0132,0.0285,-0.0003,-2.6417,1.4077,-3.0730
2024-10-11T12:32:05.293Z,-0.0185,-0.9766,0.1532,0.0731,-0.1033,0.0921,0.0106,0.0304,-0.0023,-2.6417,1.4077,-3.0730
2024-10-11T12:32:05.303Z,-0.0197,-0.9780,0.1528,0.0731,-0.1033,0.0921,0.0153,0.0331,-0.0010,-2.6417,1.4077,-3.0730
2024-10-11T12:32:05.313Z,-0.0210,-0.9794,0.1516,0.0951,-0.0717,0.1061,0.0117,0.0364,-0.0026,-2.6418,1.4073,-3.0721
2024-10-11T12:32:05.324Z,-0.0185,-0.9808,0.1553,0.0951,-0.0717,0.1061,0.0150,0.0399,-0.0028,-2.6418,1.4073,-3.0721
2024-10-11T12:32:05.333Z,-0.0203,-0.9828,0.1576,0.0951,-0.0717,0.1061,0.0132,0.0424,-0.0030,-2.6418,1.4073,-3.0721
2024-10-11T12:32:05.343Z,-0.0188,-0.9849,0.1575,0.0717,-0.0163,0.0517,0.0133,0.0437,-0.0041,-2.6416,1.4069,-3.0714
2024-10-11T12:32:05.353Z,-0.0187,-0.9874,0.1604,0.0717,-0.0163,0.0517,0.0127,0.0477,-0.0043,-2.6416,1.4069,-3.0714
2024-10-11T12:32:05.363Z,-0.0206,-0.9891,0.1618,0.0717,-0.0163,0.0517,0.0131,0.0493,-0.0038,-2.6416,1.4069,-3.0714
2024-10-11T12:32:05.374Z,-0.0188,-0.9930,0.1584,0.0708,0.0630,0.0459,0.0119,0.0509,-0.0048,-2.6410,1.4066,-3.0708
2024-10-11T12:32:05.383Z,-0.0187,-0.9931,0.1571,0.0708,0.0630,0.0459,0.0120,0.0518,-0.0063,-2.6410,1.4066,-3.0708
2024-10-11T12:32:05.394Z,-0.0152,-0.9935,0.1583,0.0708,0.0630,0.0459,0.0098,0.0538,-0.0061,-2.6410,1.4066,-3.0708
2024-10-11T12:32:05.404Z,-0.0146,-0.9944,0.1592,0.0289,0.0772,0.0407,0.0117,0.0564,-0.0064,-2.6400,1.4063,-3.0704
2024-10-11T12:32:05.413Z,-0.0150,-0.9949,0.1617,0.0289,0.0772,0.0407,0.0099,0.0546,-0.0056,-2.6400,1.4063,-3.0704
2024-10-11T12:32:05.425Z,-0.0140,-0.9956,0.1643,0.0289,0.0772,0.0407,0.0088,0.0553,-0.0071,-2.6400,1.4063,-3.0704
2024-10-11T12:32:05.433Z,-0.0143,-0.9958,0.1646,0.0252,0.0919,-0.0099,0.0077,0.0545,-0.0084,-2.6391,1.4060,-3.0699
2024-10-11T12:32:05.443Z,-0.0123,-0.9954,0.1663,0.0252,0.0919,-0.0099,0.0070,0.0523,-0.0066,-2.6391,1.4060,-3.0699
2024-10-11T12:32:05.453Z,-0.0107,-0.9953,0.1700,0.0252,0.0919,-0.0099,0.0052,0.0535,-0.0050,-2.6391,1.4060,-3.0699
2024-10-11T12:32:05.463Z,-0.0118,-0.9951,0.1695,-0.0005,0.0850,-0.0567,0.0022,0.0515,-0.0067,-2.6382,1.4059,-3.0695
2024-10-11T12:32:05.474Z,-0.0102,-0.9951,0.1689,-0.0005,0.0850,-0.0567,0.0017,0.0501,-0.0066,-2.6382,1.4059,-3.0695
2024-10-11T12:32:05.483Z,-0.0099,-0.9940,0.1694,-0.0005,0.0850,-0.0567,0.0011,0.0479,-0.0040,-2.6382,1.4059,-3.0695
2024-10-11T12:32:05.492Z,-0.0098,-0.9942,0.1680,-0.0205,0.0758,-0.0412,-0.0014,0.0525,-0.0071,-2.6374,1.4058,-3.0690
2024-10-11T12:32:05.503Z,-0.0108,-0.9934,0.1699,-0.0205,0.0758,-0.0412,-0.0034,0.0495,-0.0056,-2.6374,1.4058,-3.0690
2024-10-11T12:32:05.513Z,-0.0117,-0.9938,0.1708,-0.0205,0.0758,-0.0412,-0.0032,0.0503,-0.0042,-2.6374,1.4058,-3.0690
2024-10-11T12:32:05.524Z,-0.0094,-0.9957,0.1690,-0.0250,0.0906,-0.0522,-0.0039,0.0500,-0.0038,-2.6365,1.4059,-3.0687
2024-10-11T12:32:05.533Z,-0.0104,-0.9962,0.1659,-0.0250,0.0906,-0.0522,-0.0028,0.0480,-0.0064,-2.6365,1.4059,-3.0687
2024-10-11T12:32:05.543Z,-0.0071,-0.9956,0.1660,-0.0250,0.0906,-0.0522,-0.0050,0.0465,-0.0049,-2.6365,1.4059,-3.0687
2024-10-11T12:32:05.553Z,-0.0067,-0.9974,0.1643,-0.0521,0.1070,-0.0063,-0.0068,0.0423,-0.0035,-2.6357,1.4060,-3.0683
2024-10-11T12:32:05.563Z,-0.0055,-0.9962,0.1617,-0.0521,0.1070,-0.0063,-0.0060,0.0436,-0.0038,-2.6357,1.4060,-3.0683
2024-10-11T12:32:05.574Z,-0.0054,-0.9962,0.1622,-0.0521,0.1070,-0.0063,-0.0033,0.0378,-0.0018,-2.6357,1.4060,-3.0683
2024-10-11T12:32:05.583Z,-0.0047,-0.9946,0.1623,-0.0725,0.0794,0.0125,-0.0053,0.0413,-0.0029,-2.6352,1.4061,-3.0678
2024-10-11T12:32:05.593Z,-0.0047,-0.9914,0.1621,-0.0725,0.0794,0.0125,-0.0062,0.0401,-0.0057,-2.6352,1.4061,-3.0678
2024-10-11T12:32:05.603Z,-0.0067,-0.9894,0.1626,-0.0725,0.0794,0.0125,-0.0032,0.0389,-0.0026,-2.6352,1.4061,-3.0678
2024-10-11T12:32:05.613Z,-0.0046,-0.9869,0.1628,-0.0741,0.0044,0.0068,-0.0066,0.0359,-0.0023,-2.6349,1.4062,-3.0673
2024-10-11T12:32:05.625Z,-0.0045,-0.9836,0.1628,-0.0741,0.0044,0.0068,-0.0058,0.0340,-0.0036,-2.6349,1.4062,-3.0673
2024-10-11T12:32:05.633Z,-0.0077,-0.9809,0.1652,-0.0741,0.0044,0.0068,-0.0097,0.0335,-0.0032,-2.6349,1.4062,-3.0673
2024-10-11T12:32:05.643Z,-0.0067,-0.9813,0.1665,-0.0542,-0.0514,-0.0313,-0.0052,0.0272,-0.0016,-2.6348,1.4063,-3.0666
2024-10-11T12:32:05.653Z,-0.0059,-0.9795,0.1667,-0.0542,-0.0514,-0.0313,-0.0062,0.0262,0.0023,-2.6348,1.4063,-3.0666
2024-10-11T12:32:05.663Z,-0.0070,-0.9769,0.1647,-0.0542,-0.0514,-0.0313,-0.0053,0.0245,-0.0010,-2.6348,1.4063,-3.0666
2024-10-11T12:32:05.674Z,-0.0048,-0.9758,0.1626,-0.0739,-0.1050,0.0051,-0.0069,0.0221,-0.0009,-2.6349,1.4065,-3.0660
2024-10-11T12:32:05.683Z,-0.0054,-0.9756,0.1606,-0.0739,-0.1050,0.0051,-0.0044,0.0237,0.0005,-2.6349,1.4065,-3.0660
2024-10-11T12:32:05.693Z,-0.0059,-0.9754,0.1594,-0.0739,-0.1050,0.0051,-0.0051,0.0236,0.0003,-2.6349,1.4065,-3.0660
2024-10-11T12:32:05.703Z,-0.0058,-0.9751,0.1574,-0.0653,-0.1127,0.0543,-0.0039,0.0211,-0.0012,-2.6349,1.4066,-3.0655
2024-10-11T12:32:05.713Z,-0.0080,-0.9773,0.1558,-0.0653,-0.1127,0.0543,-0.0003,0.0179,0.0022,-2.6349,1.4066,-3.0655
2024-10-11T12:32:05.724Z,-0.0098,-0.9781,0.1564,-0.0653,-0.1127,0.0543,-0.0006,0.0165,0.0006,-2.6349,1.4066,-3.0655
2024-10-11T12:32:05.733Z,-0.0113,-0.9783,0.1562,-0.0123,-0.0812,0.0660,0.0022,0.0154,0.0001,-2.6352,1.4066,-3.0649
2024-10-11T12:32:05.743Z,-0.0128,-0.9806,0.1556,-0.0123,-0.0812,0.0660,-0.0015,0.0124,-0.0011,-2.6352,1.4066,-3.0649
2024-10-11T12:32:05.753Z,-0.0126,-0.9822,0.1553,-0.0123,-0.0812,0.0660,0.0025,0.0121,0.0004,-2.6352,1.4066,-3.0649
2024-10-11T12:32:05.763Z,-0.0130,-0.9853,0.1577,0.0052,-0.0121,0.0529,0.0041,0.0094,-0.0022,-2.6350,1.4065,-3.0650
2024-10-11T12:32:05.773Z,-0.0165,-0.9876,0.1552,0.0052,-0.0121,0.0529,0.0028,0.0130,-0.0032,-2.6350,1.4065,-3.0650
2024-10-11T12:32:05.783Z,-0.0146,-0.9877,0.1584,0.0052,-0.0121,0.0529,0.0053,0.0107,-0.0040,-2.6350,1.4065,-3.0650
2024-10-11T12:32:05.793Z,-0.0144,-0.9894,0.1610,0.0196,0.0279,0.0213,0.0071,0.0077,-0.0023,-2.6342,1.4064,-3.0657
2024-10-11T12:32:05.803Z,-0.0161,-0.9889,0.1643,0.0196,0.0279,0.0213,0.0058,0.0075,-0.0048,-2.6342,1.4064,-3.0657
2024-10-11T12:32:05.813Z,-0.0167,-0.9898,0.1676,0.0196,0.0279,0.0213,0.0028,0.0062,-0.0053,-2.6342,1.4064,-3.0657
2024-10-11T12:32:05.823Z,-0.0150,-0.9909,0.1671,0.0272,0.0431,-0.0367,0.0069,0.0067,-0.0055,-2.6333,1.4063,-3.0667
2024-10-11T12:32:05.833Z,-0.0155,-0.9920,0.1683,0.0272,0.0431,-0.0367,0.0062,0.0018,-0.0050,-2.6333,1.4063,-3.0667
2024-10-11T12:32:05.843Z,-0.0160,-0.9908,0.1675,0.0272,0.0431,-0.0367,0.0006,0.0064,-0.0064,-2.6333,1.4063,-3.0667
2024-10-11T12:32:05.853Z,-0.0160,-0.9887,0.1673,0.0381,0.0223,-0.0372,0.0048,0.0065,-0.0059,-2.6322,1.4061,-3.0678
2024-10-11T12:32:05.863Z,-0.0170,-0.9893,0.1663,0.0381,0.0223,-0.0372,0.0019,0.0095,-0.0078,-2.6322,1.4061,-3.0678
2024-10-11T12:32:05.873Z,-0.0182,-0.9883,0.1676,0.0381,0.0223,-0.0372,-0.0010,0.0107,-0.0086,-2.6322,1.4061,-3.0678
2024-10-11T12:32:05.883Z,-0.0165,-0.9875,0.1629,0.0454,0.0100,0.0065,0.0010,0.0149,-0.0117,-2.6308,1.4061,-3.0691
2024-10-11T12:32:05.893Z,-0.0161,-0.9852,0.1641,0.0454,0.0100,0.0065,0.0002,0.0130,-0.0106,-2.6308,1.4061,-3.0691
2024-10-11T12:32:05.903Z,-0.0153,-0.9847,0.1625,0.0454,0.0100,0.0065,0.0012,0.0145,-0.0111,-2.6308,1.4061,-3.0691
2024-10-11T12:32:05.913Z,-0.0160,-0.9851,0.1631,0.0427,-0.0137,0.0048,0.0005,0.0145,-0.0133,-2.6291,1.4061,-3.0707
2024-10-11T12:32:05.923Z,-0.0152,-0.9864,0.1613,0.0427,-0.0137,0.0048,0.0002,0.0160,-0.0140,-2.6291,1.4061,-3.0707
2024-10-11T12:32:05.933Z,-0.0149,-0.9846,0.1588,0.0427,-0.0137,0.0048,0.0019,0.0182,-0.0160,-2.6291,1.4061,-3.0707
2024-10-11T12:32:05.942Z,-0.0158,-0.9852,0.1596,0.0444,-0.0126,0.0402,0.0030,0.0150,-0.0184,-2.6269,1.4060,-3.0726
2024-10-11T12:32:05.953Z,-0.0163,-0.9864,0.1587,0.0444,-0.0126,0.0402,0.0043,0.0156,-0.0183,-2.6269,1.4060,-3.0726
2024-10-11T12:32:05.963Z,-0.0147,-0.9852,0.1578,0.0444,-0.0126,0.0402,0.0068,0.0145,-0.0189,-2.6269,1.4060,-3.0726
2024-10-11T12:32:05.973Z,-0.0155,-0.9853,0.1553,0.0452,-0.0109,0.0838,0.0078,0.0138,-0.0185,-2.6240,1.4058,-3.0753
2024-10-11T12:32:05.983Z,-0.0133,-0.9846,0.1524,0.0452,-0.0109,0.0838,0.0088,0.0122,-0.0211,-2.6240,1.4058,-3.0753
2024-10-11T12:32:05.992Z,-0.0118,-0.9839,0.1544,0.0452,-0.0109,0.0838,0.0104,0.0121,-0.0196,-2.6240,1.4058,-3.0753
2024-10-11T12:32:06.003Z,-0.0103,-0.9837,0.1573,-0.0008,-0.0261,0.0679,0.0099,0.0128,-0.0203,-2.6205,1.4055,-3.0786
2024-10-11T12:32:06.012Z,-0.0091,-0.9822,0.1598,-0.0008,-0.0261,0.0679,0.0127,0.0105,-0.0191,-2.6205,1.4055,-3.0786
2024-10-11T12:32:06.023Z,-0.0106,-0.9831,0.1652,-0.0008,-0.0261,0.0679,0.0062,0.0110,-0.0195,-2.6205,1.4055,-3.0786
2024-10-11T12:32:06.033Z,-0.0127,-0.9817,0.1732,0.0277,-0.0457,-0.0863,0.0074,0.0116,-0.0176,-2.6172,1.4053,-3.0818
2024-10-11T12:32:06.043Z,-0.0140,-0.9825,0.1754,0.0277,-0.0457,-0.0863,0.0055,0.0091,-0.0207,-2.6172,1.4053,-3.0818
2024-10-11T12:32:06.053Z,-0.0155,-0.9825,0.1737,0.0277,-0.0457,-0.0863,0.0052,0.0122,-0.0186,-2.6172,1.4053,-3.0818
2024-10-11T12:32:06.064Z,-0.0157,-0.9835,0.1729,0.0620,-0.0275,-0.0808,0.0079,0.0124,-0.0178,-2.6139,1.4051,-3.0850
2024-10-11T12:32:06.073Z,-0.0143,-0.9833,0.1745,0.0620,-0.0275,-0.0808,0.0034,0.0160,-0.0178,-2.6139,1.4051,-3.0850
2024-10-11T12:32:06.083Z,-0.0173,-0.9832,0.1718,0.0620,-0.0275,-0.0808,0.0051,0.0173,-0.0211,-2.6139,1.4051,-3.0850
2024-10-11T12:32:06.092Z,-0.0158,-0.9830,0.1723,0.0680,-0.0320,-0.0734,0.0017,0.0170,-0.0200,-2.6105,1.4050,-3.0881
2024-10-11T12:32:06.103Z,-0.0142,-0.9839,0.1700,0.0680,-0.0320,-0.0734,0.0050,0.0185,-0.0202,-2.6105,1.4050,-3.0881
2024-10-11T12:32:06.113Z,-0.0095,-0.9848,0.1687,0.0680,-0.0320,-0.0734,0.0028,0.0222,-0.0187,-2.6105,1.4050,-3.0881
2024-10-11T12:32:06.123Z,-0.0083,-0.9871,0.1681,-0.0006,0.0080,-0.0308,0.0016,0.0171,-0.0186,-2.6074,1.4049,-3.0908
2024-10-11T12:32:06.133Z,-0.0084,-0.9879,0.1665,-0.0006,0.0080,-0.0308,0.0014,0.0197,-0.0144,-2.6074,1.4049,-3.0908
2024-10-11T12:32:06.142Z,-0.0088,-0.9870,0.1664,-0.0006,0.0080,-0.0308,0.0024,0.0202,-0.0159,-2.6074,1.4049,-3.0908
2024-10-11T12:32:06.153Z,-0.0069,-0.9882,0.1675,-0.0109,0.0189,-0.0238,0.0031,0.0209,-0.0140,-2.6050,1.4047,-3.0929
2024-10-11T12:32:06.163Z,-0.0078,-0.9900,0.1684,-0.0109,0.0189,-0.0238,0.0022,0.0224,-0.0151,-2.6050,1.4047,-3.0929
2024-10-11T12:32:06.173Z,-0.0087,-0.9902,0.1690,-0.0109,0.0189,-0.0238,0.0020,0.0225,-0.0137,-2.6050,1.4047,-3.0929
2024-10-11T12:32:06.183Z,-0.0085,-0.9908,0.1705,0.0061,0.0448,-0.0516,0.0034,0.0227,-0.0117,-2.6032,1.4046,-3.0942
2024-10-11T12:32:06.192Z,-0.0070,-0.9915,0.1692,0.0061,0.0448,-0.0516,0.0009,0.0207,-0.0129,-2.6032,1.4046,-3.0942
2024-10-11T12:32:06.203Z,-0.0072,-0.9921,0.1652,0.0061,0.0448,-0.0516,0.0002,0.0236,-0.0126,-2.6032,1.4046,-3.0942
2024-10-11T12:32:06.213Z,-0.0088,-0.9941,0.1647,0.0122,0.0771,0.0065,0.0005,0.0244,-0.0120,-2.6012,1.4045,-3.0957
2024-10-11T12:32:06.223Z,-0.0080,-0.9942,0.1637,0.0122,0.0771,0.0065,-0.0004,0.0242,-0.0095,-2.6012,1.4045,-3.0957
2024-10-11T12:32:06.233Z,-0.0079,-0.9936,0.1657,0.0122,0.0771,0.0065,-0.0010,0.0257,-0.0118,-2.6012,1.4045,-3.0957
2024-10-11T12:32:06.243Z,-0.0096,-0.9929,0.1680,0.0216,0.0654,-0.0264,-0.0046,0.0244,-0.0083,-2.5993,1.4045,-3.0972
2024-10-11T12:32:06.253Z,-0.0106,-0.9912,0.1699,0.0216,0.0654,-0.0264,-0.0022,0.0216,-0.0106,-2.5993,1.4045,-3.0972
2024-10-11T12:32:06.263Z,-0.0069,-0.9894,0.1695,0.0216,0.0654,-0.0264,-0.0089,0.0243,-0.0102,-2.5993,1.4045,-3.0972
2024-10-11T12:32:06.273Z,-0.0079,-0.9887,0.1701,0.0068,0.0240,-0.0471,-0.0061,0.0258,-0.0094,-2.5977,1.4046,-3.0983
2024-10-11T12:32:06.283Z,-0.0083,-0.9870,0.1690,0.0068,0.0240,-0.0471,-0.0053,0.0237,-0.0077,-2.5977,1.4046,-3.0983
2024-10-11T12:32:06.293Z,-0.0072,-0.9865,0.1679,0.0068,0.0240,-0.0471,-0.0069,0.0263,-0.0075,-2.5977,1.4046,-3.0983
2024-10-11T12:32:06.303Z,-0.0065,-0.9870,0.1669,-0.0057,0.0071,-0.0177,-0.0080,0.0270,-0.0068,-2.5967,1.4048,-3.0987
2024-10-11T12:32:06.313Z,-0.0045,-0.9876,0.1665,-0.0057,0.0071,-0.0177,-0.0109,0.0278,-0.0050,-2.5967,1.4048,-3.0987
2024-10-11T12:32:06.323Z,-0.0047,-0.9861,0.1696,-0.0057,0.0071,-0.0177,-0.0115,0.0297,-0.0066,-2.5967,1.4048,-3.0987
2024-10-11T12:32:06.333Z,-0.0051,-0.9865,0.1699,-0.0192,0.0022,-0.0502,-0.0123,0.0281,-0.0028,-2.5963,1.4051,-3.0985
2024-10-11T12:32:06.343Z,-0.0052,-0.9871,0.1663,-0.0192,0.0022,-0.0502,-0.0110,0.0288,-0.0022,-2.5963,1.4051,-3.0985
2024-10-11T12:32:06.353Z,-0.0053,-0.9869,0.1625,-0.0192,0.0022,-0.0502,-0.0119,0.0282,-0.0027,-2.5963,1.4051,-3.0985
2024-10-11T12:32:06.363Z,-0.0057,-0.9859,0.1642,-0.0147,-0.0042,0.0036,-0.0148,0.0282,-0.0017,-2.5960,1.4054,-3.0981
2024-10-11T12:32:06.373Z,-0.0073,-0.9866,0.1638,-0.0147,-0.0042,0.0036,-0.0126,0.0310,-0.0026,-2.5960,1.4054,-3.0981
2024-10-11T12:32:06.383Z,-0.0081,-0.9864,0.1659,-0.0147,-0.0042,0.0036,-0.0113,0.0297,-0.0007,-2.5960,1.4054,-3.0981
2024-10-11T12:32:06.393Z,-0.0059,-0.9856,0.1638,-0.0127,-0.0079,0.0040,-0.0145,0.0288,-0.0035,-2.5956,1.4057,-3.0979
2024-10-11T12:32:06.403Z,-0.0083,-0.9845,0.1635,-0.0127,-0.0079,0.0040,-0.0145,0.0325,-0.0033,-2.5956,1.4057,-3.0979
2024-10-11T12:32:06.413Z,-0.0085,-0.9841,0.1626,-0.0127,-0.0079,0.0040,-0.0137,0.0328,-0.0034,-2.5956,1.4057,-3.0979
2024-10-11T12:32:06.423Z,-0.0052,-0.9861,0.1618,-0.0198,-0.0037,0.0210,-0.0145,0.0329,-0.0048,-2.5950,1.4060,-3.0978
2024-10-11T12:32:06.433Z,-0.0057,-0.9872,0.1602,-0.0198,-0.0037,0.0210,-0.0098,0.0322,-0.0022,-2.5950,1.4060,-3.0978
2024-10-11T12:32:06.443Z,-0.0055,-0.9852,0.1604,-0.0198,-0.0037,0.0210,-0.0117,0.0353,-0.0029,-2.5950,1.4060,-3.0978
2024-10-11T12:32:06.453Z,-0.0045,-0.9863,0.1616,-0.0272,-0.0023,0.0193,-0.0101,0.0327,-0.0018,-2.5948,1.4063,-3.0972
2024-10-11T12:32:06.463Z,-0.0042,-0.9852,0.1638,-0.0272,-0.0023,0.0193,-0.0086,0.0354,-0.0026,-2.5948,1.4063,-3.0972
2024-10-11T12:32:06.473Z,-0.0039,-0.9855,0.1639,-0.0272,-0.0023,0.0193,-0.0108,0.0359,-0.0026,-2.5948,1.4063,-3.0972
2024-10-11T12:32:06.483Z,-0.0032,-0.9854,0.1637,-0.0411,-0.0115,-0.0040,-0.0104,0.0358,-0.0016,-2.5947,1.4066,-3.0965
2024-10-11T12:32:06.493Z,-0.0022,-0.9831,0.1622,-0.0411,-0.0115,-0.0040,-0.0072,0.0387,-0.0009,-2.5947,1.4066,-3.0965
2024-10-11T12:32:06.504Z,-0.0019,-0.9810,0.1615,-0.0411,-0.0115,-0.0040,-0.0091,0.0357,-0.0009,-2.5947,1.4066,-3.0965
2024-10-11T12:32:06.513Z,-0.0032,-0.9808,0.1620,-0.0420,-0.0571,0.0099,-0.0050,0.0386,-0.0010,-2.5945,1.4069,-3.0959
2024-10-11T12:32:06.523Z,-0.0037,-0.9786,0.1623,-0.0420,-0.0571,0.0099,-0.0076,0.0400,-0.0047,-2.5945,1.4069,-3.0959
2024-10-11T12:32:06.533Z,-0.0024,-0.9809,0.1617,-0.0420,-0.0571,0.0099,-0.0061,0.0421,-0.0016,-2.5945,1.4069,-3.0959
2024-10-11T12:32:06.543Z,-0.0025,-0.9812,0.1590,-0.0488,-0.0535,0.0375,-0.0039,0.0421,0.0001,-2.5938,1.4071,-3.0956
2024-10-11T12:32:06.553Z,-0.0030,-0.9836,0.1584,-0.0488,-0.0535,0.0375,-0.0057,0.0465,-0.0010,-2.5938,1.4071,-3.0956
2024-10-11T12:32:06.563Z,-0.0034,-0.9853,0.1569,-0.0488,-0.0535,0.0375,-0.0022,0.0435,0.0005,-2.5938,1.4071,-3.0956
2024-10-11T12:32:06.573Z,-0.0027,-0.9846,0.1588,-0.0473,-0.0198,0.0390,-0.0012,0.0441,-0.0020,-2.5931,1.4071,-3.0952
2024-10-11T12:32:06.583Z,-0.0053,-0.9834,0.1579,-0.0473,-0.0198,0.0390,-0.0003,0.0481,-0.0037,-2.5931,1.4071,-3.0952
2024-10-11T12:32:06.593Z,-0.0044,-0.9852,0.1580,-0.0473,-0.0198,0.0390,0.0033,0.0444,-0.0010,-2.5931,1.4071,-3.0952
2024-10-11T12:32:06.603Z,-0.0045,-0.9851,0.1589,-0.0303,-0.0152,0.0387,0.0052,0.0434,-0.0013,-2.5921,1.4070,-3.0952
2024-10-11T12:32:06.612Z,-0.0040,-0.9857,0.1617,-0.0303,-0.0152,0.0387,0.0050,0.0427,-0.0037,-2.5921,1.4070,-3.0952
2024-10-11T12:32:06.623Z,-0.0060,-0.9858,0.1627,-0.0303,-0.0152,0.0387,0.0045,0.0418,-0.0057,-2.5921,1.4070,-3.0952
2024-10-11T12:32:06.633Z,-0.0063,-0.9858,0.1631,-0.0113,-0.0083,-0.0012,0.0078,0.0394,-0.0035,-2.5906,1.4069,-3.0956
2024-10-11T12:32:06.643Z,-0.0058,-0.9858,0.1611,-0.0113,-0.0083,-0.0012,0.0030,0.0377,-0.0033,-2.5906,1.4069,-3.0956
2024-10-11T12:32:06.653Z,-0.0069,-0.9865,0.1608,-0.0113,-0.0083,-0.0012,0.0079,0.0344,-0.0036,-2.5906,1.4069,-3.0956
2024-10-11T12:32:06.664Z,-0.0066,-0.9853,0.1620,-0.0083,-0.0130,0.0094,0.0052,0.0337,-0.0032,-2.5894,1.4069,-3.0961
2024-10-11T12:32:06.674Z,-0.0044,-0.9835,0.1616,-0.0083,-0.0130,0.0094,0.0052,0.0319,-0.0049,-2.5894,1.4069,-3.0961
2024-10-11T12:32:06.684Z,-0.0047,-0.9847,0.1654,-0.0083,-0.0130,0.0094,0.0017,0.0331,-0.0008,-2.5894,1.4069,-3.0961
2024-10-11T12:32:06.694Z,-0.0047,-0.9857,0.1684,-0.0269,-0.0090,-0.0521,0.0017,0.0331,-0.0008,-2.5885,1.4068,-3.0963
2024-10-11T12:32:06.703Z,-0.0038,-0.9857,0.1699,-0.0269,-0.0090,-0.0521,0.0025,0.0308,-0.0011,-2.5885,1.4068,-3.0963
2024-10-11T12:32:06.713Z,-0.0049,-0.9849,0.1721,-0.0269,-0.0090,-0.0521,0.0025,0.0308,-0.0011,-2.5885,1.4068,-3.0963
2024-10-11T12:32:06.723Z,-0.0016,-0.9858,0.1706,-0.0572,-0.0080,-0.0737,0.0001,0.0301,-0.0009,-2.5883,1.4068,-3.0958
2024-10-11T12:32:06.734Z,-0.0028,-0.9841,0.1702,-0.0572,-0.0080,-0.0737,0.0002,0.0261,-0.0000,-2.5883,1.4068,-3.0958
2024-10-11T12:32:06.742Z,-0.0033,-0.9871,0.1684,-0.0572,-0.0080,-0.0737,0.0002,0.0261,-0.0000,-2.5883,1.4068,-3.0958
2024-10-11T12:32:06.754Z,0.0003,-0.9864,0.1708,-0.0769,-0.0021,-0.0753,0.0004,0.0203,0.0016,-2.5884,1.4067,-3.0951
2024-10-11T12:32:06.764Z,0.0003,-0.9872,0.1698,-0.0769,-0.0021,-0.0753,0.0003,0.0199,0.0020,-2.5884,1.4067,-3.0951
2024-10-11T12:32:06.774Z,-0.0016,-0.9883,0.1679,-0.0769,-0.0021,-0.0753,0.0008,0.0178,0.0042,-2.5884,1.4067,-3.0951
2024-10-11T12:32:06.784Z,-0.0028,-0.9892,0.1664,-0.0483,0.0260,-0.0308,0.0041,0.0146,0.0009,-2.5886,1.4067,-3.0945
2024-10-11T12:32:06.794Z,-0.0031,-0.9904,0.1626,-0.0483,0.0260,-0.0308,0.0028,0.0148,0.0020,-2.5886,1.4067,-3.0945
2024-10-11T12:32:06.803Z,-0.0010,-0.9912,0.1609,-0.0483,0.0260,-0.0308,0.0046,0.0111,0.0009,-2.5886,1.4067,-3.0945
2024-10-11T12:32:06.814Z,-0.0014,-0.9941,0.1586,-0.0623,0.0741,0.0476,0.0066,0.0071,0.0038,-2.5889,1.4065,-3.0941
2024-10-11T12:32:06.823Z,-0.0004,-0.9926,0.1577,-0.0623,0.0741,0.0476,0.0066,0.0071,0.0038,-2.5889,1.4065,-3.0941
2024-10-11T12:32:06.833Z,-0.0001,-0.9919,0.1601,-0.0623,0.0741,0.0476,0.0043,0.0080,0.0020,-2.5889,1.4065,-3.0941
2024-10-11T12:32:06.844Z,-0.0007,-0.9915,0.1622,-0.0702,0.0495,0.0134,0.0038,0.0021,0.0048,-2.5893,1.4063,-3.0937
2024-10-11T12:32:06.854Z,0.0001,-0.9906,0.1620,-0.0702,0.0495,0.0134,0.0040,0.0025,0.0088,-2.5893,1.4063,-3.0937
2024-10-11T12:32:06.862Z,0.0001,-0.9907,0.1646,-0.0702,0.0495,0.0134,0.0040,0.0025,0.0088,-2.5893,1.4063,-3.0937
2024-10-11T12:32:06.874Z,-0.0002,-0.9897,0.1635,-0.0768,0.0318,0.0029,0.0011,0.0007,0.0072,-2.5903,1.4061,-3.0929
2024-10-11T12:32:06.884Z,-0.0015,-0.9901,0.1648,-0.0768,0.0318,0.0029,-0.0021,0.0048,0.0047,-2.5903,1.4061,-3.0929
2024-10-11T12:32:06.894Z,-0.0037,-0.9871,0.1696,-0.0768,0.0318,0.0029,0.0004,0.0036,0.0074,-2.5903,1.4061,-3.0929
2024-10-11T12:32:06.904Z,-0.0042,-0.9851,0.1691,-0.0386,-0.0136,-0.0515,-0.0019,0.0030,0.0080,-2.5914,1.4060,-3.0920
2024-10-11T12:32:06.914Z,-0.0044,-0.9858,0.1707,-0.0386,-0.0136,-0.0515,-0.0029,0.0034,0.0078,-2.5914,1.4060,-3.0920
2024-10-11T12:32:06.924Z,-0.0053,-0.9851,0.1710,-0.0348,-0.0167,-0.0573,-0.0029,0.0034,0.0078,-2.5925,1.4061,-3.0911
2024-10-11T12:32:06.933Z,-0.0047,-0.9848,0.1696,-0.0348,-0.0167,-0.0573,-0.0043,0.0041,0.0067,-2.5925,1.4061,-3.0911
2024-10-11T12:32:06.944Z,-0.0051,-0.9864,0.1667,-0.0348,-0.0167,-0.0573,-0.0050,0.0037,0.0083,-2.5925,1.4061,-3.0911
2024-10-11T12:32:06.953Z,-0.0029,-0.9874,0.1668,-0.0348,-0.0167,-0.0573,-0.0044,0.0023,0.0084,-2.5925,1.4061,-3.0911
2024-10-11T12:32:06.963Z,-0.0034,-0.9888,0.1627,-0.0502,0.0231,0.0090,-0.0040,0.0006,0.0085,-2.5939,1.4062,-3.0898
2024-10-11T12:32:06.973Z,-0.0032,-0.9884,0.1626,-0.0502,0.0231,0.0090,-0.0059,0.0053,0.0094,-2.5939,1.4062,-3.0898
2024-10-11T12:32:06.983Z,-0.0039,-0.9913,0.1652,-0.0502,0.0231,0.0090,-0.0067,0.0039,0.0105,-2.5939,1.4062,-3.0898
2024-10-11T12:32:06.994Z,-0.0031,-0.9917,0.1656,-0.0551,0.0512,-0.0211,-0.0074,0.0027,0.0082,-2.5954,1.4063,-3.0884
2024-10-11T12:32:07.003Z,-0.0037,-0.9922,0.1661,-0.0551,0.0512,-0.0211,-0.0063,0.0032,0.0097,-2.5954,1.4063,-3.0884
2024-10-11T12:32:07.013Z,-0.0048,-0.9924,0.1653,-0.0551,0.0512,-0.0211,-0.0076,0.0035,0.0099,-2.5954,1.4063,-3.0884
2024-10-11T12:32:07.023Z,-0.0054,-0.9920,0.1657,-0.0346,0.0533,-0.0229,-0.0083,-0.0013,0.0092,-2.5969,1.4064,-3.0871
2024-10-11T12:32:07.033Z,-0.0054,-0.9925,0.1633,-0.0346,0.0533,-0.0229,-0.0085,0.0005,0.0090,-2.5969,1.4064,-3.0871
2024-10-11T12:32:07.044Z,-0.0047,-0.9933,0.1628,-0.0171,0.0498,0.0273,-0.0085,0.0005,0.0090,-2.5983,1.4067,-3.0860
2024-10-11T12:32:07.053Z,-0.0073,-0.9916,0.1604,-0.0171,0.0498,0.0273,-0.0092,-0.0014,0.0080,-2.5983,1.4067,-3.0860
2024-10-11T12:32:07.064Z,-0.0079,-0.9920,0.1600,-0.0171,0.0498,0.0273,-0.0133,0.0005,0.0086,-2.5983,1.4067,-3.0860
2024-10-11T12:32:07.073Z,-0.0092,-0.9915,0.1616,-0.0171,0.0498,0.0273,-0.0119,-0.0034,0.0073,-2.5983,1.4067,-3.0860
2024-10-11T12:32:07.084Z,-0.0108,-0.9874,0.1618,-0.0076,0.0285,0.0135,-0.0128,-0.0038,0.0079,-2.5997,1.4069,-3.0850
2024-10-11T12:32:07.094Z,-0.0108,-0.9874,0.1618,-0.0076,0.0285,0.0135,-0.0117,-0.0082,0.0066,-2.5997,1.4069,-3.0850
2024-10-11T12:32:07.104Z,-0.0118,-0.9862,0.1623,0.0433,-0.0339,0.0040,-0.0126,-0.0104,0.0070,-2.6009,1.4072,-3.0843
2024-10-11T12:32:07.113Z,-0.0137,-0.9832,0.1622,0.0433,-0.0339,0.0040,-0.0138,-0.0071,0.0062,-2.6009,1.4072,-3.0843
2024-10-11T12:32:07.123Z,-0.0129,-0.9837,0.1607,0.0433,-0.0339,0.0040,-0.0127,-0.0090,0.0078,-2.6009,1.4072,-3.0843
2024-10-11T12:32:07.133Z,-0.0129,-0.9837,0.1607,0.0198,-0.0539,0.0127,-0.0127,-0.0090,0.0078,-2.6022,1.4076,-3.0835
2024-10-11T12:32:07.143Z,-0.0115,-0.9812,0.1609,0.0198,-0.0539,0.0127,-0.0129,-0.0101,0.0080,-2.6022,1.4076,-3.0835
2024-10-11T12:32:07.153Z,-0.0114,-0.9810,0.1577,0.0198,-0.0539,0.0127,-0.0122,-0.0072,0.0039,-2.6022,1.4076,-3.0835
2024-10-11T12:32:07.163Z,-0.0108,-0.9812,0.1571,0.0198,-0.0539,0.0127,-0.0109,-0.0068,0.0077,-2.6022,1.4076,-3.0835
2024-10-11T12:32:07.173Z,-0.0096,-0.9815,0.1557,0.0005,-0.0514,0.0604,-0.0140,-0.0058,0.0048,-2.6037,1.4079,-3.0825
2024-10-11T12:32:07.183Z,-0.0109,-0.9811,0.1539,0.0005,-0.0514,0.0604,-0.0100,-0.0051,0.0061,-2.6037,1.4079,-3.0825
2024-10-11T12:32:07.195Z,-0.0118,-0.9801,0.1523,0.0111,-0.0584,0.1165,-0.0100,-0.0051,0.0061,-2.6054,1.4082,-3.0812
2024-10-11T12:32:07.203Z,-0.0126,-0.9809,0.1492,0.0111,-0.0584,0.1165,-0.0112,-0.0068,0.0066,-2.6054,1.4082,-3.0812
2024-10-11T12:32:07.213Z,-0.0126,-0.9809,0.1492,0.0111,-0.0584,0.1165,-0.0090,-0.0040,0.0059,-2.6054,1.4082,-3.0812
2024-10-11T12:32:07.223Z,-0.0139,-0.9797,0.1467,0.0111,-0.0584,0.1165,-0.0060,-0.0057,0.0057,-2.6054,1.4082,-3.0812
2024-10-11T12:32:07.233Z,-0.0143,-0.9798,0.1470,0.0424,-0.0695,0.1405,-0.0040,-0.0079,0.0059,-2.6070,1.4085,-3.0801
2024-10-11T12:32:07.245Z,-0.0170,-0.9805,0.1464,0.0424,-0.0695,0.1405,-0.0050,-0.0043,0.0052,-2.6070,1.4085,-3.0801
2024-10-11T12:32:07.253Z,-0.0179,-0.9813,0.1457,0.0424,-0.0695,0.1405,-0.0010,-0.0061,0.0057,-2.6070,1.4085,-3.0801
2024-10-11T12:32:07.263Z,-0.0193,-0.9818,0.1448,0.0906,-0.0501,0.1606,-0.0023,-0.0039,0.0048,-2.6082,1.4086,-3.0794
2024-10-11T12:32:07.273Z,-0.0193,-0.9816,0.1456,0.0906,-0.0501,0.1606,0.0008,-0.0027,0.0006,-2.6082,1.4086,-3.0794
2024-10-11T12:32:07.284Z,-0.0189,-0.9826,0.1464,0.1005,-0.0409,0.1277,0.0020,-0.0037,0.0018,-2.6091,1.4087,-3.0788
2024-10-11T12:32:07.294Z,-0.0204,-0.9827,0.1481,0.1005,-0.0409,0.1277,0.0015,-0.0027,0.0004,-2.6091,1.4087,-3.0788
2024-10-11T12:32:07.304Z,-0.0178,-0.9816,0.1528,0.1005,-0.0409,0.1277,0.0029,-0.0025,0.0024,-2.6091,1.4087,-3.0788
2024-10-11T12:32:07.315Z,-0.0178,-0.9816,0.1528,0.0684,-0.0254,0.0680,0.0057,-0.0032,-0.0006,-2.6095,1.4086,-3.0787
2024-10-11T12:32:07.323Z,-0.0171,-0.9843,0.1543,0.0684,-0.0254,0.0680,0.0052,-0.0026,0.0020,-2.6095,1.4086,-3.0787
2024-10-11T12:32:07.333Z,-0.0161,-0.9841,0.1538,0.0684,-0.0254,0.0680,0.0069,-0.0013,-0.0025,-2.6095,1.4086,-3.0787
2024-10-11T12:32:07.345Z,-0.0161,-0.9841,0.1538,0.0578,-0.0070,0.0712,0.0073,-0.0003,-0.0013,-2.6104,1.4085,-3.0781
2024-10-11T12:32:07.353Z,-0.0161,-0.9861,0.1540,0.0578,-0.0070,0.0712,0.0085,-0.0013,-0.0016,-2.6104,1.4085,-3.0781
2024-10-11T12:32:07.363Z,-0.0138,-0.9888,0.1560,0.0578,-0.0070,0.0712,0.0085,-0.0013,-0.0016,-2.6104,1.4085,-3.0781
2024-10-11T12:32:07.374Z,-0.0138,-0.9888,0.1560,0.0181,0.0240,0.0660,0.0123,0.0011,-0.0018,-2.6106,1.4082,-3.0781
2024-10-11T12:32:07.384Z,-0.0141,-0.9921,0.1558,0.0181,0.0240,0.0660,0.0114,0.0036,0.0002,-2.6106,1.4082,-3.0781
2024-10-11T12:32:07.394Z,-0.0141,-0.9921,0.1558,0.0181,0.0240,0.0660,0.0137,0.0022,-0.0006,-2.6106,1.4082,-3.0781
2024-10-11T12:32:07.403Z,-0.0126,-0.9913,0.1569,0.0150,0.0387,0.0426,0.0134,0.0006,-0.0021,-2.6107,1.4079,-3.0781
2024-10-11T12:32:07.414Z,-0.0151,-0.9900,0.1596,0.0150,0.0387,0.0426,0.0120,0.0031,-0.0010,-2.6107,1.4079,-3.0781
2024-10-11T12:32:07.422Z,-0.0151,-0.9900,0.1596,0.0150,0.0387,0.0426,0.0100,0.0053,-0.0006,-2.6107,1.4079,-3.0781
2024-10-11T12:32:07.434Z,-0.0135,-0.9870,0.1613,0.0398,-0.0145,-0.0221,0.0114,0.0058,-0.0021,-2.6107,1.4076,-3.0783
2024-10-11T12:32:07.444Z,-0.0143,-0.9852,0.1644,0.0398,-0.0145,-0.0221,0.0110,0.0047,-0.0052,-2.6107,1.4076,-3.0783
2024-10-11T12:32:07.453Z,-0.0169,-0.9855,0.1669,0.0398,-0.0145,-0.0221,0.0084,0.0045,-0.0040,-2.6107,1.4076,-3.0783
2024-10-11T12:32:07.463Z,-0.0169,-0.9855,0.1669,0.0398,-0.0145,-0.0221,0.0082,0.0062,-0.0052,-2.6107,1.4076,-3.0783
2024-10-11T12:32:07.473Z,-0.0142,-0.9852,0.1663,0.0481,-0.0081,-0.0361,0.0095,0.0009,-0.0048,-2.6100,1.4073,-3.0791
2024-10-11T12:32:07.483Z,-0.0166,-0.9859,0.1682,0.0481,-0.0081,-0.0361,0.0079,-0.0002,-0.0051,-2.6100,1.4073,-3.0791
2024-10-11T12:32:07.495Z,-0.0166,-0.9859,0.1682,0.0583,-0.0067,-0.0382,0.0076,-0.0006,-0.0067,-2.6091,1.4071,-3.0803
2024-10-11T12:32:07.503Z,-0.0137,-0.9866,0.1682,0.0583,-0.0067,-0.0382,0.0077,-0.0030,-0.0068,-2.6091,1.4071,-3.0803
2024-10-11T12:32:07.512Z,-0.0137,-0.9866,0.1682,0.0583,-0.0067,-0.0382,0.0055,-0.0046,-0.0055,-2.6091,1.4071,-3.0803
2024-10-11T12:32:07.523Z,-0.0116,-0.9870,0.1697,0.0275,-0.0080,-0.0733,0.0030,-0.0053,-0.0078,-2.6083,1.4069,-3.0815
2024-10-11T12:32:07.533Z,-0.0132,-0.9869,0.1729,0.0275,-0.0080,-0.0733,0.0020,-0.0050,-0.0059,-2.6083,1.4069,-3.0815
2024-10-11T12:32:07.543Z,-0.0123,-0.9896,0.1709,0.0275,-0.0080,-0.0733,0.0007,-0.0055,-0.0051,-2.6083,1.4069,-3.0815
2024-10-11T12:32:07.553Z,-0.0123,-0.9896,0.1709,-0.0038,0.0345,-0.0654,0.0001,-0.0056,-0.0056,-2.6075,1.4068,-3.0827
2024-10-11T12:32:07.563Z,-0.0092,-0.9901,0.1696,-0.0038,0.0345,-0.0654,-0.0016,-0.0045,-0.0047,-2.6075,1.4068,-3.0827
2024-10-11T12:32:07.574Z,-0.0099,-0.9908,0.1682,-0.0038,0.0345,-0.0654,-0.0009,-0.0043,-0.0054,-2.6075,1.4068,-3.0827
2024-10-11T12:32:07.583Z,-0.0099,-0.9908,0.1682,0.0020,0.0579,-0.0638,-0.0026,-0.0014,-0.0041,-2.6075,1.4067,-3.0830
2024-10-11T12:32:07.595Z,-0.0083,-0.9921,0.1666,0.0020,0.0579,-0.0638,-0.0046,-0.0023,-0.0018,-2.6075,1.4067,-3.0830
2024-10-11T12:32:07.603Z,-0.0100,-0.9915,0.1646,0.0020,0.0579,-0.0638,-0.0045,-0.0021,-0.0045,-2.6075,1.4067,-3.0830
2024-10-11T12:32:07.613Z,-0.0100,-0.9915,0.1646,0.0248,0.0322,0.0053,-0.0037,-0.0032,-0.0026,-2.6074,1.4066,-3.0834
2024-10-11T12:32:07.622Z,-0.0102,-0.9872,0.1613,0.0248,0.0322,0.0053,-0.0027,-0.0020,-0.0023,-2.6074,1.4066,-3.0834
2024-10-11T12:32:07.633Z,-0.0121,-0.9855,0.1613,0.0248,0.0322,0.0053,-0.0028,-0.0027,-0.0016,-2.6074,1.4066,-3.0834
2024-10-11T12:32:07.645Z,-0.0121,-0.9855,0.1613,0.0377,-0.0138,0.0245,-0.0009,-0.0025,-0.0008,-2.6072,1.4067,-3.0840
2024-10-11T12:32:07.653Z,-0.0137,-0.9838,0.1616,0.0377,-0.0138,0.0245,-0.0017,-0.0021,-0.0031,-2.6072,1.4067,-3.0840
2024-10-11T12:32:07.663Z,-0.0121,-0.9844,0.1636,0.0377,-0.0138,0.0245,-0.0010,-0.0017,-0.0024,-2.6072,1.4067,-3.0840
2024-10-11T12:32:07.674Z,-0.0121,-0.9844,0.1636,0.0312,-0.0381,0.0141,-0.0060,-0.0010,-0.0025,-2.6069,1.4067,-3.0846
2024-10-11T12:32:07.683Z,-0.0105,-0.9829,0.1612,0.0312,-0.0381,0.0141,-0.0029,-0.0007,-0.0030,-2.6069,1.4067,-3.0846
2024-10-11T12:32:07.694Z,-0.0108,-0.9858,0.1619,0.0312,-0.0381,0.0141,-0.0057,-0.0008,-0.0037,-2.6069,1.4067,-3.0846
2024-10-11T12:32:07.703Z,-0.0108,-0.9858,0.1619,0.0013,-0.0056,0.0344,-0.0022,0.0006,-0.0037,-2.6070,1.4068,-3.0848
2024-10-11T12:32:07.713Z,-0.0074,-0.9869,0.1606,0.0013,-0.0056,0.0344,-0.0037,0.0025,-0.0001,-2.6070,1.4068,-3.0848
2024-10-11T12:32:07.722Z,-0.0081,-0.9879,0.1631,0.0013,-0.0056,0.0344,-0.0040,0.0012,-0.0004,-2.6070,1.4068,-3.0848
2024-10-11T12:32:07.733Z,-0.0081,-0.9879,0.1631,-0.0103,0.0424,-0.0135,-0.0053,0.0031,0.0003,-2.6073,1.4069,-3.0847
2024-10-11T12:32:07.744Z,-0.0095,-0.9904,0.1658,-0.0103,0.0424,-0.0135,-0.0053,0.0042,-0.0008,-2.6073,1.4069,-3.0847
2024-10-11T12:32:07.753Z,-0.0098,-0.9909,0.1656,-0.0103,0.0424,-0.0135,-0.0034,0.0039,0.0012,-2.6073,1.4069,-3.0847
2024-10-11T12:32:07.764Z,-0.0098,-0.9909,0.1656,0.0090,0.0732,-0.0068,-0.0054,0.0040,-0.0005,-2.6076,1.4070,-3.0845
2024-10-11T12:32:07.773Z,-0.0108,-0.9916,0.1611,0.0090,0.0732,-0.0068,-0.0058,0.0065,0.0009,-2.6076,1.4070,-3.0845
2024-10-11T12:32:07.784Z,-0.0115,-0.9910,0.1586,0.0090,0.0732,-0.0068,-0.0037,0.0061,-0.0001,-2.6076,1.4070,-3.0845
2024-10-11T12:32:07.796Z,-0.0115,-0.9910,0.1586,0.0287,0.0519,0.0425,-0.0087,0.0076,-0.0012,-2.6077,1.4071,-3.0845
2024-10-11T12:32:07.803Z,-0.0107,-0.9909,0.1579,0.0287,0.0519,0.0425,-0.0018,0.0089,-0.0002,-2.6077,1.4071,-3.0845
2024-10-11T12:32:07.813Z,-0.0108,-0.9914,0.1589,0.0287,0.0519,0.0425,-0.0032,0.0074,-0.0017,-2.6077,1.4071,-3.0845
2024-10-11T12:32:07.823Z,-0.0108,-0.9914,0.1589,0.0221,0.0432,0.0292,-0.0039,0.0092,-0.0021,-2.6078,1.4072,-3.0843
2024-10-11T12:32:07.833Z,-0.0125,-0.9887,0.1617,0.0221,0.0432,0.0292,-0.0050,0.0095,-0.0009,-2.6078,1.4072,-3.0843
2024-10-11T12:32:07.844Z,-0.0118,-0.9852,0.1617,0.0221,0.0432,0.0292,-0.0056,0.0118,0.0009,-2.6078,1.4072,-3.0843
2024-10-11T12:32:07.853Z,-0.0118,-0.9852,0.1617,0.0175,-0.0168,0.0023,-0.0038,0.0072,-0.0024,-2.6080,1.4073,-3.0841
2024-10-11T12:32:07.864Z,-0.0115,-0.9866,0.1627,0.0175,-0.0168,0.0023,-0.0051,0.0109,0.0003,-2.6080,1.4073,-3.0841
2024-10-11T12:32:07.873Z,-0.0126,-0.9848,0.1625,0.0175,-0.0168,0.0023,-0.0062,0.0099,-0.0036,-2.6080,1.4073,-3.0841
2024-10-11T12:32:07.883Z,-0.0139,-0.9841,0.1620,0.0441,-0.0257,0.0026,-0.0066,0.0106,-0.0030,-2.6083,1.4075,-3.0838
2024-10-11T12:32:07.894Z,-0.0131,-0.9848,0.1626,0.0441,-0.0257,0.0026,-0.0029,0.0108,-0.0026,-2.6083,1.4075,-3.0838
2024-10-11T12:32:07.903Z,-0.0116,-0.9856,0.1617,0.0441,-0.0257,0.0026,-0.0054,0.0114,-0.0033,-2.6083,1.4075,-3.0838
2024-10-11T12:32:07.914Z,-0.0116,-0.9856,0.1617,0.0397,-0.0070,0.0054,-0.0066,0.0124,-0.0037,-2.6083,1.4077,-3.0836
2024-10-11T12:32:07.923Z,-0.0130,-0.9853,0.1598,0.0397,-0.0070,0.0054,-0.0055,0.0124,-0.0033,-2.6083,1.4077,-3.0836
2024-10-11T12:32:07.933Z,-0.0124,-0.9856,0.1570,0.0397,-0.0070,0.0054,-0.0060,0.0132,-0.0030,-2.6083,1.4077,-3.0836
2024-10-11T12:32:07.945Z,-0.0130,-0.9865,0.1577,0.0359,-0.0026,0.0417,-0.0065,0.0128,-0.0032,-2.6079,1.4078,-3.0839
2024-10-11T12:32:07.953Z,-0.0124,-0.9860,0.1591,0.0359,-0.0026,0.0417,-0.0080,0.0113,-0.0033,-2.6079,1.4078,-3.0839
2024-10-11T12:32:07.963Z,-0.0123,-0.9870,0.1606,0.0359,-0.0026,0.0417,-0.0077,0.0136,-0.0054,-2.6079,1.4078,-3.0839
2024-10-11T12:32:07.974Z,-0.0119,-0.9841,0.1603,0.0240,-0.0263,0.0154,-0.0063,0.0159,-0.0069,-2.6084,1.4079,-3.0832
2024-10-11T12:32:07.983Z,-0.0112,-0.9853,0.1588,0.0240,-0.0263,0.0154,-0.0049,0.0135,-0.0058,-2.6084,1.4079,-3.0832
2024-10-11T12:32:07.994Z,-0.0109,-0.9851,0.1578,0.0240,-0.0263,0.0154,-0.0056,0.0152,-0.0034,-2.6084,1.4079,-3.0832
2024-10-11T12:32:08.004Z,-0.0101,-0.9839,0.1572,0.0049,-0.0287,0.0447,-0.0018,0.0159,-0.0074,-2.6090,1.4081,-3.0824
2024-10-11T12:32:08.013Z,-0.0111,-0.9828,0.1554,0.0049,-0.0287,0.0447,-0.0041,0.0175,-0.0072,-2.6090,1.4081,-3.0824
2024-10-11T12:32:08.023Z,-0.0099,-0.9828,0.1555,0.0049,-0.0287,0.0447,-0.0015,0.0167,-0.0048,-2.6090,1.4081,-3.0824
2024-10-11T12:32:08.033Z,-0.0099,-0.9828,0.1555,-0.0062,-0.0419,0.0907,0.0012,0.0175,-0.0054,-2.6087,1.4082,-3.0824
2024-10-11T12:32:08.044Z,-0.0105,-0.9792,0.1499,-0.0062,-0.0419,0.0907,-0.0001,0.0177,-0.0055,-2.6087,1.4082,-3.0824
2024-10-11T12:32:08.053Z,-0.0090,-0.9786,0.1500,-0.0062,-0.0419,0.0907,0.0029,0.0196,-0.0042,-2.6087,1.4082,-3.0824
2024-10-11T12:32:08.062Z,-0.0090,-0.9786,0.1500,0.0088,-0.0700,0.1144,0.0029,0.0196,-0.0042,-2.6082,1.4081,-3.0826
2024-10-11T12:32:08.073Z,-0.0099,-0.9804,0.1493,0.0088,-0.0700,0.1144,0.0080,0.0197,-0.0049,-2.6082,1.4081,-3.0826
2024-10-11T12:32:08.083Z,-0.0103,-0.9819,0.1484,0.0088,-0.0700,0.1144,0.0110,0.0205,-0.0045,-2.6082,1.4081,-3.0826
2024-10-11T12:32:08.094Z,-0.0110,-0.9816,0.1485,0.0151,-0.0503,0.1318,0.0089,0.0209,-0.0052,-2.6073,1.4079,-3.0830
2024-10-11T12:32:08.103Z,-0.0123,-0.9799,0.1503,0.0151,-0.0503,0.1318,0.0104,0.0180,-0.0040,-2.6073,1.4079,-3.0830
2024-10-11T12:32:08.114Z,-0.0103,-0.9808,0.1525,0.0151,-0.0503,0.1318,0.0105,0.0213,-0.0057,-2.6073,1.4079,-3.0830
2024-10-11T12:32:08.123Z,-0.0103,-0.9808,0.1525,0.0318,-0.0596,0.0955,0.0138,0.0198,-0.0027,-2.6064,1.4076,-3.0835
2024-10-11T12:32:08.133Z,-0.0129,-0.9815,0.1518,0.0318,-0.0596,0.0955,0.0151,0.0208,-0.0058,-2.6064,1.4076,-3.0835
2024-10-11T12:32:08.143Z,-0.0122,-0.9817,0.1548,0.0318,-0.0596,0.0955,0.0148,0.0190,-0.0032,-2.6064,1.4076,-3.0835
2024-10-11T12:32:08.154Z,-0.0126,-0.9827,0.1578,0.0321,-0.0384,0.0463,0.0155,0.0200,-0.0037,-2.6056,1.4073,-3.0839
2024-10-11T12:32:08.164Z,-0.0122,-0.9831,0.1585,0.0321,-0.0384,0.0463,0.0167,0.0195,-0.0029,-2.6056,1.4073,-3.0839
2024-10-11T12:32:08.173Z,-0.0091,-0.9817,0.1594,0.0321,-0.0384,0.0463,0.0178,0.0213,-0.0028,-2.6056,1.4073,-3.0839
2024-10-11T12:32:08.183Z,-0.0091,-0.9817,0.1594,-0.0069,-0.0444,0.0240,0.0157,0.0232,-0.0032,-2.6049,1.4069,-3.0842
2024-10-11T12:32:08.193Z,-0.0077,-0.9829,0.1600,-0.0069,-0.0444,0.0240,0.0137,0.0218,-0.0037,-2.6049,1.4069,-3.0842
2024-10-11T12:32:08.203Z,-0.0082,-0.9828,0.1635,-0.0069,-0.0444,0.0240,0.0157,0.0270,-0.0056,-2.6049,1.4069,-3.0842
2024-10-11T12:32:08.214Z,-0.0082,-0.9828,0.1635,-0.0014,-0.0260,-0.0013,0.0141,0.0279,-0.0018,-2.6041,1.4064,-3.0845
2024-10-11T12:32:08.223Z,-0.0099,-0.9838,0.1638,-0.0014,-0.0260,-0.0013,0.0129,0.0260,-0.0029,-2.6041,1.4064,-3.0845
2024-10-11T12:32:08.233Z,-0.0063,-0.9861,0.1633,-0.0014,-0.0260,-0.0013,0.0106,0.0300,-0.0059,-2.6041,1.4064,-3.0845
2024-10-11T12:32:08.243Z,-0.0074,-0.9876,0.1631,-0.0188,0.0111,0.0061,0.0130,0.0273,-0.0056,-2.6034,1.4060,-3.0847
2024-10-11T12:32:08.253Z,-0.0092,-0.9878,0.1648,-0.0188,0.0111,0.0061,0.0139,0.0293,-0.0025,-2.6034,1.4060,-3.0847
2024-10-11T12:32:08.264Z,-0.0088,-0.9877,0.1674,-0.0188,0.0111,0.0061,0.0096,0.0284,-0.0029,-2.6034,1.4060,-3.0847
2024-10-11T12:32:08.273Z,-0.0087,-0.9897,0.1687,-0.0071,0.0324,-0.0450,0.0093,0.0285,-0.0026,-2.6030,1.4057,-3.0844
2024-10-11T12:32:08.283Z,-0.0099,-0.9916,0.1691,-0.0071,0.0324,-0.0450,0.0072,0.0299,-0.0019,-2.6030,1.4057,-3.0844
2024-10-11T12:32:08.293Z,-0.0109,-0.9919,0.1708,-0.0071,0.0324,-0.0450,0.0075,0.0289,-0.0005,-2.6030,1.4057,-3.0844
2024-10-11T12:32:08.303Z,-0.0107,-0.9917,0.1711,0.0121,0.0529,-0.0665,0.0039,0.0295,-0.0033,-2.6027,1.4054,-3.0842
2024-10-11T12:32:08.312Z,-0.0124,-0.9932,0.1718,0.0121,0.0529,-0.0665,0.0070,0.0289,-0.0030,-2.6027,1.4054,-3.0842
2024-10-11T12:32:08.323Z,-0.0108,-0.9923,0.1719,0.0121,0.0529,-0.0665,0.0049,0.0286,-0.0006,-2.6027,1.4054,-3.0842
2024-10-11T12:32:08.333Z,-0.0097,-0.9916,0.1738,0.0018,0.0521,-0.0915,0.0021,0.0273,-0.0030,-2.6023,1.4053,-3.0840
2024-10-11T12:32:08.343Z,-0.0101,-0.9928,0.1718,0.0018,0.0521,-0.0915,0.0026,0.0299,-0.0013,-2.6023,1.4053,-3.0840
2024-10-11T12:32:08.353Z,-0.0074,-0.9948,0.1728,0.0018,0.0521,-0.0915,0.0037,0.0264,-0.0015,-2.6023,1.4053,-3.0840
2024-10-11T12:32:08.363Z,-0.0074,-0.9948,0.1728,-0.0168,0.0985,-0.0754,0.0013,0.0308,-0.0013,-2.6020,1.4052,-3.0836
2024-10-11T12:32:08.373Z,-0.0099,-0.9976,0.1735,-0.0168,0.0985,-0.0754,-0.0017,0.0286,-0.0034,-2.6020,1.4052,-3.0836
2024-10-11T12:32:08.383Z,-0.0095,-0.9998,0.1748,-0.0168,0.0985,-0.0754,-0.0008,0.0311,-0.0031,-2.6020,1.4052,-3.0836
2024-10-11T12:32:08.393Z,-0.0089,-1.0008,0.1740,-0.0077,0.1424,-0.0931,-0.0037,0.0327,-0.0023,-2.6019,1.4052,-3.0831
2024-10-11T12:32:08.403Z,-0.0055,-1.0000,0.1768,-0.0077,0.1424,-0.0931,-0.0054,0.0318,-0.0008,-2.6019,1.4052,-3.0831
2024-10-11T12:32:08.413Z,-0.0062,-1.0000,0.1747,-0.0077,0.1424,-0.0931,-0.0072,0.0321,-0.0015,-2.6019,1.4052,-3.0831
2024-10-11T12:32:08.423Z,-0.0060,-0.9981,0.1721,-0.0373,0.1150,-0.0754,-0.0027,0.0335,0.0009,-2.6019,1.4053,-3.0823
2024-10-11T12:32:08.433Z,-0.0041,-0.9945,0.1735,-0.0373,0.1150,-0.0754,-0.0090,0.0322,-0.0011,-2.6019,1.4053,-3.0823
2024-10-11T12:32:08.443Z,-0.0042,-0.9922,0.1732,-0.0373,0.1150,-0.0754,-0.0082,0.0325,-0.0003,-2.6019,1.4053,-3.0823
2024-10-11T12:32:08.453Z,-0.0036,-0.9892,0.1708,-0.0613,0.0275,-0.0641,-0.0078,0.0333,-0.0002,-2.6018,1.4055,-3.0817
2024-10-11T12:32:08.463Z,-0.0025,-0.9877,0.1702,-0.0613,0.0275,-0.0641,-0.0045,0.0312,0.0015,-2.6018,1.4055,-3.0817
2024-10-11T12:32:08.473Z,-0.0043,-0.9855,0.1712,-0.0613,0.0275,-0.0641,-0.0051,0.0289,0.0026,-2.6018,1.4055,-3.0817
2024-10-11T12:32:08.483Z,-0.0058,-0.9845,0.1714,-0.0407,-0.0185,-0.0712,-0.0040,0.0292,-0.0000,-2.6020,1.4056,-3.0809
2024-10-11T12:32:08.494Z,-0.0072,-0.9828,0.1706,-0.0407,-0.0185,-0.0712,-0.0071,0.0258,-0.0026,-2.6020,1.4056,-3.0809
2024-10-11T12:32:08.503Z,-0.0047,-0.9830,0.1727,-0.0407,-0.0185,-0.0712,-0.0047,0.0244,-0.0006,-2.6020,1.4056,-3.0809
2024-10-11T12:32:08.513Z,-0.0071,-0.9834,0.1712,-0.0292,-0.0296,-0.0696,-0.0047,0.0217,-0.0012,-2.6021,1.4057,-3.0804
2024-10-11T12:32:08.523Z,-0.0071,-0.9819,0.1689,-0.0292,-0.0296,-0.0696,-0.0025,0.0168,-0.0006,-2.6021,1.4057,-3.0804
2024-10-11T12:32:08.533Z,-0.0066,-0.9823,0.1672,-0.0292,-0.0296,-0.0696,-0.0056,0.0158,0.0002,-2.6021,1.4057,-3.0804
2024-10-11T12:32:08.543Z,-0.0059,-0.9822,0.1645,-0.0410,-0.0413,-0.0053,-0.0038,0.0167,0.0008,-2.6021,1.4058,-3.0801
2024-10-11T12:32:08.553Z,-0.0056,-0.9824,0.1636,-0.0410,-0.0413,-0.0053,-0.0024,0.0155,0.0016,-2.6021,1.4058,-3.0801
2024-10-11T12:32:08.563Z,-0.0043,-0.9822,0.1643,-0.0410,-0.0413,-0.0053,-0.0048,0.0134,0.0013,-2.6021,1.4058,-3.0801
2024-10-11T12:32:08.573Z,-0.0051,-0.9801,0.1653,-0.0500,-0.0624,-0.0143,-0.0062,0.0149,0.0010,-2.6022,1.4059,-3.0797
2024-10-11T12:32:08.583Z,-0.0038,-0.9789,0.1662,-0.0500,-0.0624,-0.0143,-0.0063,0.0116,0.0019,-2.6022,1.4059,-3.0797
2024-10-11T12:32:08.592Z,-0.0042,-0.9786,0.1647,-0.0500,-0.0624,-0.0143,-0.0077,0.0104,0.0026,-2.6022,1.4059,-3.0797
2024-10-11T12:32:08.603Z,-0.0045,-0.9786,0.1619,-0.0560,-0.0767,0.0175,-0.0065,0.0090,0.0038,-2.6028,1.4060,-3.0790
2024-10-11T12:32:08.613Z,-0.0058,-0.9793,0.1644,-0.0560,-0.0767,0.0175,-0.0068,0.0120,0.0044,-2.6028,1.4060,-3.0790
2024-10-11T12:32:08.622Z,-0.0072,-0.9791,0.1616,-0.0560,-0.0767,0.0175,-0.0026,0.0077,0.0053,-2.6028,1.4060,-3.0790
2024-10-11T12:32:08.633Z,-0.0086,-0.9806,0.1598,-0.0172,-0.0578,0.0366,-0.0050,0.0091,0.0028,-2.6036,1.4062,-3.0782
2024-10-11T12:32:08.643Z,-0.0109,-0.9815,0.1588,-0.0172,-0.0578,0.0366,-0.0020,0.0089,0.0047,-2.6036,1.4062,-3.0782
2024-10-11T12:32:08.653Z,-0.0103,-0.9808,0.1572,-0.0172,-0.0578,0.0366,-0.0040,0.0083,0.0033,-2.6036,1.4062,-3.0782
2024-10-11T12:32:08.664Z,-0.0092,-0.9834,0.1560,-0.0121,-0.0302,0.0732,-0.0048,0.0080,0.0037,-2.6042,1.4062,-3.0777
2024-10-11T12:32:08.673Z,-0.0098,-0.9848,0.1565,-0.0121,-0.0302,0.0732,-0.0028,0.0100,0.0033,-2.6042,1.4062,-3.0777
2024-10-11T12:32:08.683Z,-0.0095,-0.9854,0.1560,-0.0121,-0.0302,0.0732,-0.0023,0.0113,0.0008,-2.6042,1.4062,-3.0777
2024-10-11T12:32:08.693Z,-0.0118,-0.9847,0.1567,0.0126,-0.0173,0.0661,-0.0024,0.0069,0.0017,-2.6042,1.4063,-3.0775
2024-10-11T12:32:08.703Z,-0.0133,-0.9846,0.1563,0.0126,-0.0173,0.0661,0.0000,0.0102,0.0006,-2.6042,1.4063,-3.0775
2024-10-11T12:32:08.713Z,-0.0121,-0.9859,0.1570,0.0126,-0.0173,0.0661,-0.0021,0.0111,-0.0009,-2.6042,1.4063,-3.0775
2024-10-11T12:32:08.723Z,-0.0102,-0.9878,0.1575,-0.0035,0.0125,0.0577,-0.0007,0.0100,0.0005,-2.6044,1.4063,-3.0773
2024-10-11T12:32:08.733Z,-0.0124,-0.9872,0.1577,-0.0035,0.0125,0.0577,-0.0041,0.0106,-0.0028,-2.6044,1.4063,-3.0773
2024-10-11T12:32:08.743Z,-0.0109,-0.9872,0.1558,-0.0035,0.0125,0.0577,-0.0041,0.0106,0.0002,-2.6044,1.4063,-3.0773
2024-10-11T12:32:08.753Z,-0.0113,-0.9860,0.1571,0.0077,-0.0050,0.0610,-0.0021,0.0119,-0.0035,-2.6043,1.4064,-3.0774
2024-10-11T12:32:08.763Z,-0.0111,-0.9848,0.1571,0.0077,-0.0050,0.0610,-0.0026,0.0115,-0.0029,-2.6043,1.4064,-3.0774
2024-10-11T12:32:08.773Z,-0.0108,-0.9843,0.1586,0.0077,-0.0050,0.0610,-0.0036,0.0140,-0.0024,-2.6043,1.4064,-3.0774
2024-10-11T12:32:08.783Z,-0.0101,-0.9838,0.1577,-0.0040,-0.0268,0.0529,-0.0045,0.0127,-0.0008,-2.6044,1.4067,-3.0771
2024-10-11T12:32:08.792Z,-0.0115,-0.9833,0.1593,-0.0040,-0.0268,0.0529,-0.0033,0.0144,-0.0027,-2.6044,1.4067,-3.0771
2024-10-11T12:32:08.803Z,-0.0112,-0.9858,0.1621,-0.0040,-0.0268,0.0529,-0.0039,0.0138,-0.0016,-2.6044,1.4067,-3.0771
2024-10-11T12:32:08.814Z,-0.0111,-0.9844,0.1616,0.0055,-0.0224,0.0096,-0.0042,0.0136,-0.0040,-2.6047,1.4072,-3.0767
2024-10-11T12:32:08.823Z,-0.0114,-0.9868,0.1586,0.0055,-0.0224,0.0096,-0.0046,0.0145,-0.0045,-2.6047,1.4072,-3.0767
2024-10-11T12:32:08.833Z,-0.0106,-0.9856,0.1583,0.0055,-0.0224,0.0096,-0.0062,0.0140,-0.0040,-2.6047,1.4072,-3.0767
2024-10-11T12:32:08.843Z,-0.0111,-0.9861,0.1553,0.0056,-0.0062,0.0670,-0.0030,0.0157,-0.0038,-2.6047,1.4076,-3.0766
2024-10-11T12:32:08.853Z,-0.0099,-0.9852,0.1555,0.0056,-0.0062,0.0670,-0.0003,0.0183,-0.0036,-2.6047,1.4076,-3.0766
2024-10-11T12:32:08.863Z,-0.0094,-0.9870,0.1550,0.0056,-0.0062,0.0670,-0.0024,0.0170,-0.0029,-2.6047,1.4076,-3.0766
2024-10-11T12:32:08.872Z,-0.0092,-0.9882,0.1548,-0.0131,0.0138,0.0694,-0.0001,0.0178,-0.0028,-2.6041,1.4078,-3.0768
2024-10-11T12:32:08.883Z,-0.0092,-0.9875,0.1553,-0.0131,0.0138,0.0694,-0.0010,0.0185,-0.0038,-2.6041,1.4078,-3.0768
2024-10-11T12:32:08.892Z,-0.0099,-0.9867,0.1561,-0.0131,0.0138,0.0694,-0.0006,0.0159,-0.0051,-2.6041,1.4078,-3.0768
2024-10-11T12:32:08.903Z,-0.0092,-0.9872,0.1555,-0.0126,0.0045,0.0632,0.0032,0.0182,-0.0019,-2.6037,1.4078,-3.0769
2024-10-11T12:32:08.913Z,-0.0081,-0.9891,0.1529,-0.0126,0.0045,0.0632,0.0036,0.0167,-0.0056,-2.6037,1.4078,-3.0769
2024-10-11T12:32:08.923Z,-0.0093,-0.9904,0.1521,-0.0126,0.0045,0.0632,0.0027,0.0195,-0.0037,-2.6037,1.4078,-3.0769
2024-10-11T12:32:08.934Z,-0.0088,-0.9898,0.1533,-0.0159,0.0296,0.0847,0.0033,0.0189,-0.0034,-2.6032,1.4078,-3.0771
2024-10-11T12:32:08.943Z,-0.0099,-0.9911,0.1546,-0.0159,0.0296,0.0847,0.0040,0.0202,-0.0047,-2.6032,1.4078,-3.0771
2024-10-11T12:32:08.953Z,-0.0090,-0.9893,0.1582,-0.0159,0.0296,0.0847,0.0071,0.0181,-0.0025,-2.6032,1.4078,-3.0771
2024-10-11T12:32:08.963Z,-0.0090,-0.9871,0.1590,-0.0141,0.0035,0.0295,0.0055,0.0194,-0.0051,-2.6025,1.4077,-3.0775
2024-10-11T12:32:08.973Z,-0.0085,-0.9863,0.1598,-0.0141,0.0035,0.0295,0.0072,0.0181,-0.0024,-2.6025,1.4077,-3.0775
2024-10-11T12:32:08.983Z,-0.0106,-0.9871,0.1606,-0.0141,0.0035,0.0295,0.0077,0.0185,-0.0066,-2.6025,1.4077,-3.0775
2024-10-11T12:32:08.993Z,-0.0101,-0.9888,0.1629,-0.0026,0.0209,-0.0072,0.0086,0.0180,-0.0026,-2.6020,1.4076,-3.0777
2024-10-11T12:32:09.003Z,-0.0105,-0.9877,0.1627,-0.0026,0.0209,-0.0072,0.0062,0.0162,-0.0007,-2.6020,1.4076,-3.0777
2024-10-11T12:32:09.013Z,-0.0101,-0.9884,0.1646,-0.0026,0.0209,-0.0072,0.0091,0.0153,-0.0019,-2.6020,1.4076,-3.0777
2024-10-11T12:32:09.023Z,-0.0109,-0.9883,0.1664,0.0056,0.0155,-0.0397,0.0106,0.0129,-0.0003,-2.6018,1.4074,-3.0778
2024-10-11T12:32:09.033Z,-0.0095,-0.9893,0.1673,0.0056,0.0155,-0.0397,0.0071,0.0108,0.0005,-2.6018,1.4074,-3.0778
2024-10-11T12:32:09.043Z,-0.0082,-0.9900,0.1696,0.0056,0.0155,-0.0397,0.0084,0.0119,-0.0006,-2.6018,1.4074,-3.0778
2024-10-11T12:32:09.053Z,-0.0094,-0.9902,0.1690,-0.0098,0.0352,-0.0622,0.0086,0.0095,0.0015,-2.6018,1.4071,-3.0777
2024-10-11T12:32:09.063Z,-0.0095,-0.9918,0.1702,-0.0098,0.0352,-0.0622,0.0079,0.0089,0.0025,-2.6018,1.4071,-3.0777
2024-10-11T12:32:09.073Z,-0.0092,-0.9920,0.1700,-0.0098,0.0352,-0.0622,0.0063,0.0063,0.0010,-2.6018,1.4071,-3.0777
2024-10-11T12:32:09.083Z,-0.0105,-0.9899,0.1711,0.0006,0.0329,-0.0804,0.0051,0.0066,0.0009,-2.6021,1.4069,-3.0774
2024-10-11T12:32:09.093Z,-0.0085,-0.9908,0.1709,0.0006,0.0329,-0.0804,0.0036,0.0059,0.0016,-2.6021,1.4069,-3.0774
2024-10-11T12:32:09.103Z,-0.0094,-0.9900,0.1702,0.0006,0.0329,-0.0804,0.0009,0.0041,0.0028,-2.6021,1.4069,-3.0774
2024-10-11T12:32:09.113Z,-0.0106,-0.9868,0.1703,0.0005,0.0022,-0.0717,0.0007,0.0030,0.0058,-2.6027,1.4068,-3.0769
2024-10-11T12:32:09.123Z,-0.0119,-0.9861,0.1711,0.0005,0.0022,-0.0717,-0.0001,0.0020,0.0037,-2.6027,1.4068,-3.0769
2024-10-11T12:32:09.133Z,-0.0113,-0.9857,0.1712,0.0005,0.0022,-0.0717,-0.0036,0.0033,0.0016,-2.6027,1.4068,-3.0769
2024-10-11T12:32:09.143Z,-0.0115,-0.9858,0.1714,0.0083,-0.0073,-0.0830,-0.0054,0.0026,0.0021,-2.6033,1.4067,-3.0765
2024-10-11T12:32:09.152Z,-0.0112,-0.9857,0.1727,0.0083,-0.0073,-0.0830,-0.0034,0.0032,0.0016,-2.6033,1.4067,-3.0765
2024-10-11T12:32:09.163Z,-0.0123,-0.9852,0.1712,0.0083,-0.0073,-0.0830,-0.0045,0.0033,0.0014,-2.6033,1.4067,-3.0765
2024-10-11T12:32:09.173Z,-0.0131,-0.9863,0.1703,0.0234,-0.0023,-0.0720,-0.0050,0.0008,0.0045,-2.6040,1.4067,-3.0760
2024-10-11T12:32:09.182Z,-0.0132,-0.9858,0.1695,0.0234,-0.0023,-0.0720,-0.0072,0.0036,0.0025,-2.6040,1.4067,-3.0760
2024-10-11T12:32:09.193Z,-0.0116,-0.9887,0.1676,0.0234,-0.0023,-0.0720,-0.0077,0.0021,0.0017,-2.6040,1.4067,-3.0760
2024-10-11T12:32:09.203Z,-0.0107,-0.9894,0.1678,-0.0007,0.0282,-0.0468,-0.0065,-0.0004,-0.0002,-2.6045,1.4067,-3.0757
2024-10-11T12:32:09.213Z,-0.0122,-0.9889,0.1682,-0.0007,0.0282,-0.0468,-0.0084,0.0028,0.0014,-2.6045,1.4067,-3.0757
2024-10-11T12:32:09.223Z,-0.0121,-0.9898,0.1688,-0.0007,0.0282,-0.0468,-0.0064,0.0021,0.0023,-2.6045,1.4067,-3.0757
2024-10-11T12:32:09.233Z,-0.0121,-0.9898,0.1688,0.0003,0.0229,-0.0631,-0.0074,-0.0004,0.0014,-2.6051,1.4067,-3.0753
2024-10-11T12:32:09.243Z,-0.0082,-0.9905,0.1692,0.0003,0.0229,-0.0631,-0.0122,0.0025,0.0016,-2.6051,1.4067,-3.0753
2024-10-11T12:32:09.253Z,-0.0091,-0.9924,0.1678,0.0003,0.0229,-0.0631,-0.0108,-0.0008,0.0029,-2.6051,1.4067,-3.0753
2024-10-11T12:32:09.263Z,-0.0097,-0.9919,0.1679,-0.0114,0.0518,-0.0482,-0.0112,-0.0000,0.0013,-2.6058,1.4067,-3.0748
2024-10-11T12:32:09.273Z,-0.0099,-0.9912,0.1680,-0.0114,0.0518,-0.0482,-0.0099,-0.0005,0.0007,-2.6058,1.4067,-3.0748
2024-10-11T12:32:09.282Z,-0.0096,-0.9916,0.1666,-0.0114,0.0518,-0.0482,-0.0115,0.0006,0.0002,-2.6058,1.4067,-3.0748
2024-10-11T12:32:09.293Z,-0.0106,-0.9912,0.1637,-0.0031,0.0446,-0.0102,-0.0115,-0.0026,0.0002,-2.6062,1.4070,-3.0747
2024-10-11T12:32:09.303Z,-0.0100,-0.9896,0.1609,-0.0031,0.0446,-0.0102,-0.0119,-0.0003,0.0010,-2.6062,1.4070,-3.0747
2024-10-11T12:32:09.313Z,-0.0119,-0.9882,0.1602,-0.0031,0.0446,-0.0102,-0.0101,-0.0016,-0.0008,-2.6062,1.4070,-3.0747
2024-10-11T12:32:09.323Z,-0.0123,-0.9863,0.1610,0.0144,-0.0035,0.0141,-0.0126,-0.0016,-0.0011,-2.6063,1.4073,-3.0749
2024-10-11T12:32:09.332Z,-0.0108,-0.9848,0.1599,0.0144,-0.0035,0.0141,-0.0109,-0.0016,-0.0008,-2.6063,1.4073,-3.0749
2024-10-11T12:32:09.343Z,-0.0118,-0.9809,0.1616,0.0144,-0.0035,0.0141,-0.0083,0.0015,-0.0016,-2.6063,1.4073,-3.0749
2024-10-11T12:32:09.353Z,-0.0120,-0.9799,0.1606,0.0123,-0.0671,0.0156,-0.0107,-0.0003,-0.0040,-2.6062,1.4075,-3.0752
2024-10-11T12:32:09.364Z,-0.0105,-0.9798,0.1604,0.0123,-0.0671,0.0156,-0.0081,-0.0002,-0.0042,-2.6062,1.4075,-3.0752
2024-10-11T12:32:09.373Z,-0.0113,-0.9774,0.1607,0.0123,-0.0671,0.0156,-0.0079,0.0010,-0.0040,-2.6062,1.4075,-3.0752
2024-10-11T12:32:09.382Z,-0.0099,-0.9778,0.1584,-0.0072,-0.0881,0.0357,-0.0083,-0.0007,-0.0044,-2.6058,1.4077,-3.0758
2024-10-11T12:32:09.393Z,-0.0112,-0.9796,0.1575,-0.0072,-0.0881,0.0357,-0.0089,0.0002,-0.0028,-2.6058,1.4077,-3.0758
2024-10-11T12:32:09.403Z,-0.0103,-0.9792,0.1575,-0.0072,-0.0881,0.0357,-0.0073,0.0009,-0.0021,-2.6058,1.4077,-3.0758
2024-10-11T12:32:09.413Z,-0.0092,-0.9809,0.1563,-0.0135,-0.0579,0.0539,-0.0058,0.0010,-0.0037,-2.6054,1.4079,-3.0764
2024-10-11T12:32:09.423Z,-0.0090,-0.9828,0.1570,-0.0135,-0.0579,0.0539,-0.0046,0.0026,-0.0057,-2.6054,1.4079,-3.0764
2024-10-11T12:32:09.433Z,-0.0052,-0.9828,0.1568,-0.0135,-0.0579,0.0539,-0.0051,0.0051,-0.0018,-2.6054,1.4079,-3.0764
2024-10-11T12:32:09.443Z,-0.0050,-0.9836,0.1554,-0.0539,-0.0315,0.0611,-0.0068,0.0068,-0.0009,-2.6050,1.4081,-3.0769
2024-10-11T12:32:09.453Z,-0.0068,-0.9830,0.1543,-0.0539,-0.0315,0.0611,-0.0078,0.0051,-0.0031,-2.6050,1.4081,-3.0769
2024-10-11T12:32:09.463Z,-0.0073,-0.9810,0.1554,-0.0539,-0.0315,0.0611,-0.0078,0.0081,-0.0025,-2.6050,1.4081,-3.0769
2024-10-11T12:32:09.473Z,-0.0084,-0.9819,0.1536,-0.0193,-0.0487,0.0776,-0.0054,0.0077,-0.0016,-2.6047,1.4083,-3.0772
2024-10-11T12:32:09.482Z,-0.0085,-0.9786,0.1531,-0.0193,-0.0487,0.0776,-0.0063,0.0071,-0.0008,-2.6047,1.4083,-3.0772
2024-10-11T12:32:09.493Z,-0.0092,-0.9785,0.1515,-0.0193,-0.0487,0.0776,-0.0058,0.0093,-0.0036,-2.6047,1.4083,-3.0772
2024-10-11T12:32:09.503Z,-0.0089,-0.9786,0.1512,-0.0146,-0.0806,0.0995,-0.0020,0.0081,-0.0023,-2.6047,1.4084,-3.0773
2024-10-11T12:32:09.513Z,-0.0102,-0.9799,0.1480,-0.0146,-0.0806,0.0995,-0.0015,0.0078,-0.0042,-2.6047,1.4084,-3.0773
2024-10-11T12:32:09.522Z,-0.0101,-0.9809,0.1493,-0.0146,-0.0806,0.0995,-0.0013,0.0066,0.0001,-2.6047,1.4084,-3.0773
2024-10-11T12:32:09.533Z,-0.0094,-0.9827,0.1477,-0.0086,-0.0409,0.1331,0.0016,0.0048,-0.0028,-2.6043,1.4085,-3.0777
2024-10-11T12:32:09.543Z,-0.0074,-0.9860,0.1461,-0.0086,-0.0409,0.1331,0.0036,0.0064,-0.0010,-2.6043,1.4085,-3.0777
2024-10-11T12:32:09.553Z,-0.0118,-0.9918,0.1458,-0.0086,-0.0409,0.1331,0.0054,0.0034,-0.0009,-2.6043,1.4085,-3.0777
2024-10-11T12:32:09.563Z,-0.0097,-0.9948,0.1466,-0.0062,0.0782,0.1456,0.0072,0.0062,-0.0032,-2.6042,1.4083,-3.0779
2024-10-11T12:32:09.573Z,-0.0086,-0.9967,0.1478,-0.0062,0.0782,0.1456,0.0118,0.0057,0.0006,-2.6042,1.4083,-3.0779
2024-10-11T12:32:09.584Z,-0.0062,-1.0009,0.1487,-0.0062,0.0782,0.1456,0.0164,0.0027,-0.0003,-2.6042,1.4083,-3.0779
2024-10-11T12:32:09.592Z,-0.0087,-1.0018,0.1560,-0.0152,0.1477,0.0578,0.0169,0.0023,-0.0034,-2.6040,1.4079,-3.0782
2024-10-11T12:32:09.603Z,-0.0078,-0.9997,0.1595,-0.0152,0.1477,0.0578,0.0170,0.0027,0.0002,-2.6040,1.4079,-3.0782
2024-10-11T12:32:09.613Z,-0.0083,-0.9997,0.1587,-0.0152,0.1477,0.0578,0.0159,0.0030,0.0002,-2.6040,1.4079,-3.0782
2024-10-11T12:32:09.623Z,-0.0075,-0.9964,0.1612,-0.0270,0.0957,0.0107,0.0157,0.0003,0.0000,-2.6041,1.4075,-3.0783
2024-10-11T12:32:09.633Z,-0.0069,-0.9943,0.1626,-0.0270,0.0957,0.0107,0.0155,-0.0003,0.0006,-2.6041,1.4075,-3.0783
2024-10-11T12:32:09.643Z,-0.0075,-0.9920,0.1676,-0.0270,0.0957,0.0107,0.0150,0.0016,-0.0010,-2.6041,1.4075,-3.0783
2024-10-11T12:32:09.653Z,-0.0081,-0.9883,0.1704,-0.0216,0.0167,-0.0750,0.0135,0.0005,0.0006,-2.6042,1.4070,-3.0784
2024-10-11T12:32:09.663Z,-0.0081,-0.9832,0.1722,-0.0216,0.0167,-0.0750,0.0114,-0.0004,0.0015,-2.6042,1.4070,-3.0784
2024-10-11T12:32:09.673Z,-0.0085,-0.9781,0.1703,-0.0216,0.0167,-0.0750,0.0121,0.0010,0.0003,-2.6042,1.4070,-3.0784
2024-10-11T12:32:09.683Z,-0.0090,-0.9753,0.1727,-0.0130,-0.1101,-0.0942,0.0129,0.0013,0.0007,-2.6044,1.4066,-3.0784
2024-10-11T12:32:09.693Z,-0.0087,-0.9734,0.1735,-0.0130,-0.1101,-0.0942,0.0085,0.0015,0.0008,-2.6044,1.4066,-3.0784
2024-10-11T12:32:09.703Z,-0.0089,-0.9707,0.1722,-0.0130,-0.1101,-0.0942,0.0080,0.0053,0.0019,-2.6044,1.4066,-3.0784
2024-10-11T12:32:09.713Z,-0.0096,-0.9722,0.1690,-0.0076,-0.1407,-0.0558,0.0053,0.0037,0.0010,-2.6049,1.4064,-3.0781
2024-10-11T12:32:09.723Z,-0.0101,-0.9704,0.1657,-0.0076,-0.1407,-0.0558,0.0044,0.0035,0.0023,-2.6049,1.4064,-3.0781
2024-10-11T12:32:09.733Z,-0.0129,-0.9693,0.1633,-0.0076,-0.1407,-0.0558,0.0063,0.0051,0.0051,-2.6049,1.4064,-3.0781
2024-10-11T12:32:09.743Z,-0.0121,-0.9711,0.1608,0.0156,-0.1505,0.0273,0.0022,0.0052,0.0009,-2.6056,1.4061,-3.0775
2024-10-11T12:32:09.753Z,-0.0120,-0.9726,0.1585,0.0156,-0.1505,0.0273,0.0032,0.0091,0.0013,-2.6056,1.4061,-3.0775
2024-10-11T12:32:09.763Z,-0.0139,-0.9752,0.1589,0.0156,-0.1505,0.0273,0.0034,0.0099,0.0025,-2.6056,1.4061,-3.0775
2024-10-11T12:32:09.773Z,-0.0155,-0.9774,0.1570,0.0484,-0.0890,0.0663,0.0043,0.0120,0.0048,-2.6062,1.4060,-3.0769
2024-10-11T12:32:09.783Z,-0.0161,-0.9795,0.1571,0.0484,-0.0890,0.0663,0.0052,0.0108,0.0019,-2.6062,1.4060,-3.0769
2024-10-11T12:32:09.793Z,-0.0155,-0.9817,0.1616,0.0484,-0.0890,0.0663,0.0072,0.0105,0.0053,-2.6062,1.4060,-3.0769
2024-10-11T12:32:09.803Z,-0.0177,-0.9856,0.1640,0.0685,-0.0081,-0.0001,0.0084,0.0129,0.0031,-2.6067,1.4057,-3.0763
2024-10-11T12:32:09.815Z,-0.0141,-0.9884,0.1643,0.0685,-0.0081,-0.0001,0.0090,0.0159,0.0001,-2.6067,1.4057,-3.0763
2024-10-11T12:32:09.823Z,-0.0145,-0.9917,0.1645,0.0685,-0.0081,-0.0001,0.0109,0.0137,0.0016,-2.6067,1.4057,-3.0763
2024-10-11T12:32:09.833Z,-0.0164,-0.9940,0.1663,0.0541,0.0753,-0.0203,0.0073,0.0154,0.0012,-2.6071,1.4054,-3.0757
2024-10-11T12:32:09.843Z,-0.0164,-0.9972,0.1677,0.0541,0.0753,-0.0203,0.0114,0.0150,0.0018,-2.6071,1.4054,-3.0757
2024-10-11T12:32:09.853Z,-0.0149,-0.9980,0.1659,0.0541,0.0753,-0.0203,0.0124,0.0146,-0.0007,-2.6071,1.4054,-3.0757
2024-10-11T12:32:09.863Z,-0.0142,-0.9978,0.1680,0.0319,0.1124,-0.0336,0.0063,0.0161,-0.0012,-2.6072,1.4051,-3.0754
2024-10-11T12:32:09.873Z,-0.0147,-0.9980,0.1698,0.0319,0.1124,-0.0336,0.0083,0.0153,0.0006,-2.6072,1.4051,-3.0754
2024-10-11T12:32:09.882Z,-0.0120,-0.9990,0.1713,0.0319,0.1124,-0.0336,0.0088,0.0158,-0.0025,-2.6072,1.4051,-3.0754
2024-10-11T12:32:09.893Z,-0.0109,-0.9980,0.1737,0.0000,0.1147,-0.0874,0.0093,0.0147,-0.0025,-2.6071,1.4048,-3.0753
2024-10-11T12:32:09.903Z,-0.0124,-0.9975,0.1783,0.0000,0.1147,-0.0874,0.0074,0.0171,-0.0036,-2.6071,1.4048,-3.0753
2024-10-11T12:32:09.914Z,-0.0105,-0.9966,0.1788,0.0000,0.1147,-0.0874,0.0054,0.0157,-0.0032,-2.6071,1.4048,-3.0753
2024-10-11T12:32:09.923Z,-0.0092,-0.9967,0.1784,-0.0168,0.1023,-0.1312,0.0039,0.0140,-0.0030,-2.6068,1.4047,-3.0755
2024-10-11T12:32:09.933Z,-0.0080,-0.9955,0.1787,-0.0168,0.1023,-0.1312,0.0037,0.0145,-0.0045,-2.6068,1.4047,-3.0755
2024-10-11T12:32:09.943Z,-0.0086,-0.9941,0.1793,-0.0168,0.1023,-0.1312,0.0016,0.0133,-0.0046,-2.6068,1.4047,-3.0755
2024-10-11T12:32:09.953Z,-0.0106,-0.9925,0.1785,-0.0030,0.0612,-0.1321,-0.0017,0.0140,-0.0047,-2.6063,1.4046,-3.0758
2024-10-11T12:32:09.964Z,-0.0089,-0.9917,0.1793,-0.0030,0.0612,-0.1321,-0.0006,0.0143,-0.0038,-2.6063,1.4046,-3.0758
2024-10-11T12:32:09.973Z,-0.0084,-0.9918,0.1810,-0.0030,0.0612,-0.1321,-0.0039,0.0118,-0.0037,-2.6063,1.4046,-3.0758
2024-10-11T12:32:09.983Z,-0.0107,-0.9922,0.1814,-0.0012,0.0584,-0.1606,-0.0034,0.0139,-0.0026,-2.6058,1.4047,-3.0761
2024-10-11T12:32:09.993Z,-0.0117,-0.9907,0.1798,-0.0012,0.0584,-0.1606,-0.0052,0.0107,-0.0038,-2.6058,1.4047,-3.0761
2024-10-11T12:32:10.003Z,-0.0107,-0.9894,0.1790,-0.0012,0.0584,-0.1606,-0.0087,0.0094,-0.0055,-2.6058,1.4047,-3.0761
2024-10-11T12:32:10.013Z,-0.0108,-0.9889,0.1795,0.0007,0.0260,-0.1437,-0.0080,0.0111,-0.0025,-2.6054,1.4048,-3.0764
2024-10-11T12:32:10.023Z,-0.0116,-0.9881,0.1752,0.0007,0.0260,-0.1437,-0.0101,0.0104,-0.0037,-2.6054,1.4048,-3.0764
2024-10-11T12:32:10.034Z,-0.0107,-0.9880,0.1716,0.0007,0.0260,-0.1437,-0.0109,0.0076,-0.0041,-2.6054,1.4048,-3.0764
2024-10-11T12:32:10.043Z,-0.0095,-0.9890,0.1664,-0.0108,0.0267,-0.0170,-0.0155,0.0117,-0.0025,-2.6047,1.4050,-3.0771
2024-10-11T12:32:10.053Z,-0.0085,-0.9872,0.1617,-0.0108,0.0267,-0.0170,-0.0161,0.0083,-0.0057,-2.6047,1.4050,-3.0771
2024-10-11T12:32:10.064Z,-0.0079,-0.9862,0.1585,-0.0108,0.0267,-0.0170,-0.0169,0.0074,-0.0008,-2.6047,1.4050,-3.0771
2024-10-11T12:32:10.073Z,-0.0080,-0.9835,0.1550,-0.0248,-0.0279,0.0900,-0.0212,0.0073,-0.0032,-2.6042,1.4055,-3.0776
2024-10-11T12:32:10.083Z,-0.0066,-0.9829,0.1555,-0.0248,-0.0279,0.0900,-0.0200,0.0076,-0.0026,-2.6042,1.4055,-3.0776
2024-10-11T12:32:10.093Z,-0.0081,-0.9802,0.1536,-0.0248,-0.0279,0.0900,-0.0215,0.0077,-0.0043,-2.6042,1.4055,-3.0776
2024-10-11T12:32:10.103Z,-0.0051,-0.9803,0.1525,-0.0523,-0.0601,0.1095,-0.0234,0.0066,-0.0042,-2.6040,1.4061,-3.0779
2024-10-11T12:32:10.114Z,-0.0047,-0.9791,0.1537,-0.0523,-0.0601,0.1095,-0.0231,0.0078,-0.0044,-2.6040,1.4061,-3.0779
2024-10-11T12:32:10.123Z,-0.0064,-0.9802,0.1526,-0.0523,-0.0601,0.1095,-0.0190,0.0053,-0.0021,-2.6040,1.4061,-3.0779
2024-10-11T12:32:10.133Z,-0.0057,-0.9803,0.1551,-0.0457,-0.0614,0.0778,-0.0140,0.0051,-0.0005,-2.6039,1.4067,-3.0780
2024-10-11T12:32:10.143Z,-0.0055,-0.9827,0.1578,-0.0457,-0.0614,0.0778,-0.0130,0.0024,0.0000,-2.6039,1.4067,-3.0780
2024-10-11T12:32:10.153Z,-0.0075,-0.9856,0.1576,-0.0457,-0.0614,0.0778,-0.0103,0.0036,-0.0020,-2.6039,1.4067,-3.0780
2024-10-11T12:32:10.164Z,-0.0084,-0.9871,0.1599,-0.0185,0.0050,0.0282,-0.0081,0.0008,-0.0006,-2.6039,1.4070,-3.0783
2024-10-11T12:32:10.173Z,-0.0111,-0.9886,0.1636,-0.0185,0.0050,0.0282,-0.0030,0.0026,-0.0010,-2.6039,1.4070,-3.0783
2024-10-11T12:32:10.183Z,-0.0111,-0.9906,0.1656,-0.0185,0.0050,0.0282,0.0014,0.0006,0.0006,-2.6039,1.4070,-3.0783
