time,gFx,gFy,gFz,ax,ay,az,wx,wy,wz,yaw,pitch,roll
2024-10-11T13:13:19.986Z,0.0220,-0.9689,0.2133,0.0414,-0.0664,0.0425,-0.0065,0.0146,0.0132,-2.5997,1.3498,3.0216
2024-10-11T13:13:19.994Z,0.0208,-0.9687,0.2170,0.0414,-0.0664,0.0425,-0.0030,0.0191,0.0106,-2.5997,1.3498,3.0216
2024-10-11T13:13:20.004Z,0.0224,-0.9677,0.2197,0.0414,-0.0664,0.0425,-0.0070,0.0233,0.0106,-2.5997,1.3498,3.0216
2024-10-11T13:13:20.014Z,0.0231,-0.9666,0.2211,0.0338,-0.0785,-0.0216,-0.0077,0.0184,0.0088,-2.6013,1.3500,3.0235
2024-10-11T13:13:20.024Z,0.0228,-0.9667,0.2191,0.0338,-0.0785,-0.0216,-0.0062,0.0172,0.0078,-2.6013,1.3500,3.0235
2024-10-11T13:13:20.034Z,0.0257,-0.9671,0.2161,0.0338,-0.0785,-0.0216,-0.0082,0.0161,0.0058,-2.6013,1.3500,3.0235
2024-10-11T13:13:20.044Z,0.0285,-0.9702,0.2155,-0.0023,-0.0855,0.0116,-0.0070,0.0140,0.0065,-2.6024,1.3502,3.0249
2024-10-11T13:13:20.054Z,0.0291,-0.9720,0.2101,-0.0023,-0.0855,0.0116,-0.0062,0.0091,0.0092,-2.6024,1.3502,3.0249
2024-10-11T13:13:20.064Z,0.0294,-0.9738,0.2086,-0.0023,-0.0855,0.0116,-0.0055,0.0059,0.0070,-2.6024,1.3502,3.0249
2024-10-11T13:13:20.074Z,0.0286,-0.9750,0.2063,-0.0411,-0.0200,0.0843,-0.0035,0.0018,0.0073,-2.6035,1.3504,3.0260
2024-10-11T13:13:20.084Z,0.0266,-0.9740,0.2070,-0.0411,-0.0200,0.0843,-0.0036,-0.0008,0.0069,-2.6035,1.3504,3.0260
2024-10-11T13:13:20.094Z,0.0273,-0.9736,0.2048,-0.0411,-0.0200,0.0843,-0.0006,-0.0067,0.0059,-2.6035,1.3504,3.0260
2024-10-11T13:13:20.103Z,0.0265,-0.9743,0.2025,-0.0222,-0.0221,0.1204,0.0026,-0.0083,0.0040,-2.6045,1.3505,3.0267
2024-10-11T13:13:20.114Z,0.0284,-0.9743,0.2007,-0.0222,-0.0221,0.1204,0.0026,-0.0121,0.0021,-2.6045,1.3505,3.0267
2024-10-11T13:13:20.124Z,0.0303,-0.9721,0.2006,-0.0222,-0.0221,0.1204,0.0038,-0.0142,0.0052,-2.6045,1.3505,3.0267
2024-10-11T13:13:20.134Z,0.0291,-0.9720,0.1985,-0.0520,-0.0366,0.1635,0.0083,-0.0193,0.0028,-2.6055,1.3503,3.0269
2024-10-11T13:13:20.143Z,0.0304,-0.9704,0.1992,-0.0520,-0.0366,0.1635,0.0099,-0.0219,0.0023,-2.6055,1.3503,3.0269
2024-10-11T13:13:20.154Z,0.0316,-0.9692,0.2002,-0.0520,-0.0366,0.1635,0.0099,-0.0221,0.0033,-2.6055,1.3503,3.0269
2024-10-11T13:13:20.164Z,0.0328,-0.9697,0.2014,-0.0634,-0.0637,0.1703,0.0114,-0.0219,0.0035,-2.6062,1.3500,3.0267
2024-10-11T13:13:20.174Z,0.0333,-0.9707,0.2043,-0.0634,-0.0637,0.1703,0.0117,-0.0224,0.0024,-2.6062,1.3500,3.0267
2024-10-11T13:13:20.184Z,0.0340,-0.9738,0.2069,-0.0634,-0.0637,0.1703,0.0102,-0.0191,0.0059,-2.6062,1.3500,3.0267
2024-10-11T13:13:20.193Z,0.0315,-0.9766,0.2100,-0.0874,-0.0180,0.1074,0.0107,-0.0187,0.0052,-2.6072,1.3497,3.0268
2024-10-11T13:13:20.204Z,0.0332,-0.9770,0.2134,-0.0874,-0.0180,0.1074,0.0115,-0.0189,0.0035,-2.6072,1.3497,3.0268
2024-10-11T13:13:20.214Z,0.0308,-0.9776,0.2172,-0.0874,-0.0180,0.1074,0.0101,-0.0122,0.0017,-2.6072,1.3497,3.0268
2024-10-11T13:13:20.224Z,0.0303,-0.9800,0.2209,-0.0550,0.0193,0.0093,0.0061,-0.0124,0.0048,-2.6079,1.3494,3.0266
2024-10-11T13:13:20.234Z,0.0293,-0.9801,0.2236,-0.0550,0.0193,0.0093,0.0108,-0.0109,0.0035,-2.6079,1.3494,3.0266
2024-10-11T13:13:20.244Z,0.0271,-0.9800,0.2243,-0.0550,0.0193,0.0093,0.0055,-0.0088,0.0025,-2.6079,1.3494,3.0266
2024-10-11T13:13:20.254Z,0.0278,-0.9791,0.2260,-0.0183,0.0440,-0.0586,0.0065,-0.0080,0.0047,-2.6085,1.3492,3.0267
2024-10-11T13:13:20.264Z,0.0282,-0.9792,0.2266,-0.0183,0.0440,-0.0586,0.0040,-0.0059,0.0041,-2.6085,1.3492,3.0267
2024-10-11T13:13:20.274Z,0.0293,-0.9781,0.2255,-0.0183,0.0440,-0.0586,0.0033,-0.0061,0.0025,-2.6085,1.3492,3.0267
2024-10-11T13:13:20.284Z,0.0293,-0.9777,0.2231,-0.0408,0.0252,-0.0680,0.0050,-0.0072,0.0037,-2.6092,1.3490,3.0269
2024-10-11T13:13:20.293Z,0.0306,-0.9769,0.2210,-0.0408,0.0252,-0.0680,0.0040,-0.0084,0.0048,-2.6092,1.3490,3.0269
2024-10-11T13:13:20.305Z,0.0302,-0.9761,0.2220,-0.0498,0.0059,-0.0328,0.0030,-0.0083,0.0029,-2.6100,1.3489,3.0271
2024-10-11T13:13:20.313Z,0.0281,-0.9775,0.2207,-0.0498,0.0059,-0.0328,0.0021,-0.0098,0.0023,-2.6100,1.3489,3.0271
2024-10-11T13:13:20.324Z,0.0299,-0.9751,0.2197,-0.0498,0.0059,-0.0328,0.0027,-0.0096,0.0040,-2.6100,1.3489,3.0271
2024-10-11T13:13:20.335Z,0.0282,-0.9762,0.2182,-0.0302,0.0077,0.0065,0.0019,-0.0090,0.0069,-2.6108,1.3487,3.0274
2024-10-11T13:13:20.343Z,0.0315,-0.9786,0.2177,-0.0302,0.0077,0.0065,0.0028,-0.0070,0.0038,-2.6108,1.3487,3.0274
2024-10-11T13:13:20.354Z,0.0296,-0.9791,0.2147,-0.0302,0.0077,0.0065,0.0015,-0.0066,0.0030,-2.6108,1.3487,3.0274
2024-10-11T13:13:20.365Z,0.0287,-0.9800,0.2153,-0.0362,0.0454,0.0358,0.0032,-0.0061,0.0057,-2.6116,1.3486,3.0277
2024-10-11T13:13:20.374Z,0.0304,-0.9807,0.2123,-0.0362,0.0454,0.0358,0.0023,-0.0070,0.0051,-2.6116,1.3486,3.0277
2024-10-11T13:13:20.384Z,0.0300,-0.9816,0.2132,-0.0362,0.0454,0.0358,0.0017,-0.0107,0.0059,-2.6116,1.3486,3.0277
2024-10-11T13:13:20.393Z,0.0294,-0.9833,0.2148,-0.0362,0.0454,0.0358,0.0037,-0.0096,0.0051,-2.6116,1.3486,3.0277
2024-10-11T13:13:20.404Z,0.0279,-0.9808,0.2152,-0.0429,0.0775,0.0419,0.0043,-0.0120,0.0069,-2.6124,1.3485,3.0280
2024-10-11T13:13:20.414Z,0.0278,-0.9791,0.2163,-0.0429,0.0775,0.0419,0.0034,-0.0149,0.0082,-2.6124,1.3485,3.0280
2024-10-11T13:13:20.426Z,0.0219,-0.9781,0.2178,0.0295,0.0268,0.0137,0.0055,-0.0130,0.0052,-2.6134,1.3484,3.0283
2024-10-11T13:13:20.434Z,0.0197,-0.9767,0.2200,0.0295,0.0268,0.0137,0.0025,-0.0095,0.0031,-2.6134,1.3484,3.0283
2024-10-11T13:13:20.444Z,0.0179,-0.9747,0.2227,0.0295,0.0268,0.0137,0.0027,-0.0081,0.0033,-2.6134,1.3484,3.0283
2024-10-11T13:13:20.455Z,0.0159,-0.9734,0.2241,0.0889,-0.0187,-0.0479,0.0025,-0.0097,0.0036,-2.6140,1.3483,3.0284
2024-10-11T13:13:20.464Z,0.0161,-0.9727,0.2261,0.0889,-0.0187,-0.0479,-0.0005,-0.0048,0.0030,-2.6140,1.3483,3.0284
2024-10-11T13:13:20.474Z,0.0162,-0.9720,0.2278,0.0889,-0.0187,-0.0479,-0.0002,-0.0089,0.0016,-2.6140,1.3483,3.0284
2024-10-11T13:13:20.485Z,0.0171,-0.9680,0.2279,0.0775,-0.0722,-0.0847,0.0000,-0.0106,0.0019,-2.6144,1.3483,3.0282
2024-10-11T13:13:20.493Z,0.0195,-0.9702,0.2263,0.0775,-0.0722,-0.0847,-0.0002,-0.0095,0.0008,-2.6144,1.3483,3.0282
2024-10-11T13:13:20.504Z,0.0199,-0.9715,0.2233,0.0775,-0.0722,-0.0847,-0.0000,-0.0128,0.0033,-2.6144,1.3483,3.0282
2024-10-11T13:13:20.515Z,0.0218,-0.9712,0.2233,0.0308,-0.0406,-0.0391,-0.0001,-0.0119,0.0027,-2.6150,1.3483,3.0282
2024-10-11T13:13:20.524Z,0.0208,-0.9711,0.2215,0.0308,-0.0406,-0.0391,-0.0027,-0.0130,0.0045,-2.6150,1.3483,3.0282
2024-10-11T13:13:20.534Z,0.0205,-0.9713,0.2196,0.0308,-0.0406,-0.0391,0.0013,-0.0128,0.0028,-2.6150,1.3483,3.0282
2024-10-11T13:13:20.543Z,0.0226,-0.9747,0.2184,0.0308,-0.0406,-0.0391,0.0016,-0.0128,0.0018,-2.6150,1.3483,3.0282
2024-10-11T13:13:20.554Z,0.0231,-0.9764,0.2180,0.0227,-0.0065,0.0095,-0.0015,-0.0062,0.0019,-2.6159,1.3482,3.0285
2024-10-11T13:13:20.564Z,0.0244,-0.9810,0.2174,0.0227,-0.0065,0.0095,-0.0015,-0.0035,0.0032,-2.6159,1.3482,3.0285
2024-10-11T13:13:20.576Z,0.0247,-0.9814,0.2169,0.0015,0.0596,0.0242,-0.0004,0.0005,0.0014,-2.6166,1.3482,3.0288
2024-10-11T13:13:20.584Z,0.0229,-0.9817,0.2185,0.0015,0.0596,0.0242,0.0009,0.0023,0.0024,-2.6166,1.3482,3.0288
2024-10-11T13:13:20.593Z,0.0244,-0.9810,0.2162,0.0015,0.0596,0.0242,0.0023,0.0038,0.0008,-2.6166,1.3482,3.0288
2024-10-11T13:13:20.605Z,0.0215,-0.9793,0.2172,0.0324,0.0389,0.0216,-0.0011,0.0067,0.0019,-2.6170,1.3481,3.0291
2024-10-11T13:13:20.614Z,0.0220,-0.9762,0.2161,0.0324,0.0389,0.0216,0.0024,0.0041,0.0025,-2.6170,1.3481,3.0291
2024-10-11T13:13:20.624Z,0.0219,-0.9755,0.2148,0.0324,0.0389,0.0216,0.0030,0.0067,0.0015,-2.6170,1.3481,3.0291
2024-10-11T13:13:20.634Z,0.0222,-0.9745,0.2158,0.0241,-0.0083,0.0361,0.0026,0.0098,0.0008,-2.6175,1.3481,3.0296
2024-10-11T13:13:20.643Z,0.0228,-0.9734,0.2189,0.0241,-0.0083,0.0361,-0.0011,0.0139,0.0015,-2.6175,1.3481,3.0296
2024-10-11T13:13:20.654Z,0.0239,-0.9767,0.2189,0.0241,-0.0083,0.0361,-0.0026,0.0153,0.0019,-2.6175,1.3481,3.0296
2024-10-11T13:13:20.665Z,0.0225,-0.9785,0.2180,0.0204,0.0317,0.0150,0.0013,0.0150,0.0036,-2.6180,1.3481,3.0302
2024-10-11T13:13:20.675Z,0.0275,-0.9791,0.2191,0.0204,0.0317,0.0150,-0.0010,0.0196,0.0009,-2.6180,1.3481,3.0302
2024-10-11T13:13:20.684Z,0.0265,-0.9804,0.2193,0.0204,0.0317,0.0150,-0.0030,0.0191,0.0014,-2.6180,1.3481,3.0302
2024-10-11T13:13:20.695Z,0.0281,-0.9803,0.2244,-0.0374,0.0486,-0.0486,-0.0007,0.0257,0.0051,-2.6186,1.3482,3.0312
2024-10-11T13:13:20.704Z,0.0236,-0.9802,0.2256,-0.0374,0.0486,-0.0486,-0.0044,0.0264,0.0029,-2.6186,1.3482,3.0312
2024-10-11T13:13:20.714Z,0.0260,-0.9821,0.2261,-0.0374,0.0486,-0.0486,-0.0067,0.0312,0.0025,-2.6186,1.3482,3.0312
2024-10-11T13:13:20.726Z,0.0247,-0.9811,0.2279,-0.0064,0.0567,-0.0843,-0.0100,0.0394,0.0026,-2.6190,1.3484,3.0324
2024-10-11T13:13:20.734Z,0.0272,-0.9805,0.2265,-0.0064,0.0567,-0.0843,-0.0083,0.0395,0.0020,-2.6190,1.3484,3.0324
2024-10-11T13:13:20.744Z,0.0265,-0.9781,0.2266,-0.0064,0.0567,-0.0843,-0.0095,0.0388,0.0036,-2.6190,1.3484,3.0324
2024-10-11T13:13:20.754Z,0.0266,-0.9780,0.2249,-0.0283,0.0257,-0.0573,-0.0088,0.0379,0.0039,-2.6195,1.3486,3.0338
2024-10-11T13:13:20.764Z,0.0268,-0.9758,0.2254,-0.0283,0.0257,-0.0573,-0.0121,0.0382,0.0013,-2.6195,1.3486,3.0338
2024-10-11T13:13:20.774Z,0.0267,-0.9725,0.2247,-0.0283,0.0257,-0.0573,-0.0104,0.0382,0.0045,-2.6195,1.3486,3.0338
2024-10-11T13:13:20.784Z,0.0232,-0.9689,0.2223,0.0026,-0.0644,-0.0339,-0.0104,0.0354,0.0024,-2.6197,1.3489,3.0348
2024-10-11T13:13:20.794Z,0.0232,-0.9664,0.2207,0.0026,-0.0644,-0.0339,-0.0065,0.0353,-0.0002,-2.6197,1.3489,3.0348
2024-10-11T13:13:20.804Z,0.0227,-0.9655,0.2200,0.0026,-0.0644,-0.0339,-0.0108,0.0356,0.0002,-2.6197,1.3489,3.0348
2024-10-11T13:13:20.814Z,0.0209,-0.9680,0.2162,0.0234,-0.0737,0.0236,-0.0099,0.0338,-0.0017,-2.6195,1.3491,3.0354
2024-10-11T13:13:20.824Z,0.0192,-0.9699,0.2146,0.0234,-0.0737,0.0236,-0.0085,0.0292,-0.0071,-2.6195,1.3491,3.0354
2024-10-11T13:13:20.834Z,0.0190,-0.9727,0.2118,0.0234,-0.0737,0.0236,-0.0090,0.0280,-0.0064,-2.6195,1.3491,3.0354
2024-10-11T13:13:20.844Z,0.0212,-0.9755,0.2088,0.0210,-0.0006,0.0950,-0.0095,0.0241,-0.0084,-2.6186,1.3493,3.0350
2024-10-11T13:13:20.853Z,0.0248,-0.9777,0.2055,0.0210,-0.0006,0.0950,-0.0059,0.0178,-0.0066,-2.6186,1.3493,3.0350
2024-10-11T13:13:20.864Z,0.0293,-0.9782,0.2035,0.0210,-0.0006,0.0950,-0.0061,0.0165,-0.0098,-2.6186,1.3493,3.0350
2024-10-11T13:13:20.877Z,0.0273,-0.9793,0.2041,-0.0368,0.0363,0.1400,-0.0030,0.0106,-0.0087,-2.6175,1.3494,3.0342
2024-10-11T13:13:20.884Z,0.0278,-0.9791,0.2016,-0.0368,0.0363,0.1400,-0.0036,0.0125,-0.0083,-2.6175,1.3494,3.0342
2024-10-11T13:13:20.895Z,0.0280,-0.9783,0.2025,-0.0368,0.0363,0.1400,-0.0011,0.0115,-0.0099,-2.6175,1.3494,3.0342
2024-10-11T13:13:20.904Z,0.0268,-0.9765,0.2042,-0.0305,0.0088,0.1385,0.0002,0.0137,-0.0073,-2.6166,1.3494,3.0334
2024-10-11T13:13:20.914Z,0.0288,-0.9762,0.2055,-0.0305,0.0088,0.1385,0.0004,0.0159,-0.0083,-2.6166,1.3494,3.0334
2024-10-11T13:13:20.924Z,0.0287,-0.9749,0.2062,-0.0305,0.0088,0.1385,0.0008,0.0172,-0.0076,-2.6166,1.3494,3.0334
2024-10-11T13:13:20.934Z,0.0286,-0.9750,0.2072,-0.0463,-0.0058,0.1097,0.0033,0.0183,-0.0067,-2.6155,1.3493,3.0327
2024-10-11T13:13:20.943Z,0.0243,-0.9762,0.2109,-0.0463,-0.0058,0.1097,0.0030,0.0168,-0.0062,-2.6155,1.3493,3.0327
2024-10-11T13:13:20.954Z,0.0242,-0.9761,0.2128,-0.0463,-0.0058,0.1097,0.0012,0.0170,-0.0097,-2.6155,1.3493,3.0327
2024-10-11T13:13:20.964Z,0.0211,-0.9760,0.2149,0.0289,0.0048,0.0350,0.0031,0.0157,-0.0104,-2.6145,1.3492,3.0320
2024-10-11T13:13:20.975Z,0.0177,-0.9778,0.2167,0.0289,0.0048,0.0350,0.0037,0.0166,-0.0116,-2.6145,1.3492,3.0320
2024-10-11T13:13:20.984Z,0.0191,-0.9761,0.2191,0.0289,0.0048,0.0350,0.0050,0.0211,-0.0127,-2.6145,1.3492,3.0320
2024-10-11T13:13:20.994Z,0.0169,-0.9753,0.2208,0.0731,-0.0017,-0.0207,0.0074,0.0192,-0.0149,-2.6129,1.3490,3.0308
2024-10-11T13:13:21.004Z,0.0144,-0.9747,0.2225,0.0731,-0.0017,-0.0207,0.0022,0.0215,-0.0160,-2.6129,1.3490,3.0308
2024-10-11T13:13:21.014Z,0.0166,-0.9739,0.2203,0.0731,-0.0017,-0.0207,0.0048,0.0225,-0.0174,-2.6129,1.3490,3.0308
2024-10-11T13:13:21.025Z,0.0154,-0.9723,0.2233,0.0914,-0.0312,-0.0437,0.0061,0.0203,-0.0175,-2.6109,1.3488,3.0292
2024-10-11T13:13:21.033Z,0.0184,-0.9697,0.2217,0.0914,-0.0312,-0.0437,0.0066,0.0191,-0.0184,-2.6109,1.3488,3.0292
2024-10-11T13:13:21.043Z,0.0215,-0.9700,0.2224,0.0914,-0.0312,-0.0437,0.0053,0.0170,-0.0198,-2.6109,1.3488,3.0292
2024-10-11T13:13:21.054Z,0.0204,-0.9688,0.2227,0.0465,-0.0645,-0.0360,0.0047,0.0161,-0.0201,-2.6088,1.3485,3.0274
2024-10-11T13:13:21.064Z,0.0233,-0.9677,0.2195,0.0465,-0.0645,-0.0360,0.0041,0.0138,-0.0170,-2.6088,1.3485,3.0274
2024-10-11T13:13:21.075Z,0.0272,-0.9673,0.2202,0.0465,-0.0645,-0.0360,0.0054,0.0177,-0.0203,-2.6088,1.3485,3.0274
2024-10-11T13:13:21.084Z,0.0276,-0.9675,0.2180,-0.0197,-0.0770,0.0122,0.0059,0.0137,-0.0224,-2.6066,1.3483,3.0254
2024-10-11T13:13:21.094Z,0.0287,-0.9677,0.2167,-0.0197,-0.0770,0.0122,0.0075,0.0201,-0.0156,-2.6066,1.3483,3.0254
2024-10-11T13:13:21.103Z,0.0308,-0.9687,0.2142,-0.0197,-0.0770,0.0122,0.0052,0.0208,-0.0166,-2.6066,1.3483,3.0254
2024-10-11T13:13:21.114Z,0.0320,-0.9704,0.2102,-0.0595,-0.0481,0.0905,0.0052,0.0248,-0.0160,-2.6047,1.3480,3.0240
2024-10-11T13:13:21.126Z,0.0309,-0.9715,0.2096,-0.0595,-0.0481,0.0905,0.0051,0.0296,-0.0116,-2.6047,1.3480,3.0240
2024-10-11T13:13:21.134Z,0.0321,-0.9744,0.2079,-0.0595,-0.0481,0.0905,0.0039,0.0323,-0.0131,-2.6047,1.3480,3.0240
2024-10-11T13:13:21.144Z,0.0317,-0.9745,0.2062,-0.0552,-0.0073,0.1316,0.0081,0.0346,-0.0106,-2.6034,1.3478,3.0235
2024-10-11T13:13:21.153Z,0.0327,-0.9775,0.2082,-0.0552,-0.0073,0.1316,0.0057,0.0361,-0.0064,-2.6034,1.3478,3.0235
2024-10-11T13:13:21.164Z,0.0312,-0.9778,0.2076,-0.0552,-0.0073,0.1316,0.0044,0.0382,-0.0077,-2.6034,1.3478,3.0235
2024-10-11T13:13:21.175Z,0.0297,-0.9790,0.2080,-0.0357,0.0370,0.1157,0.0038,0.0423,-0.0060,-2.6028,1.3476,3.0238
2024-10-11T13:13:21.184Z,0.0283,-0.9790,0.2105,-0.0357,0.0370,0.1157,0.0031,0.0432,-0.0050,-2.6028,1.3476,3.0238
2024-10-11T13:13:21.194Z,0.0233,-0.9771,0.2158,-0.0357,0.0370,0.1157,0.0018,0.0442,-0.0044,-2.6028,1.3476,3.0238
2024-10-11T13:13:21.204Z,0.0269,-0.9755,0.2195,-0.0101,0.0032,0.0042,0.0014,0.0459,-0.0058,-2.6022,1.3475,3.0243
2024-10-11T13:13:21.214Z,0.0239,-0.9777,0.2226,-0.0101,0.0032,0.0042,-0.0016,0.0512,-0.0053,-2.6022,1.3475,3.0243
2024-10-11T13:13:21.225Z,0.0225,-0.9788,0.2248,-0.0101,0.0032,0.0042,0.0014,0.0520,-0.0067,-2.6022,1.3475,3.0243
2024-10-11T13:13:21.234Z,0.0229,-0.9819,0.2243,0.0279,0.0665,-0.0431,0.0002,0.0578,-0.0057,-2.6015,1.3475,3.0249
2024-10-11T13:13:21.244Z,0.0227,-0.9846,0.2248,0.0279,0.0665,-0.0431,-0.0016,0.0554,-0.0031,-2.6015,1.3475,3.0249
2024-10-11T13:13:21.253Z,0.0266,-0.9896,0.2258,0.0279,0.0665,-0.0431,-0.0041,0.0545,-0.0037,-2.6015,1.3475,3.0249
2024-10-11T13:13:21.264Z,0.0247,-0.9923,0.2221,0.0091,0.1675,-0.0218,-0.0019,0.0527,-0.0008,-2.6009,1.3476,3.0258
2024-10-11T13:13:21.275Z,0.0298,-0.9946,0.2199,0.0091,0.1675,-0.0218,-0.0076,0.0542,-0.0023,-2.6009,1.3476,3.0258
2024-10-11T13:13:21.284Z,0.0273,-0.9945,0.2178,0.0091,0.1675,-0.0218,-0.0040,0.0545,-0.0026,-2.6009,1.3476,3.0258
2024-10-11T13:13:21.295Z,0.0265,-0.9935,0.2152,-0.0113,0.1789,0.0448,-0.0063,0.0521,-0.0020,-2.6005,1.3478,3.0267
2024-10-11T13:13:21.304Z,0.0253,-0.9914,0.2149,-0.0113,0.1789,0.0448,-0.0096,0.0512,-0.0047,-2.6005,1.3478,3.0267
2024-10-11T13:13:21.314Z,0.0262,-0.9895,0.2154,-0.0113,0.1789,0.0448,-0.0107,0.0552,-0.0049,-2.6005,1.3478,3.0267
2024-10-11T13:13:21.325Z,0.0297,-0.9864,0.2156,-0.0446,0.1087,0.0389,-0.0089,0.0537,-0.0038,-2.6000,1.3480,3.0275
2024-10-11T13:13:21.334Z,0.0300,-0.9853,0.2163,-0.0446,0.1087,0.0389,-0.0107,0.0546,-0.0038,-2.6000,1.3480,3.0275
2024-10-11T13:13:21.344Z,0.0302,-0.9825,0.2192,-0.0446,0.1087,0.0389,-0.0097,0.0577,-0.0026,-2.6000,1.3480,3.0275
2024-10-11T13:13:21.354Z,0.0306,-0.9801,0.2194,-0.0555,0.0470,-0.0004,-0.0084,0.0542,-0.0051,-2.5995,1.3482,3.0284
2024-10-11T13:13:21.364Z,0.0266,-0.9766,0.2178,-0.0555,0.0470,-0.0004,-0.0099,0.0517,-0.0033,-2.5995,1.3482,3.0284
2024-10-11T13:13:21.374Z,0.0276,-0.9715,0.2204,-0.0555,0.0470,-0.0004,-0.0120,0.0509,-0.0019,-2.5995,1.3482,3.0284
2024-10-11T13:13:21.384Z,0.0256,-0.9709,0.2225,-0.0082,-0.0444,-0.0330,-0.0112,0.0508,-0.0059,-2.5991,1.3484,3.0292
2024-10-11T13:13:21.393Z,0.0271,-0.9677,0.2244,-0.0082,-0.0444,-0.0330,-0.0108,0.0487,-0.0039,-2.5991,1.3484,3.0292
2024-10-11T13:13:21.404Z,0.0251,-0.9667,0.2259,-0.0082,-0.0444,-0.0330,-0.0107,0.0463,-0.0052,-2.5991,1.3484,3.0292
2024-10-11T13:13:21.414Z,0.0250,-0.9663,0.2269,-0.0040,-0.0895,-0.0788,-0.0127,0.0489,-0.0045,-2.5983,1.3487,3.0297
2024-10-11T13:13:21.424Z,0.0246,-0.9656,0.2278,-0.0040,-0.0895,-0.0788,-0.0116,0.0501,-0.0049,-2.5983,1.3487,3.0297
2024-10-11T13:13:21.434Z,0.0245,-0.9654,0.2297,-0.0040,-0.0895,-0.0788,-0.0157,0.0504,-0.0100,-2.5983,1.3487,3.0297
2024-10-11T13:13:21.444Z,0.0259,-0.9676,0.2294,-0.0134,-0.0776,-0.1072,-0.0151,0.0511,-0.0079,-2.5972,1.3491,3.0299
2024-10-11T13:13:21.453Z,0.0258,-0.9701,0.2298,-0.0134,-0.0776,-0.1072,-0.0163,0.0558,-0.0052,-2.5972,1.3491,3.0299
2024-10-11T13:13:21.463Z,0.0289,-0.9735,0.2306,-0.0134,-0.0776,-0.1072,-0.0175,0.0544,-0.0089,-2.5972,1.3491,3.0299
2024-10-11T13:13:21.474Z,0.0298,-0.9739,0.2298,-0.0526,-0.0168,-0.1145,-0.0168,0.0534,-0.0050,-2.5960,1.3495,3.0301
2024-10-11T13:13:21.484Z,0.0320,-0.9779,0.2281,-0.0526,-0.0168,-0.1145,-0.0158,0.0531,-0.0061,-2.5960,1.3495,3.0301
2024-10-11T13:13:21.494Z,0.0341,-0.9776,0.2286,-0.0526,-0.0168,-0.1145,-0.0165,0.0530,-0.0060,-2.5960,1.3495,3.0301
2024-10-11T13:13:21.504Z,0.0327,-0.9792,0.2284,-0.0826,0.0345,-0.1046,-0.0126,0.0511,-0.0020,-2.5953,1.3499,3.0307
2024-10-11T13:13:21.514Z,0.0334,-0.9779,0.2255,-0.0826,0.0345,-0.1046,-0.0147,0.0483,-0.0044,-2.5953,1.3499,3.0307
2024-10-11T13:13:21.524Z,0.0298,-0.9772,0.2231,-0.0826,0.0345,-0.1046,-0.0146,0.0493,-0.0042,-2.5953,1.3499,3.0307
2024-10-11T13:13:21.534Z,0.0322,-0.9757,0.2243,-0.0795,-0.0004,-0.0674,-0.0131,0.0474,-0.0055,-2.5944,1.3503,3.0310
2024-10-11T13:13:21.543Z,0.0280,-0.9739,0.2233,-0.0795,-0.0004,-0.0674,-0.0131,0.0506,-0.0076,-2.5944,1.3503,3.0310
2024-10-11T13:13:21.555Z,0.0317,-0.9719,0.2214,-0.0795,-0.0004,-0.0674,-0.0122,0.0488,-0.0071,-2.5944,1.3503,3.0310
2024-10-11T13:13:21.564Z,0.0357,-0.9703,0.2206,-0.1136,-0.0545,-0.0337,-0.0099,0.0478,-0.0074,-2.5931,1.3505,3.0310
2024-10-11T13:13:21.574Z,0.0354,-0.9678,0.2182,-0.1136,-0.0545,-0.0337,-0.0100,0.0457,-0.0073,-2.5931,1.3505,3.0310
2024-10-11T13:13:21.584Z,0.0335,-0.9662,0.2164,-0.1136,-0.0545,-0.0337,-0.0083,0.0443,-0.0101,-2.5931,1.3505,3.0310
2024-10-11T13:13:21.593Z,0.0284,-0.9680,0.2097,-0.0417,-0.0770,0.0720,-0.0078,0.0523,-0.0109,-2.5917,1.3507,3.0308
2024-10-11T13:13:21.604Z,0.0179,-0.9725,0.1933,-0.0417,-0.0770,0.0720,-0.0107,0.0647,-0.0114,-2.5917,1.3507,3.0308
2024-10-11T13:13:21.614Z,0.0222,-0.9801,0.1844,-0.0417,-0.0770,0.0720,-0.0124,0.0708,-0.0127,-2.5917,1.3507,3.0308
2024-10-11T13:13:21.624Z,0.0257,-0.9764,0.1976,-0.0161,0.0048,0.1878,-0.0105,0.0582,-0.0077,-2.5904,1.3509,3.0311
2024-10-11T13:13:21.634Z,0.0365,-0.9651,0.2180,-0.0161,0.0048,0.1878,-0.0051,0.0429,-0.0020,-2.5904,1.3509,3.0311
2024-10-11T13:13:21.643Z,0.0315,-0.9627,0.2256,-0.0161,0.0048,0.1878,-0.0016,0.0361,-0.0043,-2.5904,1.3509,3.0311
2024-10-11T13:13:21.654Z,0.0285,-0.9687,0.2201,-0.0446,-0.0709,-0.0329,-0.0018,0.0390,-0.0057,-2.5898,1.3510,3.0314
2024-10-11T13:13:21.664Z,0.0218,-0.9724,0.2142,-0.0446,-0.0709,-0.0329,-0.0011,0.0407,-0.0058,-2.5898,1.3510,3.0314
2024-10-11T13:13:21.674Z,0.0252,-0.9697,0.2155,-0.0446,-0.0709,-0.0329,-0.0006,0.0445,-0.0063,-2.5898,1.3510,3.0314
2024-10-11T13:13:21.684Z,0.0222,-0.9697,0.2208,0.0170,-0.0609,-0.0400,-0.0052,0.0491,-0.0090,-2.5890,1.3510,3.0317
2024-10-11T13:13:21.693Z,0.0242,-0.9700,0.2164,0.0170,-0.0609,-0.0400,-0.0049,0.0536,-0.0095,-2.5890,1.3510,3.0317
2024-10-11T13:13:21.704Z,0.0252,-0.9757,0.2112,0.0170,-0.0609,-0.0400,-0.0048,0.0578,-0.0132,-2.5890,1.3510,3.0317
2024-10-11T13:13:21.714Z,0.0273,-0.9785,0.2115,-0.0328,0.0252,0.0494,-0.0072,0.0590,-0.0149,-2.5872,1.3512,3.0315
2024-10-11T13:13:21.724Z,0.0323,-0.9790,0.2106,-0.0328,0.0252,0.0494,-0.0065,0.0528,-0.0175,-2.5872,1.3512,3.0315
2024-10-11T13:13:21.734Z,0.0337,-0.9835,0.2084,-0.0328,0.0252,0.0494,-0.0059,0.0501,-0.0176,-2.5872,1.3512,3.0315
2024-10-11T13:13:21.744Z,0.0353,-0.9852,0.2082,-0.1099,0.0898,0.0814,-0.0042,0.0403,-0.0157,-2.5851,1.3512,3.0306
2024-10-11T13:13:21.754Z,0.0363,-0.9836,0.2050,-0.1099,0.0898,0.0814,-0.0005,0.0352,-0.0140,-2.5851,1.3512,3.0306
2024-10-11T13:13:21.764Z,0.0346,-0.9822,0.2049,-0.1099,0.0898,0.0814,-0.0012,0.0303,-0.0135,-2.5851,1.3512,3.0306
2024-10-11T13:13:21.775Z,0.0330,-0.9796,0.2032,-0.0841,0.0360,0.1304,0.0014,0.0297,-0.0144,-2.5832,1.3512,3.0294
2024-10-11T13:13:21.784Z,0.0311,-0.9752,0.2029,-0.0841,0.0360,0.1304,0.0006,0.0272,-0.0169,-2.5832,1.3512,3.0294
2024-10-11T13:13:21.793Z,0.0322,-0.9750,0.2046,-0.0841,0.0360,0.1304,0.0011,0.0264,-0.0172,-2.5832,1.3512,3.0294
2024-10-11T13:13:21.804Z,0.0349,-0.9733,0.2044,-0.0996,-0.0264,0.1197,0.0021,0.0268,-0.0180,-2.5811,1.3510,3.0279
2024-10-11T13:13:21.814Z,0.0381,-0.9724,0.2045,-0.0996,-0.0264,0.1197,0.0036,0.0269,-0.0163,-2.5811,1.3510,3.0279
2024-10-11T13:13:21.824Z,0.0375,-0.9726,0.2053,-0.0996,-0.0264,0.1197,0.0047,0.0221,-0.0157,-2.5811,1.3510,3.0279
2024-10-11T13:13:21.834Z,0.0388,-0.9715,0.2065,-0.1346,-0.0428,0.1013,0.0075,0.0155,-0.0131,-2.5792,1.3508,3.0263
2024-10-11T13:13:21.844Z,0.0392,-0.9719,0.2071,-0.1346,-0.0428,0.1013,0.0078,0.0107,-0.0140,-2.5792,1.3508,3.0263
2024-10-11T13:13:21.854Z,0.0407,-0.9717,0.2104,-0.1346,-0.0428,0.1013,0.0098,0.0062,-0.0114,-2.5792,1.3508,3.0263
2024-10-11T13:13:21.864Z,0.0431,-0.9731,0.2122,-0.1727,-0.0263,0.0485,0.0109,0.0014,-0.0128,-2.5778,1.3504,3.0248
2024-10-11T13:13:21.874Z,0.0444,-0.9746,0.2137,-0.1727,-0.0263,0.0485,0.0115,-0.0041,-0.0104,-2.5778,1.3504,3.0248
2024-10-11T13:13:21.884Z,0.0487,-0.9754,0.2157,-0.1727,-0.0263,0.0485,0.0116,-0.0060,-0.0055,-2.5778,1.3504,3.0248
2024-10-11T13:13:21.894Z,0.0491,-0.9733,0.2158,-0.2292,-0.0243,0.0166,0.0133,-0.0117,-0.0063,-2.5771,1.3500,3.0237
2024-10-11T13:13:21.904Z,0.0488,-0.9735,0.2186,-0.2292,-0.0243,0.0166,0.0124,-0.0101,-0.0045,-2.5771,1.3500,3.0237
2024-10-11T13:13:21.914Z,0.0470,-0.9726,0.2165,-0.2292,-0.0243,0.0166,0.0139,-0.0150,-0.0036,-2.5771,1.3500,3.0237
2024-10-11T13:13:21.924Z,0.0460,-0.9719,0.2178,-0.1961,-0.0364,0.0004,0.0131,-0.0139,-0.0024,-2.5769,1.3496,3.0228
2024-10-11T13:13:21.934Z,0.0405,-0.9718,0.2173,-0.1961,-0.0364,0.0004,0.0128,-0.0165,-0.0014,-2.5769,1.3496,3.0228
2024-10-11T13:13:21.944Z,0.0424,-0.9716,0.2186,-0.1961,-0.0364,0.0004,0.0103,-0.0197,-0.0009,-2.5769,1.3496,3.0228
2024-10-11T13:13:21.954Z,0.0405,-0.9709,0.2204,-0.1406,-0.0460,-0.0213,0.0095,-0.0175,-0.0002,-2.5770,1.3492,3.0221
2024-10-11T13:13:21.964Z,0.0406,-0.9711,0.2209,-0.1406,-0.0460,-0.0213,0.0126,-0.0219,0.0009,-2.5770,1.3492,3.0221
2024-10-11T13:13:21.974Z,0.0405,-0.9707,0.2222,-0.1406,-0.0460,-0.0213,0.0126,-0.0205,0.0025,-2.5770,1.3492,3.0221
2024-10-11T13:13:21.984Z,0.0442,-0.9705,0.2198,-0.1747,-0.0488,-0.0115,0.0103,-0.0184,0.0042,-2.5773,1.3488,3.0215
2024-10-11T13:13:21.995Z,0.0431,-0.9707,0.2218,-0.1747,-0.0488,-0.0115,0.0114,-0.0199,0.0070,-2.5773,1.3488,3.0215
2024-10-11T13:13:22.004Z,0.0453,-0.9704,0.2218,-0.1747,-0.0488,-0.0115,0.0100,-0.0195,0.0072,-2.5773,1.3488,3.0215
2024-10-11T13:13:22.014Z,0.0437,-0.9719,0.2197,-0.1687,-0.0342,-0.0078,0.0136,-0.0224,0.0112,-2.5779,1.3484,3.0211
2024-10-11T13:13:22.024Z,0.0429,-0.9726,0.2181,-0.1687,-0.0342,-0.0078,0.0108,-0.0195,0.0105,-2.5779,1.3484,3.0211
2024-10-11T13:13:22.034Z,0.0431,-0.9746,0.2178,-0.1687,-0.0342,-0.0078,0.0114,-0.0183,0.0144,-2.5779,1.3484,3.0211
2024-10-11T13:13:22.044Z,0.0399,-0.9761,0.2160,-0.1314,0.0076,0.0320,0.0100,-0.0160,0.0133,-2.5787,1.3481,3.0211
2024-10-11T13:13:22.054Z,0.0428,-0.9756,0.2153,-0.1314,0.0076,0.0320,0.0093,-0.0130,0.0151,-2.5787,1.3481,3.0211
2024-10-11T13:13:22.064Z,0.0421,-0.9775,0.2135,-0.1314,0.0076,0.0320,0.0085,-0.0125,0.0149,-2.5787,1.3481,3.0211
2024-10-11T13:13:22.074Z,0.0385,-0.9803,0.2130,-0.1155,0.0498,0.0654,0.0091,-0.0143,0.0139,-2.5792,1.3477,3.0207
2024-10-11T13:13:22.084Z,0.0342,-0.9820,0.2139,-0.1155,0.0498,0.0654,0.0120,-0.0167,0.0157,-2.5792,1.3477,3.0207
2024-10-11T13:13:22.094Z,0.0348,-0.9827,0.2113,-0.1155,0.0498,0.0654,0.0114,-0.0185,0.0156,-2.5792,1.3477,3.0207
2024-10-11T13:13:22.104Z,0.0358,-0.9810,0.2133,-0.0910,0.0578,0.0654,0.0131,-0.0202,0.0162,-2.5810,1.3474,3.0216
2024-10-11T13:13:22.114Z,0.0344,-0.9834,0.2155,-0.0910,0.0578,0.0654,0.0093,-0.0233,0.0163,-2.5810,1.3474,3.0216
2024-10-11T13:13:22.124Z,0.0342,-0.9843,0.2175,-0.0910,0.0578,0.0654,0.0097,-0.0223,0.0157,-2.5810,1.3474,3.0216
2024-10-11T13:13:22.134Z,0.0339,-0.9821,0.2190,-0.0745,0.0691,0.0126,0.0103,-0.0244,0.0171,-2.5832,1.3471,3.0228
2024-10-11T13:13:22.143Z,0.0298,-0.9795,0.2202,-0.0745,0.0691,0.0126,0.0094,-0.0252,0.0154,-2.5832,1.3471,3.0228
2024-10-11T13:13:22.154Z,0.0275,-0.9776,0.2227,-0.0745,0.0691,0.0126,0.0075,-0.0239,0.0176,-2.5832,1.3471,3.0228
2024-10-11T13:13:22.164Z,0.0234,-0.9756,0.2242,0.0266,0.0058,-0.0366,0.0087,-0.0253,0.0141,-2.5853,1.3469,3.0239
2024-10-11T13:13:22.174Z,0.0215,-0.9731,0.2233,0.0266,0.0058,-0.0366,0.0047,-0.0261,0.0133,-2.5853,1.3469,3.0239
2024-10-11T13:13:22.184Z,0.0221,-0.9730,0.2222,0.0266,0.0058,-0.0366,0.0051,-0.0228,0.0125,-2.5853,1.3469,3.0239
2024-10-11T13:13:22.195Z,0.0210,-0.9734,0.2204,0.0485,-0.0154,0.0025,0.0054,-0.0220,0.0113,-2.5872,1.3467,3.0247
2024-10-11T13:13:22.204Z,0.0227,-0.9735,0.2219,0.0485,-0.0154,0.0025,0.0055,-0.0227,0.0127,-2.5872,1.3467,3.0247
2024-10-11T13:13:22.215Z,0.0251,-0.9755,0.2209,0.0485,-0.0154,0.0025,0.0043,-0.0206,0.0124,-2.5872,1.3467,3.0247
2024-10-11T13:13:22.224Z,0.0267,-0.9778,0.2209,-0.0092,0.0283,-0.0003,0.0070,-0.0177,0.0106,-2.5890,1.3466,3.0256
2024-10-11T13:13:22.234Z,0.0275,-0.9789,0.2196,-0.0092,0.0283,-0.0003,0.0053,-0.0189,0.0115,-2.5890,1.3466,3.0256
2024-10-11T13:13:22.244Z,0.0251,-0.9800,0.2188,-0.0092,0.0283,-0.0003,0.0055,-0.0166,0.0103,-2.5890,1.3466,3.0256
2024-10-11T13:13:22.254Z,0.0253,-0.9807,0.2224,0.0024,0.0563,-0.0142,0.0011,-0.0177,0.0121,-2.5907,1.3465,3.0264
2024-10-11T13:13:22.264Z,0.0230,-0.9820,0.2213,0.0024,0.0563,-0.0142,0.0044,-0.0139,0.0071,-2.5907,1.3465,3.0264
2024-10-11T13:13:22.274Z,0.0214,-0.9823,0.2223,0.0024,0.0563,-0.0142,-0.0023,-0.0151,0.0084,-2.5907,1.3465,3.0264
2024-10-11T13:13:22.284Z,0.0227,-0.9832,0.2232,0.0257,0.0814,-0.0210,-0.0010,-0.0131,0.0100,-2.5923,1.3464,3.0274
2024-10-11T13:13:22.294Z,0.0200,-0.9809,0.2233,0.0257,0.0814,-0.0210,0.0003,-0.0135,0.0079,-2.5923,1.3464,3.0274
2024-10-11T13:13:22.304Z,0.0174,-0.9783,0.2235,0.0257,0.0814,-0.0210,-0.0032,-0.0106,0.0058,-2.5923,1.3464,3.0274
2024-10-11T13:13:22.313Z,0.0166,-0.9790,0.2229,0.0853,0.0394,-0.0186,-0.0028,-0.0138,0.0060,-2.5932,1.3465,3.0276
2024-10-11T13:13:22.324Z,0.0153,-0.9789,0.2239,0.0853,0.0394,-0.0186,-0.0048,-0.0108,0.0023,-2.5932,1.3465,3.0276
2024-10-11T13:13:22.334Z,0.0139,-0.9781,0.2246,0.0853,0.0394,-0.0186,-0.0018,-0.0091,0.0008,-2.5932,1.3465,3.0276
2024-10-11T13:13:22.344Z,0.0152,-0.9801,0.2245,0.0990,0.0499,-0.0357,-0.0048,-0.0082,-0.0011,-2.5935,1.3466,3.0274
2024-10-11T13:13:22.354Z,0.0171,-0.9800,0.2239,0.0990,0.0499,-0.0357,-0.0029,-0.0070,-0.0015,-2.5935,1.3466,3.0274
2024-10-11T13:13:22.363Z,0.0190,-0.9781,0.2254,0.0990,0.0499,-0.0357,-0.0028,-0.0078,-0.0009,-2.5935,1.3466,3.0274
2024-10-11T13:13:22.374Z,0.0186,-0.9787,0.2244,0.0675,0.0361,-0.0359,-0.0042,-0.0077,-0.0035,-2.5935,1.3467,3.0269
2024-10-11T13:13:22.384Z,0.0172,-0.9798,0.2254,0.0675,0.0361,-0.0359,-0.0043,-0.0053,-0.0027,-2.5935,1.3467,3.0269
2024-10-11T13:13:22.394Z,0.0193,-0.9789,0.2245,0.0675,0.0361,-0.0359,-0.0043,-0.0053,-0.0027,-2.5935,1.3467,3.0269
2024-10-11T13:13:22.405Z,0.0223,-0.9762,0.2263,0.0314,0.0115,-0.0550,-0.0077,-0.0041,-0.0035,-2.5937,1.3468,3.0267
2024-10-11T13:13:22.414Z,0.0245,-0.9742,0.2282,0.0314,0.0115,-0.0550,-0.0077,-0.0041,-0.0035,-2.5937,1.3468,3.0267
2024-10-11T13:13:22.424Z,0.0262,-0.9727,0.2261,0.0314,0.0115,-0.0550,-0.0079,-0.0041,-0.0024,-2.5937,1.3468,3.0267
2024-10-11T13:13:22.434Z,0.0297,-0.9710,0.2262,-0.0413,-0.0402,-0.0561,-0.0092,-0.0037,-0.0003,-2.5940,1.3470,3.0266
2024-10-11T13:13:22.444Z,0.0312,-0.9710,0.2243,-0.0413,-0.0402,-0.0561,-0.0110,-0.0005,-0.0040,-2.5940,1.3470,3.0266
2024-10-11T13:13:22.455Z,0.0308,-0.9707,0.2236,-0.0413,-0.0402,-0.0561,-0.0112,0.0019,-0.0004,-2.5940,1.3470,3.0266
2024-10-11T13:13:22.464Z,0.0321,-0.9718,0.2209,-0.0655,-0.0327,-0.0055,-0.0112,0.0019,-0.0004,-2.5941,1.3472,3.0266
2024-10-11T13:13:22.475Z,0.0312,-0.9721,0.2194,-0.0655,-0.0327,-0.0055,-0.0062,0.0054,0.0001,-2.5941,1.3472,3.0266
2024-10-11T13:13:22.485Z,0.0322,-0.9734,0.2175,-0.0655,-0.0327,-0.0055,-0.0106,0.0045,-0.0005,-2.5941,1.3472,3.0266
2024-10-11T13:13:22.494Z,0.0351,-0.9749,0.2164,-0.0956,-0.0029,0.0361,-0.0106,0.0045,-0.0005,-2.5945,1.3474,3.0268
2024-10-11T13:13:22.505Z,0.0319,-0.9743,0.2162,-0.0956,-0.0029,0.0361,-0.0059,0.0049,0.0041,-2.5945,1.3474,3.0268
2024-10-11T13:13:22.515Z,0.0326,-0.9753,0.2150,-0.0956,-0.0029,0.0361,-0.0073,0.0049,0.0037,-2.5945,1.3474,3.0268
2024-10-11T13:13:22.525Z,0.0336,-0.9764,0.2134,-0.0820,0.0117,0.0637,-0.0052,0.0040,0.0048,-2.5950,1.3476,3.0273
2024-10-11T13:13:22.533Z,0.0328,-0.9738,0.2114,-0.0820,0.0117,0.0637,-0.0052,0.0040,0.0048,-2.5950,1.3476,3.0273
2024-10-11T13:13:22.546Z,0.0282,-0.9754,0.2117,-0.0820,0.0117,0.0637,-0.0053,0.0039,0.0065,-2.5950,1.3476,3.0273
2024-10-11T13:13:22.555Z,0.0271,-0.9763,0.2080,-0.0192,0.0107,0.1158,-0.0036,0.0057,0.0063,-2.5956,1.3477,3.0277
2024-10-11T13:13:22.563Z,0.0264,-0.9738,0.2065,-0.0192,0.0107,0.1158,-0.0036,0.0057,0.0063,-2.5956,1.3477,3.0277
2024-10-11T13:13:22.574Z,0.0255,-0.9727,0.2066,-0.0192,0.0107,0.1158,-0.0015,0.0033,0.0022,-2.5956,1.3477,3.0277
2024-10-11T13:13:22.584Z,0.0259,-0.9716,0.2082,-0.0088,-0.0352,0.1137,-0.0002,0.0031,0.0040,-2.5963,1.3478,3.0283
2024-10-11T13:13:22.594Z,0.0230,-0.9736,0.2101,-0.0088,-0.0352,0.1137,-0.0002,0.0031,0.0040,-2.5963,1.3478,3.0283
2024-10-11T13:13:22.605Z,0.0228,-0.9745,0.2108,-0.0088,-0.0352,0.1137,0.0006,-0.0010,0.0058,-2.5963,1.3478,3.0283
2024-10-11T13:13:22.614Z,0.0217,-0.9737,0.2121,0.0320,-0.0154,0.0747,0.0008,0.0008,0.0031,-2.5967,1.3478,3.0285
2024-10-11T13:13:22.624Z,0.0214,-0.9720,0.2116,0.0320,-0.0154,0.0747,0.0005,-0.0007,0.0024,-2.5967,1.3478,3.0285
2024-10-11T13:13:22.634Z,0.0204,-0.9748,0.2128,0.0320,-0.0154,0.0747,0.0005,-0.0007,0.0024,-2.5967,1.3478,3.0285
2024-10-11T13:13:22.645Z,0.0206,-0.9759,0.2131,0.0428,0.0064,0.0656,0.0023,-0.0012,0.0031,-2.5972,1.3478,3.0287
2024-10-11T13:13:22.654Z,0.0219,-0.9766,0.2138,0.0428,0.0064,0.0656,0.0015,-0.0031,0.0037,-2.5972,1.3478,3.0287
2024-10-11T13:13:22.665Z,0.0229,-0.9757,0.2153,0.0428,0.0064,0.0656,0.0011,-0.0021,-0.0015,-2.5972,1.3478,3.0287
2024-10-11T13:13:22.674Z,0.0227,-0.9757,0.2163,0.0220,0.0043,0.0339,0.0015,-0.0020,0.0010,-2.5975,1.3478,3.0286
2024-10-11T13:13:22.684Z,0.0216,-0.9760,0.2194,0.0220,0.0043,0.0339,0.0021,0.0001,0.0016,-2.5975,1.3478,3.0286
2024-10-11T13:13:22.694Z,0.0220,-0.9748,0.2188,0.0220,0.0043,0.0339,0.0021,0.0001,0.0016,-2.5975,1.3478,3.0286
2024-10-11T13:13:22.704Z,0.0237,-0.9762,0.2176,0.0122,0.0098,0.0217,0.0036,0.0018,0.0017,-2.5979,1.3477,3.0288
2024-10-11T13:13:22.715Z,0.0238,-0.9758,0.2174,0.0122,0.0098,0.0217,0.0011,0.0043,-0.0004,-2.5979,1.3477,3.0288
2024-10-11T13:13:22.725Z,0.0243,-0.9756,0.2182,0.0122,0.0098,0.0217,0.0017,0.0078,0.0010,-2.5979,1.3477,3.0288
2024-10-11T13:13:22.734Z,0.0245,-0.9747,0.2170,0.0030,-0.0051,0.0282,0.0035,0.0048,0.0033,-2.5985,1.3476,3.0292
2024-10-11T13:13:22.745Z,0.0254,-0.9754,0.2202,0.0030,-0.0051,0.0282,0.0035,0.0048,0.0033,-2.5985,1.3476,3.0292
2024-10-11T13:13:22.754Z,0.0269,-0.9761,0.2217,0.0030,-0.0051,0.0282,0.0011,0.0066,0.0005,-2.5985,1.3476,3.0292
2024-10-11T13:13:22.764Z,0.0263,-0.9764,0.2210,-0.0160,0.0119,-0.0102,0.0019,0.0057,0.0028,-2.5992,1.3476,3.0299
2024-10-11T13:13:22.774Z,0.0233,-0.9778,0.2206,-0.0160,0.0119,-0.0102,0.0016,0.0062,0.0026,-2.5992,1.3476,3.0299
2024-10-11T13:13:22.784Z,0.0250,-0.9769,0.2207,-0.0160,0.0119,-0.0102,0.0002,0.0084,0.0021,-2.5992,1.3476,3.0299
2024-10-11T13:13:22.795Z,0.0237,-0.9753,0.2185,0.0082,0.0012,0.0144,0.0002,0.0084,0.0021,-2.5998,1.3476,3.0305
2024-10-11T13:13:22.804Z,0.0245,-0.9748,0.2196,0.0082,0.0012,0.0144,0.0024,0.0093,0.0039,-2.5998,1.3476,3.0305
2024-10-11T13:13:22.814Z,0.0249,-0.9738,0.2190,0.0082,0.0012,0.0144,0.0010,0.0165,0.0016,-2.5998,1.3476,3.0305
2024-10-11T13:13:22.824Z,0.0255,-0.9716,0.2187,0.0034,-0.0243,0.0225,0.0026,0.0178,0.0042,-2.6001,1.3476,3.0309
2024-10-11T13:13:22.834Z,0.0255,-0.9716,0.2187,0.0034,-0.0243,0.0225,0.0015,0.0214,0.0028,-2.6001,1.3476,3.0309
2024-10-11T13:13:22.844Z,0.0253,-0.9727,0.2184,0.0034,-0.0243,0.0225,0.0015,0.0214,0.0028,-2.6001,1.3476,3.0309
2024-10-11T13:13:22.854Z,0.0256,-0.9727,0.2179,-0.0116,-0.0240,0.0221,0.0034,0.0231,0.0033,-2.5999,1.3474,3.0311
2024-10-11T13:13:22.864Z,0.0228,-0.9739,0.2190,-0.0116,-0.0240,0.0221,0.0037,0.0245,0.0059,-2.5999,1.3474,3.0311
2024-10-11T13:13:22.874Z,0.0257,-0.9729,0.2207,-0.0116,-0.0240,0.0221,0.0029,0.0258,0.0017,-2.5999,1.3474,3.0311
2024-10-11T13:13:22.884Z,0.0268,-0.9726,0.2215,-0.0255,-0.0246,-0.0126,-0.0004,0.0256,0.0030,-2.6006,1.3474,3.0322
2024-10-11T13:13:22.895Z,0.0270,-0.9734,0.2239,-0.0255,-0.0246,-0.0126,0.0022,0.0279,0.0049,-2.6006,1.3474,3.0322
2024-10-11T13:13:22.904Z,0.0285,-0.9730,0.2242,-0.0255,-0.0246,-0.0126,-0.0025,0.0278,0.0035,-2.6006,1.3474,3.0322
2024-10-11T13:13:22.914Z,0.0273,-0.9708,0.2247,-0.0326,-0.0426,-0.0437,0.0012,0.0301,0.0081,-2.6012,1.3474,3.0334
2024-10-11T13:13:22.924Z,0.0256,-0.9726,0.2265,-0.0326,-0.0426,-0.0437,-0.0017,0.0309,0.0038,-2.6012,1.3474,3.0334
2024-10-11T13:13:22.934Z,0.0256,-0.9735,0.2254,-0.0326,-0.0426,-0.0437,-0.0005,0.0320,0.0068,-2.6012,1.3474,3.0334
2024-10-11T13:13:22.945Z,0.0271,-0.9723,0.2259,-0.0341,-0.0277,-0.0550,-0.0021,0.0331,0.0059,-2.6022,1.3474,3.0349
2024-10-11T13:13:22.954Z,0.0301,-0.9728,0.2259,-0.0341,-0.0277,-0.0550,-0.0024,0.0328,0.0039,-2.6022,1.3474,3.0349
2024-10-11T13:13:22.964Z,0.0312,-0.9738,0.2252,-0.0341,-0.0277,-0.0550,-0.0033,0.0317,0.0088,-2.6022,1.3474,3.0349
2024-10-11T13:13:22.974Z,0.0311,-0.9779,0.2249,-0.0784,0.0028,-0.0462,-0.0009,0.0296,0.0090,-2.6030,1.3474,3.0365
2024-10-11T13:13:22.985Z,0.0305,-0.9792,0.2250,-0.0784,0.0028,-0.0462,-0.0024,0.0292,0.0076,-2.6030,1.3474,3.0365
2024-10-11T13:13:22.994Z,0.0305,-0.9792,0.2250,-0.0784,0.0028,-0.0462,-0.0050,0.0267,0.0098,-2.6030,1.3474,3.0365
2024-10-11T13:13:23.004Z,0.0272,-0.9809,0.2232,-0.0667,0.0446,-0.0341,-0.0027,0.0266,0.0089,-2.6040,1.3475,3.0381
2024-10-11T13:13:23.014Z,0.0239,-0.9790,0.2215,-0.0667,0.0446,-0.0341,-0.0027,0.0266,0.0089,-2.6040,1.3475,3.0381
2024-10-11T13:13:23.024Z,0.0239,-0.9790,0.2215,-0.0667,0.0446,-0.0341,-0.0031,0.0211,0.0056,-2.6040,1.3475,3.0381
2024-10-11T13:13:23.034Z,0.0227,-0.9812,0.2192,-0.0090,0.0429,-0.0092,-0.0033,0.0215,0.0033,-2.6048,1.3475,3.0393
2024-10-11T13:13:23.045Z,0.0227,-0.9812,0.2192,-0.0090,0.0429,-0.0092,-0.0038,0.0213,0.0045,-2.6048,1.3475,3.0393
2024-10-11T13:13:23.054Z,0.0232,-0.9793,0.2191,-0.0090,0.0429,-0.0092,-0.0032,0.0185,0.0022,-2.6048,1.3475,3.0393
2024-10-11T13:13:23.064Z,0.0242,-0.9780,0.2201,-0.0167,0.0279,0.0012,-0.0034,0.0133,0.0003,-2.6050,1.3476,3.0398
2024-10-11T13:13:23.074Z,0.0244,-0.9767,0.2213,-0.0167,0.0279,0.0012,-0.0065,0.0139,0.0013,-2.6050,1.3476,3.0398
2024-10-11T13:13:23.084Z,0.0244,-0.9767,0.2213,-0.0167,0.0279,0.0012,-0.0039,0.0096,0.0004,-2.6050,1.3476,3.0398
2024-10-11T13:13:23.096Z,0.0243,-0.9773,0.2217,-0.0175,0.0202,-0.0157,-0.0052,0.0069,-0.0015,-2.6050,1.3477,3.0398
2024-10-11T13:13:23.104Z,0.0229,-0.9774,0.2225,-0.0175,0.0202,-0.0157,-0.0061,0.0061,-0.0017,-2.6050,1.3477,3.0398
2024-10-11T13:13:23.114Z,0.0229,-0.9774,0.2225,-0.0175,0.0202,-0.0157,-0.0068,0.0030,-0.0025,-2.6050,1.3477,3.0398
2024-10-11T13:13:23.124Z,0.0226,-0.9784,0.2248,0.0107,0.0298,-0.0394,-0.0063,-0.0016,-0.0041,-2.6047,1.3479,3.0394
2024-10-11T13:13:23.134Z,0.0226,-0.9784,0.2248,0.0107,0.0298,-0.0394,-0.0071,-0.0005,-0.0056,-2.6047,1.3479,3.0394
2024-10-11T13:13:23.146Z,0.0186,-0.9801,0.2231,0.0107,0.0298,-0.0394,-0.0079,-0.0012,-0.0065,-2.6047,1.3479,3.0394
2024-10-11T13:13:23.154Z,0.0241,-0.9808,0.2222,0.0411,0.0471,-0.0325,-0.0074,-0.0013,-0.0080,-2.6039,1.3480,3.0385
2024-10-11T13:13:23.164Z,0.0229,-0.9813,0.2213,0.0411,0.0471,-0.0325,-0.0100,-0.0003,-0.0065,-2.6039,1.3480,3.0385
2024-10-11T13:13:23.175Z,0.0251,-0.9811,0.2209,0.0411,0.0471,-0.0325,-0.0091,0.0014,-0.0064,-2.6039,1.3480,3.0385
2024-10-11T13:13:23.184Z,0.0251,-0.9811,0.2209,-0.0202,0.0571,-0.0124,-0.0087,-0.0008,-0.0062,-2.6026,1.3482,3.0370
2024-10-11T13:13:23.194Z,0.0254,-0.9755,0.2208,-0.0202,0.0571,-0.0124,-0.0085,-0.0012,-0.0091,-2.6026,1.3482,3.0370
2024-10-11T13:13:23.204Z,0.0253,-0.9722,0.2203,-0.0202,0.0571,-0.0124,-0.0111,-0.0007,-0.0058,-2.6026,1.3482,3.0370
2024-10-11T13:13:23.215Z,0.0240,-0.9703,0.2202,-0.0210,-0.0311,-0.0079,-0.0108,-0.0007,-0.0062,-2.6022,1.3483,3.0363
2024-10-11T13:13:23.224Z,0.0213,-0.9711,0.2184,-0.0210,-0.0311,-0.0079,-0.0099,-0.0016,-0.0059,-2.6022,1.3483,3.0363
2024-10-11T13:13:23.234Z,0.0179,-0.9722,0.2194,-0.0210,-0.0311,-0.0079,-0.0102,-0.0011,-0.0077,-2.6022,1.3483,3.0363
2024-10-11T13:13:23.245Z,0.0190,-0.9717,0.2175,0.0545,-0.0311,-0.0015,-0.0098,0.0007,-0.0069,-2.6014,1.3485,3.0352
2024-10-11T13:13:23.254Z,0.0182,-0.9716,0.2168,0.0545,-0.0311,-0.0015,-0.0113,0.0043,-0.0091,-2.6014,1.3485,3.0352
2024-10-11T13:13:23.265Z,0.0188,-0.9710,0.2138,0.0545,-0.0311,-0.0015,-0.0101,0.0015,-0.0101,-2.6014,1.3485,3.0352
2024-10-11T13:13:23.274Z,0.0188,-0.9742,0.2124,0.0483,-0.0432,0.0507,-0.0074,-0.0016,-0.0089,-2.6002,1.3487,3.0338
2024-10-11T13:13:23.284Z,0.0204,-0.9749,0.2143,0.0483,-0.0432,0.0507,-0.0077,0.0002,-0.0098,-2.6002,1.3487,3.0338
2024-10-11T13:13:23.296Z,0.0219,-0.9762,0.2128,0.0483,-0.0432,0.0507,-0.0098,-0.0001,-0.0095,-2.6002,1.3487,3.0338
2024-10-11T13:13:23.304Z,0.0234,-0.9767,0.2131,0.0204,0.0069,0.0590,-0.0074,-0.0011,-0.0096,-2.5990,1.3489,3.0324
2024-10-11T13:13:23.314Z,0.0187,-0.9768,0.2129,0.0204,0.0069,0.0590,-0.0097,-0.0037,-0.0082,-2.5990,1.3489,3.0324
2024-10-11T13:13:23.324Z,0.0211,-0.9763,0.2130,0.0204,0.0069,0.0590,-0.0083,-0.0017,-0.0107,-2.5990,1.3489,3.0324
2024-10-11T13:13:23.334Z,0.0192,-0.9738,0.2135,0.0309,0.0073,0.0547,-0.0100,-0.0008,-0.0136,-2.5978,1.3491,3.0309
2024-10-11T13:13:23.345Z,0.0207,-0.9751,0.2147,0.0309,0.0073,0.0547,-0.0088,0.0013,-0.0108,-2.5978,1.3491,3.0309
2024-10-11T13:13:23.354Z,0.0216,-0.9750,0.2149,0.0309,0.0073,0.0547,-0.0086,0.0026,-0.0113,-2.5978,1.3491,3.0309
2024-10-11T13:13:23.365Z,0.0242,-0.9755,0.2161,0.0294,-0.0059,0.0332,-0.0097,0.0071,-0.0109,-2.5964,1.3494,3.0294
2024-10-11T13:13:23.374Z,0.0274,-0.9747,0.2152,0.0294,-0.0059,0.0332,-0.0083,0.0039,-0.0118,-2.5964,1.3494,3.0294
2024-10-11T13:13:23.384Z,0.0288,-0.9740,0.2157,0.0294,-0.0059,0.0332,-0.0072,0.0042,-0.0084,-2.5964,1.3494,3.0294
2024-10-11T13:13:23.394Z,0.0298,-0.9736,0.2141,-0.0389,-0.0158,0.0226,-0.0067,0.0050,-0.0111,-2.5953,1.3496,3.0282
2024-10-11T13:13:23.404Z,0.0303,-0.9734,0.2117,-0.0389,-0.0158,0.0226,-0.0078,0.0073,-0.0073,-2.5953,1.3496,3.0282
2024-10-11T13:13:23.414Z,0.0303,-0.9734,0.2117,-0.0389,-0.0158,0.0226,-0.0069,0.0028,-0.0071,-2.5953,1.3496,3.0282
2024-10-11T13:13:23.424Z,0.0327,-0.9718,0.2054,-0.0741,-0.0376,0.0809,-0.0068,0.0032,-0.0043,-2.5945,1.3497,3.0273
2024-10-11T13:13:23.434Z,0.0339,-0.9719,0.2048,-0.0741,-0.0376,0.0809,-0.0045,0.0030,-0.0019,-2.5945,1.3497,3.0273
2024-10-11T13:13:23.444Z,0.0340,-0.9708,0.2029,-0.0741,-0.0376,0.0809,-0.0067,0.0043,-0.0033,-2.5945,1.3497,3.0273
2024-10-11T13:13:23.454Z,0.0320,-0.9711,0.2017,-0.0872,-0.0478,0.1447,-0.0036,0.0041,0.0000,-2.5943,1.3499,3.0270
2024-10-11T13:13:23.464Z,0.0320,-0.9711,0.2017,-0.0872,-0.0478,0.1447,-0.0016,0.0010,-0.0029,-2.5943,1.3499,3.0270
2024-10-11T13:13:23.474Z,0.0306,-0.9737,0.2003,-0.0872,-0.0478,0.1447,0.0002,0.0023,-0.0012,-2.5943,1.3499,3.0270
2024-10-11T13:13:23.484Z,0.0296,-0.9752,0.2010,-0.0531,-0.0196,0.1712,0.0040,-0.0001,-0.0013,-2.5941,1.3499,3.0266
2024-10-11T13:13:23.494Z,0.0310,-0.9771,0.2038,-0.0531,-0.0196,0.1712,0.0063,0.0019,-0.0022,-2.5941,1.3499,3.0266
2024-10-11T13:13:23.504Z,0.0339,-0.9779,0.2079,-0.0531,-0.0196,0.1712,0.0061,0.0046,-0.0018,-2.5941,1.3499,3.0266
2024-10-11T13:13:23.514Z,0.0328,-0.9783,0.2102,-0.0847,0.0219,0.0985,0.0097,0.0023,-0.0009,-2.5940,1.3496,3.0264
2024-10-11T13:13:23.524Z,0.0353,-0.9765,0.2121,-0.0847,0.0219,0.0985,0.0098,0.0007,-0.0023,-2.5940,1.3496,3.0264
2024-10-11T13:13:23.534Z,0.0329,-0.9769,0.2162,-0.0847,0.0219,0.0985,0.0089,0.0005,-0.0011,-2.5940,1.3496,3.0264
2024-10-11T13:13:23.544Z,0.0357,-0.9754,0.2189,-0.0743,0.0132,0.0192,0.0115,-0.0039,-0.0006,-2.5941,1.3494,3.0262
2024-10-11T13:13:23.553Z,0.0312,-0.9723,0.2213,-0.0743,0.0132,0.0192,0.0077,-0.0049,-0.0013,-2.5941,1.3494,3.0262
2024-10-11T13:13:23.564Z,0.0312,-0.9723,0.2213,-0.0743,0.0132,0.0192,0.0110,-0.0055,-0.0018,-2.5941,1.3494,3.0262
2024-10-11T13:13:23.574Z,0.0283,-0.9715,0.2248,-0.0413,-0.0378,-0.0552,0.0077,-0.0068,-0.0017,-2.5943,1.3490,3.0260
2024-10-11T13:13:23.584Z,0.0241,-0.9705,0.2251,-0.0413,-0.0378,-0.0552,0.0083,-0.0060,-0.0024,-2.5943,1.3490,3.0260
2024-10-11T13:13:23.594Z,0.0241,-0.9665,0.2242,-0.0413,-0.0378,-0.0552,0.0067,-0.0057,-0.0027,-2.5943,1.3490,3.0260
2024-10-11T13:13:23.604Z,0.0252,-0.9696,0.2236,0.0138,-0.0880,-0.0538,0.0077,-0.0041,-0.0043,-2.5942,1.3488,3.0255
2024-10-11T13:13:23.614Z,0.0252,-0.9696,0.2236,0.0138,-0.0880,-0.0538,0.0058,-0.0045,-0.0044,-2.5942,1.3488,3.0255
2024-10-11T13:13:23.624Z,0.0246,-0.9768,0.2220,0.0138,-0.0880,-0.0538,0.0045,-0.0047,-0.0027,-2.5942,1.3488,3.0255
2024-10-11T13:13:23.634Z,0.0228,-0.9787,0.2191,0.0110,0.0133,-0.0312,0.0037,-0.0035,-0.0040,-2.5938,1.3486,3.0247
2024-10-11T13:13:23.644Z,0.0272,-0.9823,0.2185,0.0110,0.0133,-0.0312,0.0012,-0.0010,-0.0039,-2.5938,1.3486,3.0247
2024-10-11T13:13:23.654Z,0.0246,-0.9843,0.2149,0.0110,0.0133,-0.0312,0.0006,0.0002,-0.0035,-2.5938,1.3486,3.0247
2024-10-11T13:13:23.664Z,0.0246,-0.9843,0.2149,0.0126,0.0876,0.0399,0.0014,0.0020,-0.0052,-2.5934,1.3485,3.0240
2024-10-11T13:13:23.674Z,0.0254,-0.9885,0.2139,0.0126,0.0876,0.0399,-0.0008,0.0045,-0.0051,-2.5934,1.3485,3.0240
2024-10-11T13:13:23.684Z,0.0240,-0.9876,0.2098,0.0126,0.0876,0.0399,-0.0011,0.0084,-0.0048,-2.5934,1.3485,3.0240
2024-10-11T13:13:23.694Z,0.0250,-0.9870,0.2099,0.0195,0.1196,0.0900,-0.0038,0.0086,-0.0070,-2.5929,1.3485,3.0234
2024-10-11T13:13:23.704Z,0.0238,-0.9859,0.2117,0.0195,0.1196,0.0900,-0.0020,0.0108,-0.0070,-2.5929,1.3485,3.0234
2024-10-11T13:13:23.714Z,0.0268,-0.9835,0.2146,0.0195,0.1196,0.0900,-0.0021,0.0133,-0.0068,-2.5929,1.3485,3.0234
2024-10-11T13:13:23.724Z,0.0301,-0.9809,0.2148,-0.0067,0.0793,0.0421,-0.0033,0.0160,-0.0065,-2.5921,1.3485,3.0228
2024-10-11T13:13:23.734Z,0.0301,-0.9800,0.2179,-0.0067,0.0793,0.0421,-0.0030,0.0223,-0.0079,-2.5921,1.3485,3.0228
2024-10-11T13:13:23.744Z,0.0313,-0.9777,0.2185,-0.0067,0.0793,0.0421,-0.0069,0.0256,-0.0071,-2.5921,1.3485,3.0228
2024-10-11T13:13:23.754Z,0.0293,-0.9769,0.2187,-0.0502,0.0225,0.0033,-0.0069,0.0267,-0.0078,-2.5914,1.3486,3.0225
2024-10-11T13:13:23.765Z,0.0289,-0.9747,0.2175,-0.0502,0.0225,0.0033,-0.0048,0.0304,-0.0053,-2.5914,1.3486,3.0225
2024-10-11T13:13:23.774Z,0.0275,-0.9732,0.2165,-0.0502,0.0225,0.0033,-0.0079,0.0352,-0.0035,-2.5914,1.3486,3.0225
2024-10-11T13:13:23.783Z,0.0256,-0.9730,0.2163,-0.0134,-0.0225,0.0210,-0.0069,0.0337,-0.0022,-2.5908,1.3488,3.0225
2024-10-11T13:13:23.794Z,0.0273,-0.9729,0.2154,-0.0134,-0.0225,0.0210,-0.0081,0.0349,-0.0046,-2.5908,1.3488,3.0225
2024-10-11T13:13:23.804Z,0.0245,-0.9745,0.2124,-0.0134,-0.0225,0.0210,-0.0071,0.0367,-0.0012,-2.5908,1.3488,3.0225
2024-10-11T13:13:23.815Z,0.0236,-0.9762,0.2107,0.0157,-0.0095,0.0589,-0.0080,0.0387,-0.0019,-2.5902,1.3490,3.0228
2024-10-11T13:13:23.824Z,0.0224,-0.9769,0.2104,0.0157,-0.0095,0.0589,-0.0096,0.0372,-0.0046,-2.5902,1.3490,3.0228
2024-10-11T13:13:23.834Z,0.0245,-0.9761,0.2095,0.0157,-0.0095,0.0589,-0.0090,0.0378,-0.0066,-2.5902,1.3490,3.0228
2024-10-11T13:13:23.844Z,0.0262,-0.9740,0.2082,0.0142,0.0054,0.0846,-0.0096,0.0380,-0.0038,-2.5898,1.3493,3.0233
2024-10-11T13:13:23.854Z,0.0241,-0.9755,0.2087,0.0142,0.0054,0.0846,-0.0080,0.0361,-0.0032,-2.5898,1.3493,3.0233
2024-10-11T13:13:23.864Z,0.0233,-0.9751,0.2093,0.0142,0.0054,0.0846,-0.0082,0.0386,-0.0040,-2.5898,1.3493,3.0233
2024-10-11T13:13:23.874Z,0.0243,-0.9760,0.2101,0.0253,-0.0050,0.0848,-0.0062,0.0359,-0.0066,-2.5892,1.3495,3.0235
2024-10-11T13:13:23.884Z,0.0247,-0.9762,0.2109,0.0253,-0.0050,0.0848,-0.0072,0.0370,-0.0060,-2.5892,1.3495,3.0235
2024-10-11T13:13:23.894Z,0.0265,-0.9773,0.2104,0.0253,-0.0050,0.0848,-0.0052,0.0358,-0.0064,-2.5892,1.3495,3.0235
2024-10-11T13:13:23.903Z,0.0262,-0.9773,0.2108,-0.0066,0.0167,0.0732,-0.0032,0.0350,-0.0056,-2.5884,1.3496,3.0236
2024-10-11T13:13:23.914Z,0.0273,-0.9749,0.2125,-0.0066,0.0167,0.0732,-0.0047,0.0329,-0.0049,-2.5884,1.3496,3.0236
2024-10-11T13:13:23.924Z,0.0292,-0.9740,0.2125,-0.0066,0.0167,0.0732,-0.0026,0.0322,-0.0069,-2.5884,1.3496,3.0236
2024-10-11T13:13:23.934Z,0.0295,-0.9733,0.2115,-0.0334,-0.0163,0.0521,-0.0007,0.0283,-0.0063,-2.5877,1.3497,3.0236
2024-10-11T13:13:23.944Z,0.0281,-0.9726,0.2136,-0.0334,-0.0163,0.0521,-0.0020,0.0286,-0.0054,-2.5877,1.3497,3.0236
2024-10-11T13:13:23.954Z,0.0292,-0.9723,0.2146,-0.0334,-0.0163,0.0521,-0.0028,0.0296,-0.0017,-2.5877,1.3497,3.0236
2024-10-11T13:13:23.964Z,0.0295,-0.9718,0.2151,-0.0340,-0.0330,0.0304,-0.0020,0.0296,-0.0066,-2.5873,1.3498,3.0238
2024-10-11T13:13:23.975Z,0.0276,-0.9733,0.2172,-0.0340,-0.0330,0.0304,-0.0022,0.0316,-0.0044,-2.5873,1.3498,3.0238
2024-10-11T13:13:23.984Z,0.0274,-0.9758,0.2176,-0.0340,-0.0330,0.0304,-0.0058,0.0330,-0.0067,-2.5873,1.3498,3.0238
2024-10-11T13:13:23.994Z,0.0250,-0.9788,0.2193,-0.0159,0.0011,-0.0007,-0.0024,0.0321,-0.0055,-2.5865,1.3499,3.0238
2024-10-11T13:13:24.004Z,0.0264,-0.9800,0.2208,-0.0159,0.0011,-0.0007,-0.0031,0.0336,-0.0076,-2.5865,1.3499,3.0238
2024-10-11T13:13:24.014Z,0.0249,-0.9812,0.2218,-0.0159,0.0011,-0.0007,-0.0043,0.0326,-0.0052,-2.5865,1.3499,3.0238
2024-10-11T13:13:24.024Z,0.0252,-0.9796,0.2221,0.0083,0.0543,-0.0422,-0.0007,0.0372,-0.0052,-2.5858,1.3500,3.0238
2024-10-11T13:13:24.034Z,0.0275,-0.9779,0.2213,0.0083,0.0543,-0.0422,-0.0022,0.0365,-0.0054,-2.5858,1.3500,3.0238
2024-10-11T13:13:24.044Z,0.0272,-0.9762,0.2215,0.0083,0.0543,-0.0422,-0.0025,0.0367,-0.0066,-2.5858,1.3500,3.0238
2024-10-11T13:13:24.054Z,0.0273,-0.9763,0.2195,-0.0140,0.0051,-0.0386,-0.0037,0.0341,-0.0060,-2.5850,1.3500,3.0238
2024-10-11T13:13:24.064Z,0.0303,-0.9749,0.2180,-0.0140,0.0051,-0.0386,-0.0025,0.0360,-0.0029,-2.5850,1.3500,3.0238
2024-10-11T13:13:24.074Z,0.0319,-0.9742,0.2173,-0.0140,0.0051,-0.0386,-0.0028,0.0325,-0.0055,-2.5850,1.3500,3.0238
2024-10-11T13:13:24.084Z,0.0328,-0.9735,0.2156,-0.0606,-0.0154,0.0016,-0.0020,0.0315,-0.0061,-2.5842,1.3500,3.0238
2024-10-11T13:13:24.094Z,0.0345,-0.9727,0.2147,-0.0606,-0.0154,0.0016,-0.0027,0.0302,-0.0046,-2.5842,1.3500,3.0238
2024-10-11T13:13:24.104Z,0.0367,-0.9706,0.2140,-0.0606,-0.0154,0.0016,0.0015,0.0251,-0.0020,-2.5842,1.3500,3.0238
2024-10-11T13:13:24.115Z,0.0344,-0.9704,0.2132,-0.1082,-0.0507,0.0345,-0.0011,0.0252,-0.0041,-2.5838,1.3500,3.0240
2024-10-11T13:13:24.124Z,0.0355,-0.9700,0.2123,-0.1082,-0.0507,0.0345,-0.0018,0.0245,-0.0047,-2.5838,1.3500,3.0240
2024-10-11T13:13:24.134Z,0.0338,-0.9706,0.2125,-0.1082,-0.0507,0.0345,-0.0028,0.0224,-0.0036,-2.5838,1.3500,3.0240
2024-10-11T13:13:24.144Z,0.0335,-0.9720,0.2111,-0.0798,-0.0503,0.0490,-0.0023,0.0215,-0.0007,-2.5834,1.3500,3.0241
2024-10-11T13:13:24.154Z,0.0330,-0.9733,0.2113,-0.0798,-0.0503,0.0490,-0.0037,0.0222,-0.0040,-2.5834,1.3500,3.0241
2024-10-11T13:13:24.164Z,0.0306,-0.9730,0.2111,-0.0798,-0.0503,0.0490,-0.0036,0.0204,-0.0026,-2.5834,1.3500,3.0241
2024-10-11T13:13:24.174Z,0.0322,-0.9749,0.2103,-0.0482,-0.0268,0.0623,-0.0002,0.0201,-0.0006,-2.5831,1.3500,3.0241
2024-10-11T13:13:24.184Z,0.0333,-0.9760,0.2091,-0.0482,-0.0268,0.0623,-0.0032,0.0204,0.0006,-2.5831,1.3500,3.0241
2024-10-11T13:13:24.195Z,0.0324,-0.9768,0.2101,-0.0482,-0.0268,0.0623,-0.0010,0.0186,-0.0006,-2.5831,1.3500,3.0241
2024-10-11T13:13:24.204Z,0.0327,-0.9759,0.2084,-0.0665,0.0101,0.0721,0.0003,0.0184,0.0030,-2.5831,1.3500,3.0245
2024-10-11T13:13:24.214Z,0.0305,-0.9765,0.2090,-0.0665,0.0101,0.0721,-0.0031,0.0206,0.0007,-2.5831,1.3500,3.0245
2024-10-11T13:13:24.224Z,0.0273,-0.9763,0.2090,-0.0665,0.0101,0.0721,0.0020,0.0224,0.0006,-2.5831,1.3500,3.0245
2024-10-11T13:13:24.234Z,0.0253,-0.9776,0.2090,-0.0170,0.0057,0.0834,0.0001,0.0273,0.0011,-2.5829,1.3500,3.0247
2024-10-11T13:13:24.244Z,0.0262,-0.9776,0.2089,-0.0170,0.0057,0.0834,0.0010,0.0295,-0.0006,-2.5829,1.3500,3.0247
2024-10-11T13:13:24.254Z,0.0261,-0.9783,0.2110,-0.0170,0.0057,0.0834,0.0028,0.0311,0.0024,-2.5829,1.3500,3.0247
2024-10-11T13:13:24.264Z,0.0263,-0.9773,0.2116,-0.0068,0.0252,0.0650,0.0039,0.0336,0.0024,-2.5830,1.3500,3.0255
2024-10-11T13:13:24.274Z,0.0257,-0.9751,0.2104,-0.0068,0.0252,0.0650,0.0046,0.0359,0.0012,-2.5830,1.3500,3.0255
2024-10-11T13:13:24.283Z,0.0247,-0.9763,0.2095,-0.0068,0.0252,0.0650,0.0070,0.0376,0.0033,-2.5830,1.3500,3.0255
2024-10-11T13:13:24.294Z,0.0249,-0.9749,0.2095,0.0052,0.0058,0.0802,0.0061,0.0379,0.0050,-2.5832,1.3498,3.0264
2024-10-11T13:13:24.304Z,0.0246,-0.9726,0.2095,0.0052,0.0058,0.0802,0.0068,0.0420,0.0034,-2.5832,1.3498,3.0264
2024-10-11T13:13:24.314Z,0.0236,-0.9722,0.2096,0.0052,0.0058,0.0802,0.0106,0.0441,0.0053,-2.5832,1.3498,3.0264
2024-10-11T13:13:24.323Z,0.0230,-0.9721,0.2097,0.0126,-0.0335,0.0824,0.0081,0.0469,-0.0001,-2.5839,1.3496,3.0281
2024-10-11T13:13:24.334Z,0.0238,-0.9733,0.2097,0.0126,-0.0335,0.0824,0.0098,0.0468,0.0022,-2.5839,1.3496,3.0281
2024-10-11T13:13:24.344Z,0.0238,-0.9719,0.2108,0.0126,-0.0335,0.0824,0.0103,0.0459,0.0036,-2.5839,1.3496,3.0281
2024-10-11T13:13:24.354Z,0.0257,-0.9694,0.2117,0.0066,-0.0365,0.0730,0.0124,0.0451,0.0045,-2.5844,1.3493,3.0298
2024-10-11T13:13:24.364Z,0.0273,-0.9689,0.2125,0.0066,-0.0365,0.0730,0.0103,0.0437,0.0028,-2.5844,1.3493,3.0298
2024-10-11T13:13:24.374Z,0.0260,-0.9682,0.2137,0.0066,-0.0365,0.0730,0.0149,0.0411,0.0054,-2.5844,1.3493,3.0298
2024-10-11T13:13:24.384Z,0.0240,-0.9694,0.2153,-0.0183,-0.0716,0.0480,0.0107,0.0408,0.0034,-2.5853,1.3491,3.0316
2024-10-11T13:13:24.394Z,0.0259,-0.9722,0.2145,-0.0183,-0.0716,0.0480,0.0092,0.0368,0.0064,-2.5853,1.3491,3.0316
2024-10-11T13:13:24.404Z,0.0250,-0.9741,0.2135,-0.0183,-0.0716,0.0480,0.0128,0.0365,0.0067,-2.5853,1.3491,3.0316
2024-10-11T13:13:24.415Z,0.0241,-0.9760,0.2134,-0.0120,-0.0135,0.0537,0.0110,0.0305,0.0046,-2.5864,1.3488,3.0335
2024-10-11T13:13:24.424Z,0.0248,-0.9762,0.2151,-0.0120,-0.0135,0.0537,0.0139,0.0313,0.0043,-2.5864,1.3488,3.0335
2024-10-11T13:13:24.433Z,0.0259,-0.9781,0.2165,-0.0120,-0.0135,0.0537,0.0112,0.0248,0.0035,-2.5864,1.3488,3.0335
2024-10-11T13:13:24.444Z,0.0241,-0.9790,0.2173,-0.0237,0.0264,0.0267,0.0114,0.0240,0.0028,-2.5872,1.3485,3.0349
2024-10-11T13:13:24.454Z,0.0257,-0.9793,0.2200,-0.0237,0.0264,0.0267,0.0133,0.0218,0.0054,-2.5872,1.3485,3.0349
2024-10-11T13:13:24.464Z,0.0255,-0.9803,0.2216,-0.0237,0.0264,0.0267,0.0113,0.0209,0.0027,-2.5872,1.3485,3.0349
2024-10-11T13:13:24.474Z,0.0254,-0.9792,0.2249,-0.0217,0.0489,-0.0201,0.0087,0.0188,0.0047,-2.5879,1.3481,3.0360
2024-10-11T13:13:24.483Z,0.0285,-0.9775,0.2268,-0.0217,0.0489,-0.0201,0.0071,0.0211,0.0058,-2.5879,1.3481,3.0360
2024-10-11T13:13:24.494Z,0.0296,-0.9779,0.2267,-0.0217,0.0489,-0.0201,0.0057,0.0221,0.0021,-2.5879,1.3481,3.0360
2024-10-11T13:13:24.504Z,0.0286,-0.9788,0.2254,-0.0646,0.0258,-0.0666,0.0050,0.0175,0.0022,-2.5888,1.3479,3.0372
2024-10-11T13:13:24.514Z,0.0287,-0.9816,0.2231,-0.0646,0.0258,-0.0666,0.0042,0.0169,0.0023,-2.5888,1.3479,3.0372
2024-10-11T13:13:24.524Z,0.0275,-0.9822,0.2239,-0.0646,0.0258,-0.0666,0.0014,0.0181,0.0036,-2.5888,1.3479,3.0372
2024-10-11T13:13:24.533Z,0.0271,-0.9819,0.2223,-0.0457,0.0687,-0.0374,0.0025,0.0154,0.0015,-2.5895,1.3477,3.0382
2024-10-11T13:13:24.544Z,0.0260,-0.9821,0.2193,-0.0457,0.0687,-0.0374,0.0015,0.0171,0.0008,-2.5895,1.3477,3.0382
2024-10-11T13:13:24.554Z,0.0253,-0.9823,0.2220,-0.0457,0.0687,-0.0374,-0.0011,0.0178,0.0011,-2.5895,1.3477,3.0382
2024-10-11T13:13:24.564Z,0.0263,-0.9828,0.2214,-0.0252,0.0697,-0.0191,0.0001,0.0145,-0.0014,-2.5899,1.3477,3.0388
2024-10-11T13:13:24.574Z,0.0268,-0.9796,0.2219,-0.0252,0.0697,-0.0191,0.0013,0.0199,-0.0002,-2.5899,1.3477,3.0388
2024-10-11T13:13:24.583Z,0.0263,-0.9799,0.2219,-0.0252,0.0697,-0.0191,0.0003,0.0200,-0.0030,-2.5899,1.3477,3.0388
2024-10-11T13:13:24.594Z,0.0273,-0.9796,0.2213,-0.0345,0.0458,-0.0171,0.0003,0.0210,-0.0053,-2.5894,1.3476,3.0386
2024-10-11T13:13:24.604Z,0.0280,-0.9790,0.2240,-0.0345,0.0458,-0.0171,0.0012,0.0222,-0.0067,-2.5894,1.3476,3.0386
2024-10-11T13:13:24.615Z,0.0278,-0.9783,0.2250,-0.0345,0.0458,-0.0171,-0.0006,0.0231,-0.0068,-2.5894,1.3476,3.0386
2024-10-11T13:13:24.624Z,0.0279,-0.9749,0.2252,-0.0482,0.0302,-0.0476,0.0011,0.0203,-0.0067,-2.5881,1.3476,3.0378
2024-10-11T13:13:24.633Z,0.0274,-0.9738,0.2258,-0.0482,0.0302,-0.0476,-0.0032,0.0211,-0.0086,-2.5881,1.3476,3.0378
2024-10-11T13:13:24.644Z,0.0276,-0.9739,0.2254,-0.0482,0.0302,-0.0476,-0.0025,0.0196,-0.0073,-2.5881,1.3476,3.0378
2024-10-11T13:13:24.654Z,0.0318,-0.9730,0.2255,-0.0444,-0.0131,-0.0521,-0.0035,0.0203,-0.0081,-2.5870,1.3476,3.0371
2024-10-11T13:13:24.664Z,0.0311,-0.9722,0.2233,-0.0444,-0.0131,-0.0521,-0.0018,0.0200,-0.0086,-2.5870,1.3476,3.0371
2024-10-11T13:13:24.674Z,0.0311,-0.9715,0.2246,-0.0444,-0.0131,-0.0521,-0.0049,0.0209,-0.0085,-2.5870,1.3476,3.0371
2024-10-11T13:13:24.684Z,0.0327,-0.9664,0.2256,-0.0775,-0.0364,-0.0442,-0.0094,0.0194,-0.0101,-2.5860,1.3477,3.0364
2024-10-11T13:13:24.694Z,0.0386,-0.9708,0.2200,-0.0775,-0.0364,-0.0442,-0.0070,0.0156,-0.0082,-2.5860,1.3477,3.0364
2024-10-11T13:13:24.706Z,0.0433,-0.9736,0.2143,-0.1950,-0.0163,0.0548,-0.0095,0.0107,-0.0093,-2.5848,1.3479,3.0354
2024-10-11T13:13:24.714Z,0.0438,-0.9780,0.2096,-0.1950,-0.0163,0.0548,-0.0120,0.0048,-0.0084,-2.5848,1.3479,3.0354
2024-10-11T13:13:24.724Z,0.0412,-0.9826,0.2063,-0.1950,-0.0163,0.0548,-0.0098,-0.0015,-0.0053,-2.5848,1.3479,3.0354
2024-10-11T13:13:24.734Z,0.0401,-0.9894,0.2096,-0.1950,-0.0163,0.0548,-0.0083,-0.0009,-0.0067,-2.5848,1.3479,3.0354
2024-10-11T13:13:24.744Z,0.0378,-0.9904,0.2066,-0.1612,0.1381,0.0989,-0.0032,0.0007,-0.0045,-2.5840,1.3480,3.0344
2024-10-11T13:13:24.754Z,0.0349,-0.9906,0.2063,-0.1612,0.1381,0.0989,-0.0040,0.0013,-0.0058,-2.5840,1.3480,3.0344
2024-10-11T13:13:24.766Z,0.0336,-0.9864,0.2059,-0.0958,0.1091,0.1342,-0.0014,-0.0017,-0.0032,-2.5834,1.3481,3.0335
2024-10-11T13:13:24.774Z,0.0317,-0.9825,0.2086,-0.0958,0.1091,0.1342,-0.0019,-0.0039,-0.0052,-2.5834,1.3481,3.0335
2024-10-11T13:13:24.784Z,0.0298,-0.9809,0.2097,-0.0958,0.1091,0.1342,-0.0035,-0.0077,-0.0051,-2.5834,1.3481,3.0335
2024-10-11T13:13:24.795Z,0.0333,-0.9799,0.2117,-0.0904,0.0447,0.0770,-0.0019,-0.0098,-0.0027,-2.5827,1.3481,3.0324
2024-10-11T13:13:24.804Z,0.0338,-0.9778,0.2146,-0.0904,0.0447,0.0770,-0.0014,-0.0142,-0.0013,-2.5827,1.3481,3.0324
2024-10-11T13:13:24.814Z,0.0318,-0.9777,0.2164,-0.0904,0.0447,0.0770,-0.0003,-0.0168,-0.0007,-2.5827,1.3481,3.0324
2024-10-11T13:13:24.825Z,0.0344,-0.9752,0.2183,-0.0987,-0.0010,0.0124,0.0003,-0.0199,-0.0029,-2.5825,1.3481,3.0313
2024-10-11T13:13:24.834Z,0.0334,-0.9723,0.2186,-0.0987,-0.0010,0.0124,0.0013,-0.0233,-0.0040,-2.5825,1.3481,3.0313
2024-10-11T13:13:24.844Z,0.0307,-0.9705,0.2190,-0.0987,-0.0010,0.0124,-0.0009,-0.0266,-0.0029,-2.5825,1.3481,3.0313
2024-10-11T13:13:24.855Z,0.0299,-0.9692,0.2203,-0.0521,-0.0597,-0.0065,0.0026,-0.0297,-0.0015,-2.5823,1.3480,3.0301
2024-10-11T13:13:24.866Z,0.0341,-0.9674,0.2204,-0.0521,-0.0597,-0.0065,-0.0019,-0.0334,-0.0022,-2.5823,1.3480,3.0301
2024-10-11T13:13:24.874Z,0.0331,-0.9678,0.2192,-0.0521,-0.0597,-0.0065,-0.0006,-0.0330,-0.0017,-2.5823,1.3480,3.0301
2024-10-11T13:13:24.885Z,0.0332,-0.9663,0.2220,-0.0821,-0.0880,-0.0234,0.0009,-0.0367,0.0015,-2.5822,1.3480,3.0287
2024-10-11T13:13:24.894Z,0.0342,-0.9669,0.2194,-0.0821,-0.0880,-0.0234,-0.0007,-0.0357,-0.0001,-2.5822,1.3480,3.0287
2024-10-11T13:13:24.904Z,0.0322,-0.9678,0.2199,-0.0821,-0.0880,-0.0234,-0.0023,-0.0377,0.0003,-2.5822,1.3480,3.0287
2024-10-11T13:13:24.916Z,0.0321,-0.9662,0.2193,-0.0683,-0.0889,0.0024,0.0026,-0.0401,-0.0001,-2.5824,1.3479,3.0275
2024-10-11T13:13:24.924Z,0.0302,-0.9657,0.2197,-0.0683,-0.0889,0.0024,-0.0005,-0.0403,0.0005,-2.5824,1.3479,3.0275
2024-10-11T13:13:24.934Z,0.0282,-0.9646,0.2201,-0.0683,-0.0889,0.0024,-0.0005,-0.0421,0.0030,-2.5824,1.3479,3.0275
2024-10-11T13:13:24.945Z,0.0259,-0.9661,0.2201,-0.0051,-0.0894,-0.0046,0.0026,-0.0412,0.0004,-2.5828,1.3479,3.0264
2024-10-11T13:13:24.954Z,0.0245,-0.9667,0.2180,-0.0051,-0.0894,-0.0046,0.0030,-0.0399,0.0016,-2.5828,1.3479,3.0264
2024-10-11T13:13:24.964Z,0.0231,-0.9664,0.2187,-0.0051,-0.0894,-0.0046,0.0034,-0.0370,0.0008,-2.5828,1.3479,3.0264
2024-10-11T13:13:24.975Z,0.0200,-0.9708,0.2159,0.0562,-0.0433,0.0368,0.0027,-0.0373,0.0007,-2.5829,1.3478,3.0251
2024-10-11T13:13:24.984Z,0.0186,-0.9724,0.2159,0.0562,-0.0433,0.0368,0.0027,-0.0344,0.0006,-2.5829,1.3478,3.0251
2024-10-11T13:13:24.994Z,0.0194,-0.9735,0.2162,0.0562,-0.0433,0.0368,0.0045,-0.0287,-0.0004,-2.5829,1.3478,3.0251
2024-10-11T13:13:25.005Z,0.0188,-0.9744,0.2164,0.0694,-0.0077,0.0326,0.0045,-0.0258,0.0008,-2.5831,1.3477,3.0242
2024-10-11T13:13:25.015Z,0.0167,-0.9752,0.2168,0.0694,-0.0077,0.0326,0.0057,-0.0186,0.0002,-2.5831,1.3477,3.0242
2024-10-11T13:13:25.024Z,0.0186,-0.9781,0.2154,0.0694,-0.0077,0.0326,0.0021,-0.0136,-0.0013,-2.5831,1.3477,3.0242
2024-10-11T13:13:25.034Z,0.0243,-0.9789,0.2155,0.0164,0.0369,0.0423,0.0032,-0.0111,0.0009,-2.5834,1.3476,3.0238
2024-10-11T13:13:25.044Z,0.0263,-0.9813,0.2152,0.0164,0.0369,0.0423,0.0034,-0.0049,0.0015,-2.5834,1.3476,3.0238
2024-10-11T13:13:25.054Z,0.0259,-0.9829,0.2141,0.0164,0.0369,0.0423,0.0042,-0.0029,0.0030,-2.5834,1.3476,3.0238
2024-10-11T13:13:25.067Z,0.0251,-0.9813,0.2147,0.0085,0.0602,0.0524,0.0020,0.0006,0.0035,-2.5841,1.3474,3.0243
2024-10-11T13:13:25.074Z,0.0241,-0.9815,0.2147,0.0085,0.0602,0.0524,0.0036,0.0057,0.0041,-2.5841,1.3474,3.0243
2024-10-11T13:13:25.084Z,0.0237,-0.9822,0.2144,0.0085,0.0602,0.0524,0.0033,0.0080,0.0046,-2.5841,1.3474,3.0243
2024-10-11T13:13:25.095Z,0.0220,-0.9830,0.2176,0.0373,0.0774,0.0245,0.0013,0.0118,0.0043,-2.5850,1.3473,3.0251
2024-10-11T13:13:25.104Z,0.0178,-0.9825,0.2177,0.0373,0.0774,0.0245,0.0047,0.0125,0.0044,-2.5850,1.3473,3.0251
2024-10-11T13:13:25.114Z,0.0186,-0.9832,0.2186,0.0373,0.0774,0.0245,0.0035,0.0180,0.0038,-2.5850,1.3473,3.0251
2024-10-11T13:13:25.124Z,0.0198,-0.9799,0.2186,0.0570,0.0475,0.0167,0.0021,0.0237,0.0008,-2.5856,1.3472,3.0260
2024-10-11T13:13:25.134Z,0.0200,-0.9792,0.2183,0.0570,0.0475,0.0167,-0.0000,0.0223,0.0021,-2.5856,1.3472,3.0260
2024-10-11T13:13:25.144Z,0.0201,-0.9775,0.2208,0.0570,0.0475,0.0167,0.0031,0.0218,0.0019,-2.5856,1.3472,3.0260
2024-10-11T13:13:25.154Z,0.0205,-0.9756,0.2199,0.0486,0.0050,0.0041,0.0011,0.0241,0.0017,-2.5858,1.3472,3.0267
2024-10-11T13:13:25.165Z,0.0222,-0.9731,0.2202,0.0486,0.0050,0.0041,0.0002,0.0228,-0.0022,-2.5858,1.3472,3.0267
2024-10-11T13:13:25.174Z,0.0226,-0.9736,0.2230,0.0486,0.0050,0.0041,0.0027,0.0232,-0.0003,-2.5858,1.3472,3.0267
2024-10-11T13:13:25.185Z,0.0211,-0.9723,0.2224,0.0403,-0.0277,-0.0207,-0.0010,0.0234,-0.0029,-2.5862,1.3472,3.0275
2024-10-11T13:13:25.194Z,0.0218,-0.9699,0.2225,0.0403,-0.0277,-0.0207,0.0007,0.0222,-0.0028,-2.5862,1.3472,3.0275
2024-10-11T13:13:25.204Z,0.0229,-0.9692,0.2245,0.0403,-0.0277,-0.0207,0.0000,0.0249,-0.0031,-2.5862,1.3472,3.0275
2024-10-11T13:13:25.215Z,0.0213,-0.9683,0.2247,0.0377,-0.0667,-0.0421,-0.0011,0.0239,-0.0021,-2.5861,1.3471,3.0278
2024-10-11T13:13:25.224Z,0.0202,-0.9686,0.2262,0.0377,-0.0667,-0.0421,0.0005,0.0256,-0.0048,-2.5861,1.3471,3.0278
2024-10-11T13:13:25.233Z,0.0205,-0.9684,0.2242,0.0377,-0.0667,-0.0421,-0.0023,0.0264,-0.0048,-2.5861,1.3471,3.0278
2024-10-11T13:13:25.244Z,0.0241,-0.9714,0.2228,0.0103,-0.0366,-0.0241,-0.0002,0.0248,-0.0048,-2.5856,1.3471,3.0279
2024-10-11T13:13:25.254Z,0.0280,-0.9725,0.2240,0.0103,-0.0366,-0.0241,0.0004,0.0241,-0.0060,-2.5856,1.3471,3.0279
2024-10-11T13:13:25.265Z,0.0309,-0.9746,0.2229,0.0103,-0.0366,-0.0241,-0.0020,0.0222,-0.0060,-2.5856,1.3471,3.0279
2024-10-11T13:13:25.274Z,0.0302,-0.9774,0.2209,-0.0493,0.0227,-0.0056,-0.0016,0.0237,-0.0050,-2.5853,1.3472,3.0279
2024-10-11T13:13:25.285Z,0.0314,-0.9795,0.2197,-0.0493,0.0227,-0.0056,-0.0027,0.0208,-0.0041,-2.5853,1.3472,3.0279
2024-10-11T13:13:25.295Z,0.0311,-0.9816,0.2165,-0.0493,0.0227,-0.0056,-0.0039,0.0192,-0.0058,-2.5853,1.3472,3.0279
2024-10-11T13:13:25.304Z,0.0295,-0.9835,0.2150,-0.0427,0.0822,0.0513,-0.0023,0.0144,-0.0052,-2.5848,1.3472,3.0278
2024-10-11T13:13:25.317Z,0.0283,-0.9849,0.2132,-0.0427,0.0822,0.0513,-0.0035,0.0182,-0.0041,-2.5848,1.3472,3.0278
2024-10-11T13:13:25.323Z,0.0290,-0.9863,0.2139,-0.0427,0.0822,0.0513,-0.0019,0.0163,-0.0051,-2.5848,1.3472,3.0278
2024-10-11T13:13:25.334Z,0.0304,-0.9862,0.2137,-0.0498,0.1086,0.0638,-0.0001,0.0145,-0.0048,-2.5840,1.3472,3.0273
2024-10-11T13:13:25.343Z,0.0310,-0.9863,0.2121,-0.0498,0.1086,0.0638,-0.0011,0.0096,-0.0040,-2.5840,1.3472,3.0273
2024-10-11T13:13:25.354Z,0.0321,-0.9837,0.2158,-0.0498,0.1086,0.0638,-0.0016,0.0103,-0.0066,-2.5840,1.3472,3.0273
2024-10-11T13:13:25.365Z,0.0306,-0.9816,0.2165,-0.0511,0.0637,0.0361,-0.0011,0.0083,-0.0045,-2.5834,1.3473,3.0267
2024-10-11T13:13:25.374Z,0.0298,-0.9782,0.2185,-0.0511,0.0637,0.0361,-0.0034,0.0046,-0.0061,-2.5834,1.3473,3.0267
2024-10-11T13:13:25.384Z,0.0272,-0.9764,0.2197,-0.0511,0.0637,0.0361,-0.0049,0.0031,-0.0052,-2.5834,1.3473,3.0267
2024-10-11T13:13:25.393Z,0.0260,-0.9742,0.2231,-0.0037,-0.0093,-0.0299,-0.0052,0.0024,-0.0068,-2.5825,1.3474,3.0257
2024-10-11T13:13:25.404Z,0.0277,-0.9727,0.2253,-0.0037,-0.0093,-0.0299,-0.0066,-0.0025,-0.0054,-2.5825,1.3474,3.0257
2024-10-11T13:13:25.413Z,0.0270,-0.9720,0.2277,-0.0037,-0.0093,-0.0299,-0.0072,-0.0032,-0.0068,-2.5825,1.3474,3.0257
2024-10-11T13:13:25.424Z,0.0285,-0.9716,0.2267,-0.0259,-0.0351,-0.0671,-0.0082,-0.0036,-0.0078,-2.5817,1.3475,3.0245
2024-10-11T13:13:25.434Z,0.0297,-0.9740,0.2262,-0.0259,-0.0351,-0.0671,-0.0068,-0.0053,-0.0101,-2.5817,1.3475,3.0245
2024-10-11T13:13:25.443Z,0.0295,-0.9745,0.2243,-0.0259,-0.0351,-0.0671,-0.0090,-0.0065,-0.0084,-2.5817,1.3475,3.0245
2024-10-11T13:13:25.454Z,0.0319,-0.9739,0.2241,-0.0560,-0.0128,-0.0437,-0.0082,-0.0061,-0.0071,-2.5806,1.3477,3.0230
2024-10-11T13:13:25.464Z,0.0321,-0.9743,0.2230,-0.0560,-0.0128,-0.0437,-0.0075,-0.0075,-0.0071,-2.5806,1.3477,3.0230
2024-10-11T13:13:25.474Z,0.0341,-0.9752,0.2216,-0.0560,-0.0128,-0.0437,-0.0112,-0.0104,-0.0065,-2.5806,1.3477,3.0230
2024-10-11T13:13:25.484Z,0.0340,-0.9732,0.2194,-0.0745,-0.0203,0.0001,-0.0082,-0.0088,-0.0036,-2.5799,1.3480,3.0218
2024-10-11T13:13:25.494Z,0.0351,-0.9753,0.2204,-0.0745,-0.0203,0.0001,-0.0093,-0.0110,-0.0036,-2.5799,1.3480,3.0218
2024-10-11T13:13:25.504Z,0.0349,-0.9747,0.2178,-0.0745,-0.0203,0.0001,-0.0105,-0.0082,-0.0032,-2.5799,1.3480,3.0218
2024-10-11T13:13:25.515Z,0.0350,-0.9750,0.2168,-0.0829,-0.0028,0.0237,-0.0110,-0.0082,-0.0021,-2.5794,1.3482,3.0208
2024-10-11T13:13:25.524Z,0.0338,-0.9758,0.2156,-0.0829,-0.0028,0.0237,-0.0082,-0.0089,0.0003,-2.5794,1.3482,3.0208
2024-10-11T13:13:25.533Z,0.0338,-0.9720,0.2149,-0.0829,-0.0028,0.0237,-0.0083,-0.0081,-0.0021,-2.5794,1.3482,3.0208
2024-10-11T13:13:25.543Z,0.0354,-0.9734,0.2146,-0.0847,-0.0188,0.0427,-0.0123,-0.0105,0.0013,-2.5793,1.3484,3.0201
2024-10-11T13:13:25.554Z,0.0354,-0.9753,0.2154,-0.0847,-0.0188,0.0427,-0.0077,-0.0113,0.0016,-2.5793,1.3484,3.0201
2024-10-11T13:13:25.564Z,0.0381,-0.9743,0.2149,-0.0847,-0.0188,0.0427,-0.0086,-0.0107,0.0027,-2.5793,1.3484,3.0201
2024-10-11T13:13:25.574Z,0.0367,-0.9757,0.2155,-0.0979,0.0031,0.0319,-0.0085,-0.0095,0.0041,-2.5795,1.3486,3.0198
2024-10-11T13:13:25.583Z,0.0355,-0.9741,0.2166,-0.0979,0.0031,0.0319,-0.0076,-0.0087,0.0054,-2.5795,1.3486,3.0198
2024-10-11T13:13:25.594Z,0.0358,-0.9728,0.2151,-0.0979,0.0031,0.0319,-0.0040,-0.0090,0.0050,-2.5795,1.3486,3.0198
2024-10-11T13:13:25.604Z,0.0348,-0.9738,0.2149,-0.0787,-0.0164,0.0357,-0.0057,-0.0114,0.0054,-2.5800,1.3489,3.0197
2024-10-11T13:13:25.614Z,0.0340,-0.9729,0.2161,-0.0787,-0.0164,0.0357,-0.0050,-0.0097,0.0063,-2.5800,1.3489,3.0197
2024-10-11T13:13:25.624Z,0.0329,-0.9724,0.2150,-0.0787,-0.0164,0.0357,-0.0084,-0.0123,0.0059,-2.5800,1.3489,3.0197
2024-10-11T13:13:25.634Z,0.0345,-0.9748,0.2155,-0.0721,-0.0071,0.0265,-0.0048,-0.0120,0.0077,-2.5790,1.3491,3.0180
2024-10-11T13:13:25.643Z,0.0350,-0.9763,0.2154,-0.0721,-0.0071,0.0265,-0.0069,-0.0082,0.0089,-2.5790,1.3491,3.0180
2024-10-11T13:13:25.654Z,0.0344,-0.9734,0.2157,-0.0721,-0.0071,0.0265,-0.0069,-0.0116,0.0105,-2.5790,1.3491,3.0180
2024-10-11T13:13:25.664Z,0.0353,-0.9758,0.2175,-0.0682,0.0022,0.0039,-0.0022,-0.0105,0.0113,-2.5739,1.3492,3.0121
2024-10-11T13:13:25.674Z,0.0320,-0.9770,0.2174,-0.0682,0.0022,0.0039,-0.0037,-0.0115,0.0091,-2.5739,1.3492,3.0121
2024-10-11T13:13:25.683Z,0.0320,-0.9770,0.2182,-0.0682,0.0022,0.0039,-0.0022,-0.0123,0.0097,-2.5739,1.3492,3.0121
2024-10-11T13:13:25.694Z,0.0318,-0.9757,0.2166,-0.0277,0.0008,0.0108,-0.0011,-0.0113,0.0098,-2.5720,1.3493,3.0095
2024-10-11T13:13:25.704Z,0.0304,-0.9758,0.2157,-0.0277,0.0008,0.0108,-0.0007,-0.0121,0.0086,-2.5720,1.3493,3.0095
2024-10-11T13:13:25.714Z,0.0311,-0.9745,0.2168,-0.0277,0.0008,0.0108,-0.0025,-0.0127,0.0130,-2.5720,1.3493,3.0095
2024-10-11T13:13:25.724Z,0.0298,-0.9742,0.2184,-0.0093,-0.0141,-0.0078,-0.0026,-0.0114,0.0132,-2.5729,1.3495,3.0097
2024-10-11T13:13:25.733Z,0.0301,-0.9745,0.2195,-0.0093,-0.0141,-0.0078,-0.0026,-0.0083,0.0127,-2.5729,1.3495,3.0097
2024-10-11T13:13:25.743Z,0.0294,-0.9742,0.2186,-0.0093,-0.0141,-0.0078,-0.0020,-0.0089,0.0127,-2.5729,1.3495,3.0097
2024-10-11T13:13:25.754Z,0.0258,-0.9719,0.2182,0.0291,-0.0362,-0.0066,-0.0025,-0.0082,0.0136,-2.5740,1.3496,3.0103
2024-10-11T13:13:25.764Z,0.0282,-0.9733,0.2170,0.0291,-0.0362,-0.0066,-0.0048,-0.0082,0.0125,-2.5740,1.3496,3.0103
2024-10-11T13:13:25.774Z,0.0280,-0.9746,0.2164,0.0291,-0.0362,-0.0066,-0.0033,-0.0082,0.0106,-2.5740,1.3496,3.0103
2024-10-11T13:13:25.784Z,0.0272,-0.9743,0.2154,0.0118,-0.0129,0.0201,-0.0016,-0.0060,0.0136,-2.5758,1.3497,3.0116
2024-10-11T13:13:25.794Z,0.0276,-0.9740,0.2129,0.0118,-0.0129,0.0201,-0.0011,-0.0055,0.0139,-2.5758,1.3497,3.0116
2024-10-11T13:13:25.804Z,0.0255,-0.9753,0.2130,0.0118,-0.0129,0.0201,-0.0012,0.0002,0.0160,-2.5758,1.3497,3.0116
2024-10-11T13:13:25.814Z,0.0264,-0.9747,0.2130,0.0167,-0.0097,0.0442,-0.0015,0.0029,0.0137,-2.5777,1.3497,3.0132
2024-10-11T13:13:25.824Z,0.0253,-0.9749,0.2125,0.0167,-0.0097,0.0442,-0.0013,0.0093,0.0148,-2.5777,1.3497,3.0132
2024-10-11T13:13:25.833Z,0.0243,-0.9745,0.2130,0.0167,-0.0097,0.0442,-0.0019,0.0094,0.0158,-2.5777,1.3497,3.0132
2024-10-11T13:13:25.844Z,0.0238,-0.9748,0.2140,0.0376,-0.0086,0.0344,-0.0002,0.0125,0.0120,-2.5798,1.3498,3.0153
2024-10-11T13:13:25.854Z,0.0239,-0.9755,0.2147,0.0376,-0.0086,0.0344,0.0011,0.0146,0.0126,-2.5798,1.3498,3.0153
2024-10-11T13:13:25.863Z,0.0220,-0.9743,0.2159,0.0376,-0.0086,0.0344,-0.0014,0.0131,0.0106,-2.5798,1.3498,3.0153
2024-10-11T13:13:25.874Z,0.0225,-0.9735,0.2157,0.0466,-0.0217,0.0183,-0.0008,0.0141,0.0095,-2.5814,1.3498,3.0170
2024-10-11T13:13:25.883Z,0.0234,-0.9735,0.2170,0.0466,-0.0217,0.0183,0.0012,0.0146,0.0085,-2.5814,1.3498,3.0170
2024-10-11T13:13:25.894Z,0.0246,-0.9738,0.2155,0.0466,-0.0217,0.0183,-0.0002,0.0161,0.0094,-2.5814,1.3498,3.0170
2024-10-11T13:13:25.904Z,0.0240,-0.9747,0.2157,0.0289,-0.0099,0.0176,-0.0004,0.0165,0.0052,-2.5827,1.3499,3.0185
2024-10-11T13:13:25.914Z,0.0206,-0.9727,0.2171,0.0289,-0.0099,0.0176,0.0014,0.0155,0.0043,-2.5827,1.3499,3.0185
2024-10-11T13:13:25.924Z,0.0198,-0.9728,0.2170,0.0289,-0.0099,0.0176,-0.0004,0.0173,0.0047,-2.5827,1.3499,3.0185
2024-10-11T13:13:25.935Z,0.0226,-0.9730,0.2160,0.0398,-0.0265,0.0148,0.0013,0.0178,0.0008,-2.5837,1.3499,3.0198
2024-10-11T13:13:25.944Z,0.0252,-0.9725,0.2139,0.0398,-0.0265,0.0148,0.0008,0.0195,0.0022,-2.5837,1.3499,3.0198
2024-10-11T13:13:25.954Z,0.0251,-0.9765,0.2122,0.0398,-0.0265,0.0148,0.0031,0.0187,0.0033,-2.5837,1.3499,3.0198
2024-10-11T13:13:25.964Z,0.0275,-0.9763,0.2130,-0.0115,0.0063,0.0444,0.0018,0.0170,0.0007,-2.5850,1.3498,3.0213
2024-10-11T13:13:25.974Z,0.0286,-0.9753,0.2143,-0.0115,0.0063,0.0444,0.0021,0.0136,0.0025,-2.5850,1.3498,3.0213
2024-10-11T13:13:25.984Z,0.0317,-0.9753,0.2128,-0.0115,0.0063,0.0444,-0.0003,0.0106,0.0008,-2.5850,1.3498,3.0213
2024-10-11T13:13:25.994Z,0.0316,-0.9759,0.2142,-0.0533,0.0021,0.0338,0.0013,0.0130,0.0026,-2.5857,1.3498,3.0222
2024-10-11T13:13:26.004Z,0.0315,-0.9735,0.2142,-0.0533,0.0021,0.0338,0.0018,0.0107,0.0016,-2.5857,1.3498,3.0222
2024-10-11T13:13:26.014Z,0.0308,-0.9756,0.2141,-0.0533,0.0021,0.0338,0.0006,0.0097,0.0004,-2.5857,1.3498,3.0222
2024-10-11T13:13:26.024Z,0.0304,-0.9737,0.2141,-0.0434,-0.0195,0.0360,0.0042,0.0103,0.0013,-2.5863,1.3497,3.0228
2024-10-11T13:13:26.034Z,0.0331,-0.9746,0.2153,-0.0434,-0.0195,0.0360,0.0017,0.0085,0.0010,-2.5863,1.3497,3.0228
2024-10-11T13:13:26.044Z,0.0309,-0.9747,0.2176,-0.0434,-0.0195,0.0360,0.0027,0.0060,0.0020,-2.5863,1.3497,3.0228
2024-10-11T13:13:26.054Z,0.0290,-0.9762,0.2198,-0.0302,0.0059,-0.0185,0.0031,0.0036,-0.0010,-2.5866,1.3496,3.0230
2024-10-11T13:13:26.064Z,0.0275,-0.9782,0.2184,-0.0302,0.0059,-0.0185,0.0043,0.0002,-0.0010,-2.5866,1.3496,3.0230
2024-10-11T13:13:26.074Z,0.0247,-0.9795,0.2189,-0.0302,0.0059,-0.0185,0.0021,-0.0033,-0.0025,-2.5866,1.3496,3.0230
2024-10-11T13:13:26.084Z,0.0250,-0.9825,0.2187,0.0113,0.0677,-0.0066,0.0046,-0.0090,-0.0016,-2.5863,1.3494,3.0223
2024-10-11T13:13:26.093Z,0.0264,-0.9808,0.2185,0.0113,0.0677,-0.0066,0.0019,-0.0102,-0.0036,-2.5863,1.3494,3.0223
2024-10-11T13:13:26.103Z,0.0290,-0.9822,0.2197,0.0113,0.0677,-0.0066,0.0009,-0.0150,-0.0037,-2.5863,1.3494,3.0223
2024-10-11T13:13:26.113Z,0.0268,-0.9830,0.2185,-0.0041,0.0731,-0.0052,0.0000,-0.0153,-0.0057,-2.5858,1.3494,3.0211
2024-10-11T13:13:26.124Z,0.0284,-0.9842,0.2191,-0.0041,0.0731,-0.0052,-0.0008,-0.0158,-0.0029,-2.5858,1.3494,3.0211
2024-10-11T13:13:26.134Z,0.0286,-0.9826,0.2164,-0.0041,0.0731,-0.0052,-0.0006,-0.0137,-0.0053,-2.5858,1.3494,3.0211
2024-10-11T13:13:26.144Z,0.0263,-0.9836,0.2173,0.0035,0.0789,0.0062,-0.0019,-0.0188,-0.0038,-2.5852,1.3494,3.0198
2024-10-11T13:13:26.155Z,0.0254,-0.9845,0.2152,0.0035,0.0789,0.0062,-0.0025,-0.0196,-0.0046,-2.5852,1.3494,3.0198
2024-10-11T13:13:26.164Z,0.0235,-0.9824,0.2165,0.0035,0.0789,0.0062,-0.0054,-0.0205,-0.0048,-2.5852,1.3494,3.0198
2024-10-11T13:13:26.174Z,0.0243,-0.9827,0.2178,0.0262,0.0689,0.0000,-0.0047,-0.0221,-0.0040,-2.5848,1.3495,3.0186
2024-10-11T13:13:26.184Z,0.0240,-0.9793,0.2142,0.0262,0.0689,0.0000,-0.0053,-0.0234,-0.0047,-2.5848,1.3495,3.0186
2024-10-11T13:13:26.194Z,0.0234,-0.9794,0.2168,0.0262,0.0689,0.0000,-0.0049,-0.0194,-0.0047,-2.5848,1.3495,3.0186
2024-10-11T13:13:26.204Z,0.0239,-0.9781,0.2163,0.0325,0.0245,0.0131,-0.0055,-0.0176,-0.0041,-2.5842,1.3497,3.0171
2024-10-11T13:13:26.214Z,0.0217,-0.9769,0.2152,0.0325,0.0245,0.0131,-0.0072,-0.0156,-0.0075,-2.5842,1.3497,3.0171
2024-10-11T13:13:26.224Z,0.0230,-0.9758,0.2129,0.0325,0.0245,0.0131,-0.0070,-0.0163,-0.0041,-2.5842,1.3497,3.0171
2024-10-11T13:13:26.234Z,0.0236,-0.9747,0.2128,0.0383,-0.0101,0.0447,-0.0060,-0.0110,-0.0058,-2.5836,1.3499,3.0159
2024-10-11T13:13:26.244Z,0.0234,-0.9760,0.2115,0.0383,-0.0101,0.0447,-0.0098,-0.0131,-0.0060,-2.5836,1.3499,3.0159
2024-10-11T13:13:26.254Z,0.0249,-0.9774,0.2120,0.0383,-0.0101,0.0447,-0.0065,-0.0112,-0.0044,-2.5836,1.3499,3.0159
2024-10-11T13:13:26.264Z,0.0240,-0.9783,0.2114,0.0353,0.0251,0.0567,-0.0062,-0.0129,-0.0034,-2.5833,1.3501,3.0150
2024-10-11T13:13:26.274Z,0.0254,-0.9784,0.2103,0.0353,0.0251,0.0567,-0.0064,-0.0122,-0.0029,-2.5833,1.3501,3.0150
2024-10-11T13:13:26.284Z,0.0239,-0.9778,0.2100,0.0353,0.0251,0.0567,-0.0062,-0.0135,-0.0028,-2.5833,1.3501,3.0150
2024-10-11T13:13:26.293Z,0.0231,-0.9772,0.2082,0.0460,0.0137,0.0863,-0.0067,-0.0116,-0.0015,-2.5833,1.3502,3.0144
2024-10-11T13:13:26.303Z,0.0230,-0.9757,0.2098,0.0460,0.0137,0.0863,-0.0074,-0.0081,-0.0037,-2.5833,1.3502,3.0144
2024-10-11T13:13:26.314Z,0.0211,-0.9761,0.2105,0.0460,0.0137,0.0863,-0.0057,-0.0072,-0.0038,-2.5833,1.3502,3.0144
2024-10-11T13:13:26.324Z,0.0214,-0.9741,0.2112,0.0630,-0.0172,0.0555,-0.0049,-0.0044,-0.0028,-2.5832,1.3504,3.0139
2024-10-11T13:13:26.334Z,0.0231,-0.9753,0.2112,0.0630,-0.0172,0.0555,-0.0057,0.0000,-0.0035,-2.5832,1.3504,3.0139
2024-10-11T13:13:26.344Z,0.0226,-0.9737,0.2126,0.0630,-0.0172,0.0555,-0.0063,-0.0001,-0.0026,-2.5832,1.3504,3.0139
2024-10-11T13:13:26.353Z,0.0246,-0.9742,0.2123,0.0314,-0.0160,0.0423,-0.0056,0.0022,-0.0030,-2.5834,1.3506,3.0139
2024-10-11T13:13:26.364Z,0.0223,-0.9750,0.2119,0.0314,-0.0160,0.0423,-0.0061,0.0038,-0.0029,-2.5834,1.3506,3.0139
2024-10-11T13:13:26.374Z,0.0241,-0.9743,0.2109,0.0314,-0.0160,0.0423,-0.0024,0.0022,-0.0023,-2.5834,1.3506,3.0139
2024-10-11T13:13:26.385Z,0.0249,-0.9738,0.2111,0.0243,-0.0216,0.0487,-0.0027,0.0028,0.0003,-2.5853,1.3512,3.0156
2024-10-11T13:13:26.394Z,0.0247,-0.9743,0.2097,0.0243,-0.0216,0.0487,-0.0043,0.0043,0.0003,-2.5853,1.3512,3.0156
2024-10-11T13:13:26.404Z,0.0253,-0.9753,0.2100,0.0243,-0.0216,0.0487,-0.0022,0.0058,0.0006,-2.5853,1.3512,3.0156
2024-10-11T13:13:26.413Z,0.0272,-0.9748,0.2081,-0.0032,-0.0125,0.0752,-0.0025,0.0050,0.0010,-2.5874,1.3516,3.0177
2024-10-11T13:13:26.424Z,0.0257,-0.9749,0.2093,-0.0032,-0.0125,0.0752,-0.0004,0.0059,0.0025,-2.5874,1.3516,3.0177
2024-10-11T13:13:26.434Z,0.0274,-0.9730,0.2088,-0.0032,-0.0125,0.0752,-0.0010,0.0093,0.0024,-2.5874,1.3516,3.0177
2024-10-11T13:13:26.444Z,0.0257,-0.9720,0.2084,0.0082,-0.0397,0.0719,-0.0007,0.0134,0.0034,-2.5887,1.3517,3.0191
2024-10-11T13:13:26.454Z,0.0266,-0.9703,0.2094,0.0082,-0.0397,0.0719,-0.0035,0.0147,0.0030,-2.5887,1.3517,3.0191
2024-10-11T13:13:26.464Z,0.0237,-0.9713,0.2116,0.0082,-0.0397,0.0719,-0.0013,0.0153,0.0031,-2.5887,1.3517,3.0191
2024-10-11T13:13:26.474Z,0.0214,-0.9712,0.2102,0.0483,-0.0484,0.0536,0.0008,0.0137,0.0015,-2.5896,1.3518,3.0201
2024-10-11T13:13:26.484Z,0.0233,-0.9733,0.2114,0.0483,-0.0484,0.0536,0.0035,0.0146,0.0024,-2.5896,1.3518,3.0201
2024-10-11T13:13:26.494Z,0.0251,-0.9730,0.2119,0.0483,-0.0484,0.0536,0.0021,0.0147,0.0037,-2.5896,1.3518,3.0201
2024-10-11T13:13:26.503Z,0.0222,-0.9752,0.2138,0.0384,-0.0093,0.0172,0.0020,0.0137,0.0017,-2.5902,1.3519,3.0208
2024-10-11T13:13:26.514Z,0.0239,-0.9772,0.2126,0.0384,-0.0093,0.0172,0.0020,0.0124,0.0015,-2.5902,1.3519,3.0208
2024-10-11T13:13:26.524Z,0.0270,-0.9771,0.2140,0.0384,-0.0093,0.0172,0.0015,0.0122,0.0029,-2.5902,1.3519,3.0208
2024-10-11T13:13:26.534Z,0.0266,-0.9787,0.2129,-0.0050,0.0255,0.0266,0.0052,0.0101,0.0016,-2.5907,1.3519,3.0214
2024-10-11T13:13:26.543Z,0.0264,-0.9807,0.2113,-0.0050,0.0255,0.0266,0.0059,0.0131,0.0028,-2.5907,1.3519,3.0214
2024-10-11T13:13:26.553Z,0.0245,-0.9803,0.2135,-0.0050,0.0255,0.0266,0.0049,0.0130,0.0047,-2.5907,1.3519,3.0214
2024-10-11T13:13:26.564Z,0.0269,-0.9794,0.2146,-0.0098,0.0320,0.0111,0.0057,0.0147,0.0043,-2.5914,1.3518,3.0223
2024-10-11T13:13:26.574Z,0.0237,-0.9765,0.2160,-0.0098,0.0320,0.0111,0.0059,0.0175,0.0026,-2.5914,1.3518,3.0223
2024-10-11T13:13:26.585Z,0.0271,-0.9761,0.2165,-0.0098,0.0320,0.0111,0.0039,0.0158,0.0039,-2.5914,1.3518,3.0223
2024-10-11T13:13:26.594Z,0.0286,-0.9750,0.2155,-0.0286,-0.0103,0.0045,0.0030,0.0180,0.0027,-2.5920,1.3516,3.0231
2024-10-11T13:13:26.605Z,0.0265,-0.9740,0.2159,-0.0286,-0.0103,0.0045,0.0046,0.0190,0.0020,-2.5920,1.3516,3.0231
2024-10-11T13:13:26.614Z,0.0311,-0.9722,0.2153,-0.0286,-0.0103,0.0045,0.0033,0.0146,0.0032,-2.5920,1.3516,3.0231
2024-10-11T13:13:26.623Z,0.0267,-0.9737,0.2157,-0.0113,-0.0233,0.0033,0.0026,0.0156,0.0036,-2.5926,1.3515,3.0239
2024-10-11T13:13:26.634Z,0.0255,-0.9736,0.2156,-0.0113,-0.0233,0.0033,0.0008,0.0133,0.0027,-2.5926,1.3515,3.0239
2024-10-11T13:13:26.644Z,0.0260,-0.9729,0.2159,-0.0113,-0.0233,0.0033,0.0011,0.0106,0.0032,-2.5926,1.3515,3.0239
2024-10-11T13:13:26.653Z,0.0241,-0.9730,0.2166,0.0132,-0.0296,-0.0052,-0.0014,0.0130,0.0000,-2.5930,1.3514,3.0245
2024-10-11T13:13:26.664Z,0.0244,-0.9753,0.2158,0.0132,-0.0296,-0.0052,0.0022,0.0152,0.0017,-2.5930,1.3514,3.0245
2024-10-11T13:13:26.674Z,0.0238,-0.9782,0.2152,0.0132,-0.0296,-0.0052,-0.0002,0.0141,0.0007,-2.5930,1.3514,3.0245
2024-10-11T13:13:26.685Z,0.0241,-0.9780,0.2141,0.0126,0.0191,0.0206,-0.0025,0.0150,-0.0014,-2.5932,1.3514,3.0249
2024-10-11T13:13:26.694Z,0.0235,-0.9783,0.2143,0.0126,0.0191,0.0206,-0.0001,0.0130,0.0001,-2.5932,1.3514,3.0249
2024-10-11T13:13:26.704Z,0.0220,-0.9812,0.2139,0.0126,0.0191,0.0206,-0.0009,0.0139,-0.0023,-2.5932,1.3514,3.0249
2024-10-11T13:13:26.714Z,0.0191,-0.9793,0.2139,0.0618,0.0322,0.0232,-0.0005,0.0140,-0.0032,-2.5931,1.3513,3.0249
2024-10-11T13:13:26.724Z,0.0219,-0.9812,0.2119,0.0618,0.0322,0.0232,0.0036,0.0101,0.0000,-2.5931,1.3513,3.0249
2024-10-11T13:13:26.734Z,0.0227,-0.9819,0.2120,0.0618,0.0322,0.0232,0.0018,0.0137,-0.0041,-2.5931,1.3513,3.0249
2024-10-11T13:13:26.744Z,0.0239,-0.9828,0.2132,0.0150,0.0673,0.0314,0.0030,0.0099,-0.0020,-2.5929,1.3512,3.0248
2024-10-11T13:13:26.754Z,0.0239,-0.9817,0.2119,0.0150,0.0673,0.0314,0.0018,0.0099,-0.0011,-2.5929,1.3512,3.0248
2024-10-11T13:13:26.765Z,0.0230,-0.9799,0.2133,0.0150,0.0673,0.0314,0.0021,0.0094,-0.0046,-2.5929,1.3512,3.0248
2024-10-11T13:13:26.773Z,0.0230,-0.9768,0.2153,0.0235,0.0085,0.0109,0.0021,0.0094,-0.0046,-2.5927,1.3511,3.0246
2024-10-11T13:13:26.784Z,0.0192,-0.9770,0.2177,0.0235,0.0085,0.0109,0.0044,0.0111,-0.0054,-2.5927,1.3511,3.0246
2024-10-11T13:13:26.794Z,0.0193,-0.9752,0.2172,0.0235,0.0085,0.0109,0.0033,0.0118,-0.0065,-2.5927,1.3511,3.0246
2024-10-11T13:13:26.805Z,0.0188,-0.9745,0.2192,0.0658,-0.0144,-0.0259,0.0032,0.0157,-0.0069,-2.5923,1.3510,3.0244
2024-10-11T13:13:26.814Z,0.0203,-0.9721,0.2226,0.0658,-0.0144,-0.0259,0.0038,0.0162,-0.0078,-2.5923,1.3510,3.0244
2024-10-11T13:13:26.825Z,0.0213,-0.9705,0.2231,0.0658,-0.0144,-0.0259,0.0038,0.0162,-0.0078,-2.5923,1.3510,3.0244
2024-10-11T13:13:26.834Z,0.0229,-0.9681,0.2240,0.0268,-0.0766,-0.0728,0.0030,0.0137,-0.0081,-2.5914,1.3509,3.0237
2024-10-11T13:13:26.845Z,0.0260,-0.9695,0.2234,0.0268,-0.0766,-0.0728,0.0038,0.0111,-0.0072,-2.5914,1.3509,3.0237
2024-10-11T13:13:26.854Z,0.0247,-0.9705,0.2241,0.0268,-0.0766,-0.0728,0.0038,0.0111,-0.0072,-2.5914,1.3509,3.0237
2024-10-11T13:13:26.865Z,0.0240,-0.9685,0.2235,0.0183,-0.0726,-0.0670,0.0011,0.0113,-0.0120,-2.5905,1.3508,3.0229
2024-10-11T13:13:26.874Z,0.0261,-0.9674,0.2223,0.0183,-0.0726,-0.0670,0.0011,0.0113,-0.0120,-2.5905,1.3508,3.0229
2024-10-11T13:13:26.884Z,0.0262,-0.9679,0.2193,0.0183,-0.0726,-0.0670,0.0004,0.0104,-0.0109,-2.5905,1.3508,3.0229
2024-10-11T13:13:26.894Z,0.0289,-0.9684,0.2196,-0.0280,-0.0729,-0.0271,0.0009,0.0085,-0.0093,-2.5894,1.3506,3.0219
2024-10-11T13:13:26.905Z,0.0290,-0.9685,0.2181,-0.0280,-0.0729,-0.0271,0.0058,0.0099,-0.0095,-2.5894,1.3506,3.0219
2024-10-11T13:13:26.915Z,0.0301,-0.9695,0.2162,-0.0280,-0.0729,-0.0271,0.0057,0.0090,-0.0114,-2.5894,1.3506,3.0219
2024-10-11T13:13:26.925Z,0.0287,-0.9716,0.2155,-0.0231,-0.0417,0.0149,0.0037,0.0095,-0.0127,-2.5884,1.3504,3.0209
2024-10-11T13:13:26.935Z,0.0291,-0.9722,0.2165,-0.0231,-0.0417,0.0149,0.0037,0.0095,-0.0127,-2.5884,1.3504,3.0209
2024-10-11T13:13:26.944Z,0.0304,-0.9730,0.2166,-0.0231,-0.0417,0.0149,0.0062,0.0059,-0.0110,-2.5884,1.3504,3.0209
2024-10-11T13:13:26.954Z,0.0331,-0.9756,0.2170,-0.0641,-0.0017,0.0028,0.0112,0.0062,-0.0076,-2.5874,1.3501,3.0200
2024-10-11T13:13:26.964Z,0.0341,-0.9757,0.2169,-0.0641,-0.0017,0.0028,0.0071,0.0038,-0.0085,-2.5874,1.3501,3.0200
2024-10-11T13:13:26.974Z,0.0340,-0.9786,0.2173,-0.0641,-0.0017,0.0028,0.0080,0.0058,-0.0072,-2.5874,1.3501,3.0200
2024-10-11T13:13:26.984Z,0.0356,-0.9791,0.2185,-0.0859,0.0338,-0.0103,0.0080,0.0058,-0.0072,-2.5865,1.3499,3.0190
2024-10-11T13:13:26.993Z,0.0350,-0.9780,0.2185,-0.0859,0.0338,-0.0103,0.0055,0.0028,-0.0067,-2.5865,1.3499,3.0190
2024-10-11T13:13:27.004Z,0.0320,-0.9785,0.2191,-0.0859,0.0338,-0.0103,0.0080,-0.0006,-0.0084,-2.5865,1.3499,3.0190
2024-10-11T13:13:27.014Z,0.0334,-0.9762,0.2191,-0.0629,0.0055,-0.0135,0.0092,-0.0005,-0.0058,-2.5858,1.3496,3.0180
2024-10-11T13:13:27.024Z,0.0358,-0.9767,0.2180,-0.0629,0.0055,-0.0135,0.0092,-0.0005,-0.0058,-2.5858,1.3496,3.0180
2024-10-11T13:13:27.035Z,0.0381,-0.9752,0.2192,-0.0629,0.0055,-0.0135,0.0060,-0.0014,-0.0069,-2.5858,1.3496,3.0180
2024-10-11T13:13:27.045Z,0.0380,-0.9738,0.2201,-0.1049,-0.0174,-0.0206,0.0054,-0.0042,-0.0044,-2.5851,1.3493,3.0170
2024-10-11T13:13:27.055Z,0.0405,-0.9735,0.2188,-0.1049,-0.0174,-0.0206,0.0093,-0.0027,-0.0078,-2.5851,1.3493,3.0170
2024-10-11T13:13:27.065Z,0.0430,-0.9750,0.2195,-0.1049,-0.0174,-0.0206,0.0066,-0.0060,-0.0020,-2.5851,1.3493,3.0170
2024-10-11T13:13:27.074Z,0.0456,-0.9727,0.2213,-0.1770,-0.0271,-0.0304,0.0090,-0.0109,-0.0018,-2.5846,1.3490,3.0162
2024-10-11T13:13:27.086Z,0.0484,-0.9720,0.2205,-0.1770,-0.0271,-0.0304,0.0085,-0.0100,0.0003,-2.5846,1.3490,3.0162
2024-10-11T13:13:27.094Z,0.0477,-0.9735,0.2208,-0.1770,-0.0271,-0.0304,0.0075,-0.0139,0.0009,-2.5846,1.3490,3.0162
2024-10-11T13:13:27.104Z,0.0454,-0.9736,0.2209,-0.1743,-0.0179,-0.0243,0.0089,-0.0133,0.0032,-2.5848,1.3488,3.0157
2024-10-11T13:13:27.114Z,0.0463,-0.9742,0.2213,-0.1743,-0.0179,-0.0243,0.0049,-0.0109,0.0048,-2.5848,1.3488,3.0157
2024-10-11T13:13:27.125Z,0.0427,-0.9756,0.2221,-0.1743,-0.0179,-0.0243,0.0077,-0.0091,0.0017,-2.5848,1.3488,3.0157
2024-10-11T13:13:27.136Z,0.0417,-0.9770,0.2208,-0.1373,0.0159,-0.0205,0.0059,-0.0102,0.0026,-2.5854,1.3485,3.0157
2024-10-11T13:13:27.145Z,0.0429,-0.9775,0.2226,-0.1373,0.0159,-0.0205,0.0039,-0.0113,0.0031,-2.5854,1.3485,3.0157
2024-10-11T13:13:27.154Z,0.0392,-0.9787,0.2229,-0.1373,0.0159,-0.0205,0.0044,-0.0135,0.0018,-2.5854,1.3485,3.0157
2024-10-11T13:13:27.164Z,0.0402,-0.9778,0.2230,-0.1225,0.0243,-0.0407,0.0019,-0.0172,0.0040,-2.5859,1.3484,3.0155
2024-10-11T13:13:27.174Z,0.0406,-0.9769,0.2237,-0.1225,0.0243,-0.0407,0.0025,-0.0229,0.0057,-2.5859,1.3484,3.0155
2024-10-11T13:13:27.185Z,0.0381,-0.9781,0.2229,-0.1225,0.0243,-0.0407,0.0020,-0.0242,0.0070,-2.5859,1.3484,3.0155
2024-10-11T13:13:27.194Z,0.0387,-0.9784,0.2254,-0.1063,0.0303,-0.0629,0.0027,-0.0224,0.0043,-2.5864,1.3482,3.0151
2024-10-11T13:13:27.204Z,0.0377,-0.9778,0.2228,-0.1063,0.0303,-0.0629,0.0041,-0.0241,0.0041,-2.5864,1.3482,3.0151
2024-10-11T13:13:27.214Z,0.0361,-0.9781,0.2210,-0.1063,0.0303,-0.0629,-0.0002,-0.0259,0.0060,-2.5864,1.3482,3.0151
2024-10-11T13:13:27.224Z,0.0358,-0.9790,0.2188,-0.0910,0.0393,-0.0231,-0.0012,-0.0248,0.0050,-2.5870,1.3482,3.0147
2024-10-11T13:13:27.236Z,0.0358,-0.9790,0.2188,-0.0910,0.0393,-0.0231,0.0014,-0.0257,0.0065,-2.5870,1.3482,3.0147
2024-10-11T13:13:27.244Z,0.0390,-0.9768,0.2164,-0.0910,0.0393,-0.0231,0.0037,-0.0281,0.0085,-2.5870,1.3482,3.0147
2024-10-11T13:13:27.254Z,0.0397,-0.9786,0.2157,-0.1129,0.0236,0.0388,0.0037,-0.0281,0.0085,-2.5878,1.3481,3.0144
2024-10-11T13:13:27.264Z,0.0397,-0.9786,0.2157,-0.1129,0.0236,0.0388,0.0018,-0.0275,0.0072,-2.5878,1.3481,3.0144
2024-10-11T13:13:27.274Z,0.0369,-0.9772,0.2135,-0.1129,0.0236,0.0388,0.0032,-0.0265,0.0071,-2.5878,1.3481,3.0144
2024-10-11T13:13:27.285Z,0.0369,-0.9759,0.2134,-0.0869,0.0056,0.0567,0.0042,-0.0278,0.0101,-2.5887,1.3480,3.0142
2024-10-11T13:13:27.294Z,0.0343,-0.9752,0.2149,-0.0869,0.0056,0.0567,0.0038,-0.0312,0.0095,-2.5887,1.3480,3.0142
2024-10-11T13:13:27.305Z,0.0332,-0.9755,0.2132,-0.0869,0.0056,0.0567,0.0038,-0.0312,0.0095,-2.5887,1.3480,3.0142
2024-10-11T13:13:27.314Z,0.0343,-0.9772,0.2129,-0.0508,0.0022,0.0602,0.0050,-0.0318,0.0099,-2.5900,1.3479,3.0143
2024-10-11T13:13:27.324Z,0.0343,-0.9772,0.2129,-0.0508,0.0022,0.0602,0.0043,-0.0309,0.0091,-2.5900,1.3479,3.0143
2024-10-11T13:13:27.335Z,0.0335,-0.9755,0.2137,-0.0508,0.0022,0.0602,0.0054,-0.0274,0.0094,-2.5900,1.3479,3.0143
2024-10-11T13:13:27.344Z,0.0320,-0.9724,0.2127,-0.0391,-0.0274,0.0660,0.0039,-0.0280,0.0107,-2.5914,1.3478,3.0145
2024-10-11T13:13:27.354Z,0.0301,-0.9722,0.2137,-0.0391,-0.0274,0.0660,0.0065,-0.0276,0.0123,-2.5914,1.3478,3.0145
2024-10-11T13:13:27.364Z,0.0306,-0.9714,0.2136,-0.0391,-0.0274,0.0660,0.0066,-0.0236,0.0090,-2.5914,1.3478,3.0145
2024-10-11T13:13:27.374Z,0.0266,-0.9740,0.2156,-0.0087,-0.0290,0.0533,0.0057,-0.0234,0.0096,-2.5928,1.3476,3.0149
2024-10-11T13:13:27.385Z,0.0261,-0.9733,0.2175,-0.0087,-0.0290,0.0533,0.0053,-0.0226,0.0094,-2.5928,1.3476,3.0149
2024-10-11T13:13:27.394Z,0.0261,-0.9733,0.2175,-0.0087,-0.0290,0.0533,0.0026,-0.0223,0.0095,-2.5928,1.3476,3.0149
2024-10-11T13:13:27.405Z,0.0231,-0.9759,0.2197,0.0269,-0.0219,0.0097,0.0047,-0.0197,0.0097,-2.5946,1.3475,3.0156
2024-10-11T13:13:27.414Z,0.0226,-0.9753,0.2213,0.0269,-0.0219,0.0097,0.0074,-0.0216,0.0094,-2.5946,1.3475,3.0156
2024-10-11T13:13:27.424Z,0.0215,-0.9752,0.2230,0.0269,-0.0219,0.0097,0.0055,-0.0199,0.0092,-2.5946,1.3475,3.0156
2024-10-11T13:13:27.434Z,0.0215,-0.9752,0.2230,0.0614,0.0002,-0.0308,0.0036,-0.0200,0.0081,-2.5960,1.3473,3.0161
2024-10-11T13:13:27.444Z,0.0180,-0.9759,0.2243,0.0614,0.0002,-0.0308,0.0041,-0.0181,0.0079,-2.5960,1.3473,3.0161
2024-10-11T13:13:27.454Z,0.0180,-0.9759,0.2243,0.0614,0.0002,-0.0308,0.0027,-0.0134,0.0061,-2.5960,1.3473,3.0161
2024-10-11T13:13:27.465Z,0.0133,-0.9730,0.2235,0.0965,0.0033,-0.0396,0.0029,-0.0112,0.0041,-2.5971,1.3472,3.0164
2024-10-11T13:13:27.475Z,0.0147,-0.9751,0.2228,0.0965,0.0033,-0.0396,0.0016,-0.0101,0.0041,-2.5971,1.3472,3.0164
2024-10-11T13:13:27.484Z,0.0144,-0.9768,0.2230,0.0965,0.0033,-0.0396,0.0009,-0.0051,0.0018,-2.5971,1.3472,3.0164
2024-10-11T13:13:27.494Z,0.0139,-0.9782,0.2235,0.1297,0.0169,-0.0294,0.0016,-0.0045,0.0036,-2.5979,1.3472,3.0167
2024-10-11T13:13:27.504Z,0.0139,-0.9782,0.2235,0.1297,0.0169,-0.0294,-0.0015,-0.0014,0.0024,-2.5979,1.3472,3.0167
2024-10-11T13:13:27.514Z,0.0168,-0.9788,0.2219,0.1297,0.0169,-0.0294,0.0002,-0.0027,0.0028,-2.5979,1.3472,3.0167
2024-10-11T13:13:27.524Z,0.0160,-0.9787,0.2221,0.1065,0.0366,-0.0184,-0.0009,0.0009,0.0025,-2.5983,1.3471,3.0168
2024-10-11T13:13:27.534Z,0.0180,-0.9787,0.2230,0.1065,0.0366,-0.0184,-0.0006,0.0037,0.0016,-2.5983,1.3471,3.0168
2024-10-11T13:13:27.544Z,0.0184,-0.9779,0.2203,0.1065,0.0366,-0.0184,-0.0000,0.0049,0.0025,-2.5983,1.3471,3.0168
2024-10-11T13:13:27.554Z,0.0175,-0.9773,0.2201,0.0888,0.0277,-0.0019,-0.0020,0.0061,-0.0002,-2.5990,1.3472,3.0173
2024-10-11T13:13:27.565Z,0.0164,-0.9755,0.2201,0.0888,0.0277,-0.0019,0.0014,0.0064,-0.0000,-2.5990,1.3472,3.0173
2024-10-11T13:13:27.574Z,0.0164,-0.9755,0.2201,0.0888,0.0277,-0.0019,0.0023,0.0107,0.0003,-2.5990,1.3472,3.0173
2024-10-11T13:13:27.584Z,0.0174,-0.9743,0.2201,0.1040,-0.0081,0.0211,-0.0015,0.0119,0.0023,-2.6003,1.3472,3.0186
2024-10-11T13:13:27.594Z,0.0184,-0.9725,0.2213,0.1040,-0.0081,0.0211,-0.0014,0.0094,0.0002,-2.6003,1.3472,3.0186
2024-10-11T13:13:27.603Z,0.0184,-0.9725,0.2213,0.1040,-0.0081,0.0211,-0.0014,0.0112,-0.0007,-2.6003,1.3472,3.0186
2024-10-11T13:13:27.614Z,0.0186,-0.9728,0.2203,0.0650,-0.0403,-0.0178,-0.0043,0.0141,-0.0018,-2.6019,1.3472,3.0203
2024-10-11T13:13:27.625Z,0.0202,-0.9744,0.2204,0.0650,-0.0403,-0.0178,-0.0035,0.0144,-0.0006,-2.6019,1.3472,3.0203
2024-10-11T13:13:27.634Z,0.0228,-0.9739,0.2200,0.0650,-0.0403,-0.0178,-0.0009,0.0140,-0.0023,-2.6019,1.3472,3.0203
2024-10-11T13:13:27.645Z,0.0246,-0.9755,0.2178,0.0375,-0.0119,0.0008,0.0021,0.0138,-0.0045,-2.6024,1.3473,3.0210
2024-10-11T13:13:27.653Z,0.0246,-0.9755,0.2178,0.0375,-0.0119,0.0008,0.0021,0.0138,-0.0045,-2.6024,1.3473,3.0210
2024-10-11T13:13:27.664Z,0.0240,-0.9754,0.2182,0.0375,-0.0119,0.0008,0.0015,0.0152,0.0001,-2.6024,1.3473,3.0210
2024-10-11T13:13:27.674Z,0.0240,-0.9754,0.2182,0.0247,0.0027,0.0186,0.0014,0.0170,-0.0026,-2.6029,1.3472,3.0217
2024-10-11T13:13:27.684Z,0.0253,-0.9757,0.2187,0.0247,0.0027,0.0186,-0.0032,0.0194,0.0011,-2.6029,1.3472,3.0217
2024-10-11T13:13:27.694Z,0.0237,-0.9768,0.2179,0.0247,0.0027,0.0186,-0.0037,0.0170,-0.0006,-2.6029,1.3472,3.0217
2024-10-11T13:13:27.703Z,0.0237,-0.9768,0.2179,0.0270,0.0164,0.0213,-0.0028,0.0195,-0.0023,-2.6031,1.3472,3.0221
2024-10-11T13:13:27.714Z,0.0260,-0.9794,0.2232,0.0270,0.0164,0.0213,-0.0019,0.0171,-0.0036,-2.6031,1.3472,3.0221
2024-10-11T13:13:27.724Z,0.0299,-0.9792,0.2237,0.0270,0.0164,0.0213,-0.0030,0.0162,-0.0007,-2.6031,1.3472,3.0221
2024-10-11T13:13:27.734Z,0.0275,-0.9792,0.2267,-0.0349,0.0395,-0.0356,-0.0028,0.0179,-0.0021,-2.6031,1.3473,3.0225
2024-10-11T13:13:27.744Z,0.0259,-0.9784,0.2298,-0.0349,0.0395,-0.0356,-0.0031,0.0179,0.0000,-2.6031,1.3473,3.0225
2024-10-11T13:13:27.754Z,0.0259,-0.9784,0.2298,-0.0349,0.0395,-0.0356,-0.0060,0.0161,0.0009,-2.6031,1.3473,3.0225
2024-10-11T13:13:27.764Z,0.0243,-0.9761,0.2293,0.0104,0.0140,-0.0856,-0.0053,0.0161,-0.0011,-2.6032,1.3474,3.0228
2024-10-11T13:13:27.774Z,0.0246,-0.9767,0.2285,0.0104,0.0140,-0.0856,-0.0062,0.0167,0.0003,-2.6032,1.3474,3.0228
2024-10-11T13:13:27.784Z,0.0228,-0.9774,0.2294,0.0104,0.0140,-0.0856,-0.0096,0.0198,-0.0009,-2.6032,1.3474,3.0228
2024-10-11T13:13:27.794Z,0.0243,-0.9779,0.2292,0.0331,0.0213,-0.0942,-0.0074,0.0197,-0.0016,-2.6033,1.3476,3.0232
2024-10-11T13:13:27.804Z,0.0243,-0.9779,0.2292,0.0331,0.0213,-0.0942,-0.0083,0.0235,-0.0016,-2.6033,1.3476,3.0232
2024-10-11T13:13:27.814Z,0.0196,-0.9754,0.2244,0.0331,0.0213,-0.0942,-0.0082,0.0230,-0.0026,-2.6033,1.3476,3.0232
2024-10-11T13:13:27.824Z,0.0221,-0.9756,0.2253,0.0630,0.0013,-0.0471,-0.0091,0.0243,-0.0013,-2.6031,1.3478,3.0235
2024-10-11T13:13:27.834Z,0.0233,-0.9786,0.2224,0.0630,0.0013,-0.0471,-0.0095,0.0251,-0.0024,-2.6031,1.3478,3.0235
2024-10-11T13:13:27.844Z,0.0264,-0.9758,0.2216,0.0630,0.0013,-0.0471,-0.0102,0.0276,-0.0029,-2.6031,1.3478,3.0235
2024-10-11T13:13:27.853Z,0.0264,-0.9758,0.2216,-0.0042,0.0047,-0.0219,-0.0082,0.0292,-0.0017,-2.6030,1.3480,3.0239
2024-10-11T13:13:27.864Z,0.0256,-0.9733,0.2187,-0.0042,0.0047,-0.0219,-0.0105,0.0308,-0.0006,-2.6030,1.3480,3.0239
2024-10-11T13:13:27.874Z,0.0253,-0.9714,0.2197,-0.0042,0.0047,-0.0219,-0.0085,0.0337,0.0005,-2.6030,1.3480,3.0239
2024-10-11T13:13:27.884Z,0.0264,-0.9710,0.2202,0.0043,-0.0390,-0.0043,-0.0085,0.0383,-0.0015,-2.6032,1.3482,3.0248
2024-10-11T13:13:27.894Z,0.0265,-0.9726,0.2189,0.0043,-0.0390,-0.0043,-0.0096,0.0392,-0.0006,-2.6032,1.3482,3.0248
2024-10-11T13:13:27.904Z,0.0265,-0.9726,0.2189,0.0043,-0.0390,-0.0043,-0.0074,0.0408,0.0009,-2.6032,1.3482,3.0248
2024-10-11T13:13:27.914Z,0.0271,-0.9729,0.2213,-0.0052,-0.0238,-0.0101,-0.0082,0.0412,0.0015,-2.6034,1.3485,3.0260
2024-10-11T13:13:27.924Z,0.0239,-0.9716,0.2213,-0.0052,-0.0238,-0.0101,-0.0076,0.0437,0.0033,-2.6034,1.3485,3.0260
2024-10-11T13:13:27.935Z,0.0252,-0.9730,0.2217,-0.0052,-0.0238,-0.0101,-0.0088,0.0403,0.0024,-2.6034,1.3485,3.0260
2024-10-11T13:13:27.944Z,0.0267,-0.9733,0.2224,-0.0006,-0.0241,-0.0275,-0.0064,0.0439,0.0019,-2.6039,1.3486,3.0274
2024-10-11T13:13:27.954Z,0.0267,-0.9733,0.2224,-0.0006,-0.0241,-0.0275,-0.0040,0.0427,0.0014,-2.6039,1.3486,3.0274
2024-10-11T13:13:27.964Z,0.0236,-0.9727,0.2200,-0.0006,-0.0241,-0.0275,-0.0063,0.0442,0.0022,-2.6039,1.3486,3.0274
2024-10-11T13:13:27.974Z,0.0249,-0.9719,0.2209,0.0124,-0.0275,-0.0118,-0.0078,0.0467,0.0012,-2.6040,1.3488,3.0286
2024-10-11T13:13:27.984Z,0.0267,-0.9711,0.2202,0.0124,-0.0275,-0.0118,-0.0051,0.0489,-0.0012,-2.6040,1.3488,3.0286
2024-10-11T13:13:27.994Z,0.0255,-0.9719,0.2193,0.0124,-0.0275,-0.0118,-0.0073,0.0472,0.0034,-2.6040,1.3488,3.0286
2024-10-11T13:13:28.004Z,0.0274,-0.9733,0.2197,-0.0085,-0.0348,-0.0057,-0.0065,0.0452,0.0028,-2.6036,1.3489,3.0293
2024-10-11T13:13:28.014Z,0.0314,-0.9745,0.2200,-0.0085,-0.0348,-0.0057,-0.0085,0.0442,0.0003,-2.6036,1.3489,3.0293
2024-10-11T13:13:28.024Z,0.0287,-0.9750,0.2198,-0.0085,-0.0348,-0.0057,-0.0058,0.0474,0.0029,-2.6036,1.3489,3.0293
2024-10-11T13:13:28.034Z,0.0262,-0.9754,0.2197,-0.0432,-0.0047,-0.0108,-0.0077,0.0458,0.0032,-2.6040,1.3489,3.0309
2024-10-11T13:13:28.044Z,0.0267,-0.9743,0.2229,-0.0432,-0.0047,-0.0108,-0.0091,0.0451,0.0034,-2.6040,1.3489,3.0309
2024-10-11T13:13:28.054Z,0.0287,-0.9750,0.2225,-0.0432,-0.0047,-0.0108,-0.0081,0.0451,0.0002,-2.6040,1.3489,3.0309
2024-10-11T13:13:28.064Z,0.0273,-0.9761,0.2221,-0.0463,-0.0053,-0.0378,-0.0109,0.0457,0.0018,-2.6043,1.3491,3.0323
2024-10-11T13:13:28.074Z,0.0267,-0.9761,0.2230,-0.0463,-0.0053,-0.0378,-0.0087,0.0466,0.0010,-2.6043,1.3491,3.0323
2024-10-11T13:13:28.084Z,0.0267,-0.9761,0.2230,-0.0463,-0.0053,-0.0378,-0.0066,0.0409,0.0008,-2.6043,1.3491,3.0323
2024-10-11T13:13:28.093Z,0.0275,-0.9774,0.2190,-0.0460,0.0165,-0.0311,-0.0089,0.0403,-0.0015,-2.6039,1.3492,3.0330
2024-10-11T13:13:28.104Z,0.0288,-0.9774,0.2215,-0.0460,0.0165,-0.0311,-0.0085,0.0386,-0.0020,-2.6039,1.3492,3.0330
2024-10-11T13:13:28.114Z,0.0292,-0.9771,0.2205,-0.0460,0.0165,-0.0311,-0.0081,0.0370,-0.0017,-2.6039,1.3492,3.0330
2024-10-11T13:13:28.124Z,0.0295,-0.9768,0.2203,-0.0528,0.0147,-0.0220,-0.0072,0.0349,-0.0013,-2.6029,1.3494,3.0328
2024-10-11T13:13:28.134Z,0.0323,-0.9786,0.2203,-0.0528,0.0147,-0.0220,-0.0079,0.0306,-0.0015,-2.6029,1.3494,3.0328
2024-10-11T13:13:28.144Z,0.0297,-0.9777,0.2189,-0.0528,0.0147,-0.0220,-0.0103,0.0295,-0.0021,-2.6029,1.3494,3.0328
2024-10-11T13:13:28.154Z,0.0313,-0.9776,0.2206,-0.0574,0.0200,-0.0071,-0.0092,0.0255,-0.0036,-2.6021,1.3495,3.0327
2024-10-11T13:13:28.164Z,0.0322,-0.9766,0.2210,-0.0574,0.0200,-0.0071,-0.0105,0.0226,-0.0027,-2.6021,1.3495,3.0327
2024-10-11T13:13:28.174Z,0.0354,-0.9765,0.2220,-0.0574,0.0200,-0.0071,-0.0121,0.0200,-0.0046,-2.6021,1.3495,3.0327
2024-10-11T13:13:28.184Z,0.0370,-0.9761,0.2199,-0.1122,0.0085,-0.0397,-0.0117,0.0195,-0.0033,-2.6011,1.3497,3.0321
2024-10-11T13:13:28.194Z,0.0359,-0.9788,0.2185,-0.1122,0.0085,-0.0397,-0.0109,0.0146,-0.0044,-2.6011,1.3497,3.0321
2024-10-11T13:13:28.204Z,0.0361,-0.9790,0.2194,-0.1122,0.0085,-0.0397,-0.0118,0.0118,-0.0018,-2.6011,1.3497,3.0321
2024-10-11T13:13:28.214Z,0.0361,-0.9809,0.2187,-0.1187,0.0323,-0.0172,-0.0135,0.0086,-0.0008,-2.6006,1.3500,3.0318
2024-10-11T13:13:28.224Z,0.0362,-0.9802,0.2186,-0.1187,0.0323,-0.0172,-0.0126,0.0064,0.0001,-2.6006,1.3500,3.0318
2024-10-11T13:13:28.234Z,0.0352,-0.9794,0.2166,-0.1187,0.0323,-0.0172,-0.0119,0.0052,-0.0019,-2.6006,1.3500,3.0318
2024-10-11T13:13:28.244Z,0.0334,-0.9788,0.2164,-0.1091,0.0349,0.0070,-0.0141,0.0025,-0.0041,-2.6003,1.3503,3.0314
2024-10-11T13:13:28.255Z,0.0343,-0.9790,0.2149,-0.1091,0.0349,0.0070,-0.0130,-0.0016,-0.0019,-2.6003,1.3503,3.0314
2024-10-11T13:13:28.264Z,0.0340,-0.9764,0.2139,-0.1091,0.0349,0.0070,-0.0129,-0.0020,-0.0027,-2.6003,1.3503,3.0314
2024-10-11T13:13:28.274Z,0.0349,-0.9731,0.2117,-0.0951,0.0057,0.0304,-0.0099,-0.0063,-0.0018,-2.5994,1.3506,3.0302
2024-10-11T13:13:28.284Z,0.0344,-0.9727,0.2108,-0.0951,0.0057,0.0304,-0.0116,-0.0059,-0.0029,-2.5994,1.3506,3.0302
2024-10-11T13:13:28.294Z,0.0338,-0.9712,0.2124,-0.0951,0.0057,0.0304,-0.0113,-0.0106,-0.0041,-2.5994,1.3506,3.0302
2024-10-11T13:13:28.305Z,0.0317,-0.9713,0.2110,-0.0907,-0.0468,0.0419,-0.0112,-0.0096,-0.0068,-2.5986,1.3509,3.0289
2024-10-11T13:13:28.314Z,0.0327,-0.9723,0.2081,-0.0907,-0.0468,0.0419,-0.0070,-0.0115,-0.0033,-2.5986,1.3509,3.0289
2024-10-11T13:13:28.323Z,0.0332,-0.9718,0.2073,-0.0907,-0.0468,0.0419,-0.0087,-0.0111,-0.0021,-2.5986,1.3509,3.0289
2024-10-11T13:13:28.334Z,0.0336,-0.9725,0.2086,-0.0827,-0.0413,0.0903,-0.0087,-0.0123,-0.0021,-2.5981,1.3512,3.0278
2024-10-11T13:13:28.344Z,0.0320,-0.9751,0.2091,-0.0827,-0.0413,0.0903,-0.0085,-0.0139,-0.0033,-2.5981,1.3512,3.0278
2024-10-11T13:13:28.355Z,0.0319,-0.9749,0.2092,-0.0827,-0.0413,0.0903,-0.0107,-0.0140,-0.0040,-2.5981,1.3512,3.0278
2024-10-11T13:13:28.364Z,0.0328,-0.9758,0.2105,-0.0678,-0.0106,0.0687,-0.0084,-0.0162,-0.0013,-2.5976,1.3514,3.0267
2024-10-11T13:13:28.373Z,0.0300,-0.9746,0.2090,-0.0678,-0.0106,0.0687,-0.0096,-0.0150,-0.0043,-2.5976,1.3514,3.0267
2024-10-11T13:13:28.384Z,0.0287,-0.9752,0.2077,-0.0678,-0.0106,0.0687,-0.0105,-0.0141,-0.0019,-2.5976,1.3514,3.0267
2024-10-11T13:13:28.394Z,0.0277,-0.9748,0.2106,-0.0349,-0.0087,0.0810,-0.0077,-0.0135,-0.0040,-2.5972,1.3516,3.0256
2024-10-11T13:13:28.404Z,0.0250,-0.9754,0.2116,-0.0349,-0.0087,0.0810,-0.0089,-0.0136,-0.0053,-2.5972,1.3516,3.0256
2024-10-11T13:13:28.414Z,0.0250,-0.9768,0.2115,-0.0349,-0.0087,0.0810,-0.0094,-0.0106,-0.0038,-2.5972,1.3516,3.0256
2024-10-11T13:13:28.423Z,0.0253,-0.9788,0.2102,0.0047,0.0063,0.0417,-0.0079,-0.0142,-0.0045,-2.5963,1.3518,3.0241
2024-10-11T13:13:28.434Z,0.0246,-0.9808,0.2099,0.0047,0.0063,0.0417,-0.0066,-0.0155,-0.0045,-2.5963,1.3518,3.0241
2024-10-11T13:13:28.444Z,0.0257,-0.9789,0.2088,0.0047,0.0063,0.0417,-0.0081,-0.0150,-0.0040,-2.5963,1.3518,3.0241
2024-10-11T13:13:28.454Z,0.0267,-0.9793,0.2083,0.0013,0.0267,0.0660,-0.0088,-0.0167,-0.0064,-2.5955,1.3520,3.0225
2024-10-11T13:13:28.464Z,0.0237,-0.9789,0.2080,0.0013,0.0267,0.0660,-0.0054,-0.0135,-0.0059,-2.5955,1.3520,3.0225
2024-10-11T13:13:28.473Z,0.0238,-0.9791,0.2089,0.0013,0.0267,0.0660,-0.0064,-0.0140,-0.0065,-2.5955,1.3520,3.0225
2024-10-11T13:13:28.484Z,0.0234,-0.9779,0.2076,0.0229,0.0288,0.0634,-0.0060,-0.0130,-0.0076,-2.5947,1.3521,3.0210
2024-10-11T13:13:28.494Z,0.0243,-0.9779,0.2072,0.0229,0.0288,0.0634,-0.0070,-0.0115,-0.0072,-2.5947,1.3521,3.0210
2024-10-11T13:13:28.504Z,0.0221,-0.9771,0.2089,0.0229,0.0288,0.0634,-0.0058,-0.0109,-0.0088,-2.5947,1.3521,3.0210
2024-10-11T13:13:28.514Z,0.0233,-0.9742,0.2084,0.0426,0.0082,0.0613,-0.0039,-0.0117,-0.0052,-2.5938,1.3523,3.0195
2024-10-11T13:13:28.524Z,0.0247,-0.9715,0.2090,0.0426,0.0082,0.0613,-0.0037,-0.0105,-0.0063,-2.5938,1.3523,3.0195
2024-10-11T13:13:28.534Z,0.0247,-0.9738,0.2092,0.0426,0.0082,0.0613,-0.0045,-0.0110,-0.0081,-2.5938,1.3523,3.0195
2024-10-11T13:13:28.544Z,0.0220,-0.9743,0.2064,0.0195,-0.0238,0.0569,-0.0034,-0.0096,-0.0086,-2.5929,1.3524,3.0181
2024-10-11T13:13:28.554Z,0.0202,-0.9737,0.2073,0.0195,-0.0238,0.0569,-0.0042,-0.0090,-0.0096,-2.5929,1.3524,3.0181
2024-10-11T13:13:28.564Z,0.0223,-0.9741,0.2095,0.0195,-0.0238,0.0569,-0.0021,-0.0070,-0.0088,-2.5929,1.3524,3.0181
2024-10-11T13:13:28.574Z,0.0246,-0.9747,0.2100,0.0461,-0.0210,0.0536,-0.0020,-0.0086,-0.0092,-2.5920,1.3525,3.0167
2024-10-11T13:13:28.584Z,0.0251,-0.9754,0.2095,0.0461,-0.0210,0.0536,-0.0013,-0.0052,-0.0071,-2.5920,1.3525,3.0167
2024-10-11T13:13:28.595Z,0.0262,-0.9745,0.2106,0.0461,-0.0210,0.0536,-0.0027,-0.0043,-0.0067,-2.5920,1.3525,3.0167
2024-10-11T13:13:28.604Z,0.0267,-0.9753,0.2106,0.0096,-0.0169,0.0415,-0.0015,-0.0036,-0.0088,-2.5913,1.3525,3.0156
2024-10-11T13:13:28.614Z,0.0278,-0.9748,0.2113,0.0096,-0.0169,0.0415,-0.0028,-0.0025,-0.0068,-2.5913,1.3525,3.0156
2024-10-11T13:13:28.623Z,0.0287,-0.9741,0.2125,0.0096,-0.0169,0.0415,-0.0020,0.0032,-0.0052,-2.5913,1.3525,3.0156
2024-10-11T13:13:28.633Z,0.0267,-0.9747,0.2152,-0.0131,-0.0217,0.0225,0.0005,0.0028,-0.0055,-2.5908,1.3525,3.0149
2024-10-11T13:13:28.644Z,0.0270,-0.9744,0.2152,-0.0131,-0.0217,0.0225,-0.0018,0.0085,-0.0056,-2.5908,1.3525,3.0149
2024-10-11T13:13:28.654Z,0.0280,-0.9749,0.2155,-0.0131,-0.0217,0.0225,-0.0001,0.0052,-0.0033,-2.5908,1.3525,3.0149
2024-10-11T13:13:28.663Z,0.0278,-0.9751,0.2166,-0.0064,-0.0133,-0.0065,-0.0014,0.0098,-0.0038,-2.5907,1.3525,3.0148
2024-10-11T13:13:28.673Z,0.0262,-0.9776,0.2161,-0.0064,-0.0133,-0.0065,-0.0002,0.0090,-0.0030,-2.5907,1.3525,3.0148
2024-10-11T13:13:28.684Z,0.0261,-0.9763,0.2167,-0.0064,-0.0133,-0.0065,0.0011,0.0090,-0.0036,-2.5907,1.3525,3.0148
2024-10-11T13:13:28.694Z,0.0265,-0.9751,0.2163,0.0136,0.0006,-0.0182,-0.0013,0.0084,-0.0016,-2.5904,1.3525,3.0145
2024-10-11T13:13:28.704Z,0.0253,-0.9758,0.2163,0.0136,0.0006,-0.0182,-0.0009,0.0083,-0.0039,-2.5904,1.3525,3.0145
2024-10-11T13:13:28.714Z,0.0246,-0.9771,0.2154,0.0136,0.0006,-0.0182,0.0002,0.0105,-0.0023,-2.5904,1.3525,3.0145
2024-10-11T13:13:28.724Z,0.0237,-0.9792,0.2141,0.0289,0.0085,-0.0056,-0.0011,0.0122,-0.0053,-2.5902,1.3525,3.0143
2024-10-11T13:13:28.734Z,0.0252,-0.9791,0.2114,0.0289,0.0085,-0.0056,0.0017,0.0091,-0.0034,-2.5902,1.3525,3.0143
2024-10-11T13:13:28.744Z,0.0258,-0.9802,0.2121,0.0289,0.0085,-0.0056,-0.0012,0.0108,-0.0047,-2.5902,1.3525,3.0143
2024-10-11T13:13:28.754Z,0.0292,-0.9792,0.2130,0.0170,0.0391,0.0273,0.0024,0.0121,-0.0069,-2.5899,1.3524,3.0141
2024-10-11T13:13:28.764Z,0.0287,-0.9801,0.2133,0.0170,0.0391,0.0273,-0.0012,0.0106,-0.0054,-2.5899,1.3524,3.0141
2024-10-11T13:13:28.774Z,0.0301,-0.9787,0.2124,0.0170,0.0391,0.0273,0.0016,0.0071,-0.0033,-2.5899,1.3524,3.0141
2024-10-11T13:13:28.784Z,0.0296,-0.9786,0.2126,-0.0245,0.0245,0.0258,0.0030,0.0096,-0.0045,-2.5896,1.3523,3.0139
2024-10-11T13:13:28.793Z,0.0297,-0.9792,0.2112,-0.0245,0.0245,0.0258,0.0026,0.0096,-0.0065,-2.5896,1.3523,3.0139
2024-10-11T13:13:28.805Z,0.0317,-0.9764,0.2094,-0.0245,0.0245,0.0258,0.0024,0.0067,-0.0026,-2.5896,1.3523,3.0139
2024-10-11T13:13:28.814Z,0.0320,-0.9781,0.2120,-0.0399,0.0020,0.0559,-0.0003,0.0082,-0.0041,-2.5895,1.3522,3.0138
2024-10-11T13:13:28.824Z,0.0318,-0.9783,0.2122,-0.0399,0.0020,0.0559,0.0015,0.0118,-0.0032,-2.5895,1.3522,3.0138
2024-10-11T13:13:28.834Z,0.0337,-0.9748,0.2128,-0.0399,0.0020,0.0559,-0.0040,0.0094,-0.0030,-2.5895,1.3522,3.0138
2024-10-11T13:13:28.843Z,0.0336,-0.9764,0.2114,-0.0587,-0.0140,0.0218,-0.0035,0.0100,-0.0030,-2.5893,1.3522,3.0136
2024-10-11T13:13:28.854Z,0.0332,-0.9761,0.2125,-0.0587,-0.0140,0.0218,-0.0006,0.0078,0.0001,-2.5893,1.3522,3.0136
2024-10-11T13:13:28.864Z,0.0330,-0.9754,0.2125,-0.0587,-0.0140,0.0218,-0.0041,0.0081,-0.0033,-2.5893,1.3522,3.0136
2024-10-11T13:13:28.874Z,0.0314,-0.9736,0.2121,-0.0515,-0.0077,0.0248,-0.0037,0.0085,-0.0006,-2.5890,1.3523,3.0133
2024-10-11T13:13:28.884Z,0.0319,-0.9718,0.2120,-0.0515,-0.0077,0.0248,-0.0047,0.0098,-0.0041,-2.5890,1.3523,3.0133
2024-10-11T13:13:28.894Z,0.0274,-0.9709,0.2096,-0.0515,-0.0077,0.0248,-0.0017,0.0085,-0.0019,-2.5890,1.3523,3.0133
2024-10-11T13:13:28.904Z,0.0318,-0.9703,0.2090,0.0037,-0.0523,0.0523,-0.0006,0.0068,-0.0032,-2.5887,1.3524,3.0129
2024-10-11T13:13:28.914Z,0.0311,-0.9732,0.2083,0.0037,-0.0523,0.0523,-0.0009,0.0038,-0.0019,-2.5887,1.3524,3.0129
2024-10-11T13:13:28.924Z,0.0323,-0.9736,0.2051,0.0037,-0.0523,0.0523,-0.0013,0.0062,0.0007,-2.5887,1.3524,3.0129
2024-10-11T13:13:28.934Z,0.0309,-0.9760,0.2048,-0.0429,-0.0254,0.0958,0.0003,0.0072,-0.0012,-2.5883,1.3524,3.0125
2024-10-11T13:13:28.944Z,0.0317,-0.9774,0.2037,-0.0429,-0.0254,0.0958,0.0034,0.0114,-0.0016,-2.5883,1.3524,3.0125
2024-10-11T13:13:28.954Z,0.0332,-0.9775,0.2037,-0.0429,-0.0254,0.0958,0.0005,0.0087,-0.0024,-2.5883,1.3524,3.0125
2024-10-11T13:13:28.964Z,0.0328,-0.9784,0.2035,-0.0512,0.0124,0.1103,0.0012,0.0129,-0.0010,-2.5881,1.3523,3.0123
2024-10-11T13:13:28.974Z,0.0332,-0.9778,0.2048,-0.0512,0.0124,0.1103,0.0039,0.0132,-0.0008,-2.5881,1.3523,3.0123
2024-10-11T13:13:28.984Z,0.0322,-0.9777,0.2064,-0.0512,0.0124,0.1103,0.0044,0.0102,-0.0003,-2.5881,1.3523,3.0123
2024-10-11T13:13:28.994Z,0.0321,-0.9770,0.2063,-0.0424,0.0150,0.0852,0.0028,0.0115,-0.0019,-2.5882,1.3522,3.0125
2024-10-11T13:13:29.004Z,0.0280,-0.9773,0.2073,-0.0424,0.0150,0.0852,0.0045,0.0102,0.0012,-2.5882,1.3522,3.0125
2024-10-11T13:13:29.014Z,0.0259,-0.9758,0.2097,-0.0424,0.0150,0.0852,0.0045,0.0119,-0.0010,-2.5882,1.3522,3.0125
2024-10-11T13:13:29.024Z,0.0268,-0.9766,0.2098,0.0201,-0.0039,0.0529,0.0056,0.0102,-0.0026,-2.5881,1.3521,3.0124
2024-10-11T13:13:29.034Z,0.0275,-0.9784,0.2101,0.0201,-0.0039,0.0529,0.0033,0.0115,-0.0056,-2.5881,1.3521,3.0124
2024-10-11T13:13:29.044Z,0.0279,-0.9779,0.2094,0.0201,-0.0039,0.0529,0.0021,0.0101,-0.0028,-2.5881,1.3521,3.0124
2024-10-11T13:13:29.056Z,0.0293,-0.9794,0.2114,0.0010,0.0166,0.0567,0.0048,0.0150,-0.0056,-2.5875,1.3520,3.0120
2024-10-11T13:13:29.064Z,0.0305,-0.9805,0.2112,0.0010,0.0166,0.0567,0.0012,0.0131,-0.0027,-2.5875,1.3520,3.0120
2024-10-11T13:13:29.074Z,0.0294,-0.9810,0.2102,0.0010,0.0166,0.0567,0.0058,0.0089,-0.0025,-2.5875,1.3520,3.0120
2024-10-11T13:13:29.084Z,0.0292,-0.9810,0.2116,-0.0120,0.0477,0.0497,0.0029,0.0097,-0.0047,-2.5871,1.3519,3.0116
2024-10-11T13:13:29.094Z,0.0284,-0.9793,0.2133,-0.0120,0.0477,0.0497,0.0028,0.0063,-0.0013,-2.5871,1.3519,3.0116
2024-10-11T13:13:29.106Z,0.0277,-0.9774,0.2128,0.0046,0.0123,0.0253,-0.0004,0.0120,-0.0026,-2.5869,1.3518,3.0114
2024-10-11T13:13:29.114Z,0.0287,-0.9776,0.2135,0.0046,0.0123,0.0253,0.0025,0.0122,-0.0029,-2.5869,1.3518,3.0114
2024-10-11T13:13:29.124Z,0.0322,-0.9765,0.2137,0.0046,0.0123,0.0253,0.0001,0.0134,-0.0052,-2.5869,1.3518,3.0114
2024-10-11T13:13:29.135Z,0.0335,-0.9759,0.2140,-0.0517,-0.0016,0.0148,0.0019,0.0142,-0.0021,-2.5866,1.3517,3.0113
2024-10-11T13:13:29.144Z,0.0331,-0.9771,0.2148,-0.0517,-0.0016,0.0148,0.0013,0.0139,-0.0012,-2.5866,1.3517,3.0113
2024-10-11T13:13:29.154Z,0.0319,-0.9775,0.2166,-0.0517,-0.0016,0.0148,0.0014,0.0138,-0.0006,-2.5866,1.3517,3.0113
2024-10-11T13:13:29.165Z,0.0328,-0.9762,0.2149,-0.0450,0.0012,0.0062,0.0012,0.0146,-0.0001,-2.5866,1.3517,3.0114
2024-10-11T13:13:29.174Z,0.0319,-0.9765,0.2134,-0.0450,0.0012,0.0062,0.0031,0.0178,0.0011,-2.5866,1.3517,3.0114
2024-10-11T13:13:29.184Z,0.0316,-0.9763,0.2134,-0.0450,0.0012,0.0062,0.0018,0.0210,0.0009,-2.5866,1.3517,3.0114
2024-10-11T13:13:29.195Z,0.0325,-0.9752,0.2129,-0.0433,-0.0085,0.0263,0.0025,0.0199,0.0026,-2.5869,1.3517,3.0121
2024-10-11T13:13:29.205Z,0.0332,-0.9753,0.2128,-0.0433,-0.0085,0.0263,0.0031,0.0257,0.0023,-2.5869,1.3517,3.0121
2024-10-11T13:13:29.213Z,0.0312,-0.9765,0.2121,-0.0433,-0.0085,0.0263,0.0025,0.0261,-0.0004,-2.5869,1.3517,3.0121
2024-10-11T13:13:29.225Z,0.0319,-0.9770,0.2121,-0.0378,0.0093,0.0347,0.0010,0.0236,0.0026,-2.5865,1.3516,3.0121
2024-10-11T13:13:29.234Z,0.0321,-0.9793,0.2103,-0.0378,0.0093,0.0347,0.0035,0.0218,0.0036,-2.5865,1.3516,3.0121
2024-10-11T13:13:29.244Z,0.0319,-0.9774,0.2097,-0.0378,0.0093,0.0347,0.0013,0.0232,0.0017,-2.5865,1.3516,3.0121
2024-10-11T13:13:29.258Z,0.0321,-0.9776,0.2088,-0.0399,0.0151,0.0675,0.0011,0.0253,0.0046,-2.5862,1.3515,3.0122
2024-10-11T13:13:29.263Z,0.0324,-0.9787,0.2097,-0.0399,0.0151,0.0675,0.0008,0.0246,0.0050,-2.5862,1.3515,3.0122
2024-10-11T13:13:29.274Z,0.0323,-0.9782,0.2095,-0.0399,0.0151,0.0675,0.0021,0.0238,0.0062,-2.5862,1.3515,3.0122
2024-10-11T13:13:29.285Z,0.0309,-0.9759,0.2101,-0.0299,-0.0015,0.0560,0.0008,0.0252,0.0052,-2.5867,1.3515,3.0132
2024-10-11T13:13:29.294Z,0.0301,-0.9737,0.2094,-0.0299,-0.0015,0.0560,0.0041,0.0287,0.0043,-2.5867,1.3515,3.0132
2024-10-11T13:13:29.305Z,0.0302,-0.9731,0.2089,-0.0299,-0.0015,0.0560,0.0055,0.0299,0.0053,-2.5867,1.3515,3.0132
2024-10-11T13:13:29.315Z,0.0290,-0.9722,0.2097,-0.0138,-0.0377,0.0604,0.0029,0.0284,0.0070,-2.5873,1.3514,3.0144
2024-10-11T13:13:29.324Z,0.0280,-0.9740,0.2099,-0.0138,-0.0377,0.0604,0.0047,0.0269,0.0061,-2.5873,1.3514,3.0144
2024-10-11T13:13:29.334Z,0.0293,-0.9733,0.2107,-0.0138,-0.0377,0.0604,0.0086,0.0259,0.0049,-2.5873,1.3514,3.0144
2024-10-11T13:13:29.343Z,0.0324,-0.9730,0.2098,-0.0138,-0.0377,0.0604,0.0059,0.0246,0.0054,-2.5873,1.3514,3.0144
2024-10-11T13:13:29.355Z,0.0321,-0.9748,0.2095,-0.0491,-0.0290,0.0611,0.0070,0.0216,0.0071,-2.5879,1.3513,3.0154
2024-10-11T13:13:29.363Z,0.0300,-0.9739,0.2110,-0.0491,-0.0290,0.0611,0.0091,0.0190,0.0064,-2.5879,1.3513,3.0154
2024-10-11T13:13:29.375Z,0.0327,-0.9755,0.2112,-0.0538,-0.0043,0.0495,0.0099,0.0166,0.0043,-2.5884,1.3510,3.0162
2024-10-11T13:13:29.384Z,0.0315,-0.9745,0.2098,-0.0538,-0.0043,0.0495,0.0087,0.0163,0.0036,-2.5884,1.3510,3.0162
2024-10-11T13:13:29.394Z,0.0326,-0.9726,0.2103,-0.0538,-0.0043,0.0495,0.0099,0.0160,0.0035,-2.5884,1.3510,3.0162
2024-10-11T13:13:29.406Z,0.0338,-0.9720,0.2100,-0.0658,-0.0382,0.0637,0.0088,0.0181,0.0009,-2.5891,1.3508,3.0170
2024-10-11T13:13:29.414Z,0.0327,-0.9730,0.2132,-0.0658,-0.0382,0.0637,0.0092,0.0135,0.0049,-2.5891,1.3508,3.0170
2024-10-11T13:13:29.424Z,0.0349,-0.9747,0.2116,-0.0658,-0.0382,0.0637,0.0098,0.0149,0.0033,-2.5891,1.3508,3.0170
2024-10-11T13:13:29.434Z,0.0337,-0.9742,0.2120,-0.0648,-0.0166,0.0465,0.0092,0.0139,0.0048,-2.5891,1.3506,3.0172
2024-10-11T13:13:29.444Z,0.0340,-0.9751,0.2127,-0.0648,-0.0166,0.0465,0.0092,0.0133,0.0018,-2.5891,1.3506,3.0172
2024-10-11T13:13:29.455Z,0.0325,-0.9765,0.2136,-0.0648,-0.0166,0.0465,0.0084,0.0129,0.0041,-2.5891,1.3506,3.0172
2024-10-11T13:13:29.464Z,0.0342,-0.9751,0.2146,-0.0703,-0.0066,0.0233,0.0084,0.0117,0.0038,-2.5893,1.3504,3.0175
2024-10-11T13:13:29.474Z,0.0355,-0.9765,0.2166,-0.0703,-0.0066,0.0233,0.0101,0.0118,0.0048,-2.5893,1.3504,3.0175
2024-10-11T13:13:29.484Z,0.0338,-0.9775,0.2177,-0.0703,-0.0066,0.0233,0.0086,0.0116,0.0054,-2.5893,1.3504,3.0175
2024-10-11T13:13:29.495Z,0.0331,-0.9785,0.2193,-0.0599,0.0266,-0.0209,0.0087,0.0083,0.0063,-2.5897,1.3502,3.0179
2024-10-11T13:13:29.504Z,0.0304,-0.9771,0.2189,-0.0599,0.0266,-0.0209,0.0111,0.0079,0.0067,-2.5897,1.3502,3.0179
2024-10-11T13:13:29.514Z,0.0327,-0.9752,0.2181,-0.0599,0.0266,-0.0209,0.0096,0.0088,0.0053,-2.5897,1.3502,3.0179
2024-10-11T13:13:29.525Z,0.0300,-0.9765,0.2177,-0.0305,0.0074,-0.0025,0.0093,0.0054,0.0061,-2.5906,1.3499,3.0187
2024-10-11T13:13:29.534Z,0.0296,-0.9744,0.2173,-0.0305,0.0074,-0.0025,0.0090,0.0018,0.0077,-2.5906,1.3499,3.0187
2024-10-11T13:13:29.544Z,0.0293,-0.9754,0.2186,-0.0305,0.0074,-0.0025,0.0094,0.0035,0.0044,-2.5906,1.3499,3.0187
2024-10-11T13:13:29.554Z,0.0311,-0.9761,0.2167,-0.0425,0.0045,0.0106,0.0097,0.0032,0.0046,-2.5912,1.3496,3.0191
2024-10-11T13:13:29.564Z,0.0326,-0.9760,0.2198,-0.0425,0.0045,0.0106,0.0077,0.0040,0.0037,-2.5912,1.3496,3.0191
2024-10-11T13:13:29.574Z,0.0316,-0.9760,0.2194,-0.0425,0.0045,0.0106,0.0074,0.0052,0.0017,-2.5912,1.3496,3.0191
2024-10-11T13:13:29.584Z,0.0334,-0.9780,0.2196,-0.0645,0.0235,-0.0150,0.0092,0.0002,0.0031,-2.5916,1.3493,3.0194
2024-10-11T13:13:29.594Z,0.0306,-0.9783,0.2217,-0.0645,0.0235,-0.0150,0.0061,-0.0001,0.0023,-2.5916,1.3493,3.0194
2024-10-11T13:13:29.604Z,0.0311,-0.9780,0.2226,-0.0645,0.0235,-0.0150,0.0082,-0.0005,0.0021,-2.5916,1.3493,3.0194
2024-10-11T13:13:29.614Z,0.0302,-0.9774,0.2216,-0.0329,0.0186,-0.0333,0.0088,-0.0042,0.0024,-2.5920,1.3491,3.0193
2024-10-11T13:13:29.623Z,0.0304,-0.9780,0.2244,-0.0329,0.0186,-0.0333,0.0101,-0.0051,0.0019,-2.5920,1.3491,3.0193
2024-10-11T13:13:29.633Z,0.0293,-0.9749,0.2221,-0.0329,0.0186,-0.0333,0.0059,-0.0067,0.0016,-2.5920,1.3491,3.0193
2024-10-11T13:13:29.644Z,0.0278,-0.9768,0.2228,-0.0090,0.0126,-0.0423,0.0050,-0.0077,0.0008,-2.5920,1.3489,3.0190
2024-10-11T13:13:29.654Z,0.0263,-0.9781,0.2221,-0.0090,0.0126,-0.0423,0.0061,-0.0105,0.0011,-2.5920,1.3489,3.0190
2024-10-11T13:13:29.664Z,0.0263,-0.9775,0.2220,-0.0090,0.0126,-0.0423,0.0052,-0.0079,-0.0014,-2.5920,1.3489,3.0190
2024-10-11T13:13:29.675Z,0.0280,-0.9747,0.2211,-0.0085,-0.0070,-0.0244,0.0049,-0.0077,-0.0008,-2.5918,1.3487,3.0182
2024-10-11T13:13:29.684Z,0.0298,-0.9762,0.2215,-0.0085,-0.0070,-0.0244,0.0068,-0.0078,0.0011,-2.5918,1.3487,3.0182
2024-10-11T13:13:29.694Z,0.0286,-0.9762,0.2210,-0.0085,-0.0070,-0.0244,0.0043,-0.0093,-0.0003,-2.5918,1.3487,3.0182
2024-10-11T13:13:29.704Z,0.0291,-0.9744,0.2227,-0.0185,-0.0098,-0.0376,0.0028,-0.0098,0.0001,-2.5919,1.3484,3.0177
2024-10-11T13:13:29.713Z,0.0313,-0.9757,0.2223,-0.0185,-0.0098,-0.0376,0.0032,-0.0099,0.0009,-2.5919,1.3484,3.0177
2024-10-11T13:13:29.723Z,0.0308,-0.9745,0.2227,-0.0185,-0.0098,-0.0376,0.0035,-0.0106,0.0013,-2.5919,1.3484,3.0177
2024-10-11T13:13:29.734Z,0.0308,-0.9736,0.2231,-0.0343,-0.0168,-0.0401,0.0028,-0.0108,0.0020,-2.5923,1.3482,3.0176
2024-10-11T13:13:29.744Z,0.0292,-0.9732,0.2225,-0.0343,-0.0168,-0.0401,0.0056,-0.0125,0.0033,-2.5923,1.3482,3.0176
2024-10-11T13:13:29.754Z,0.0292,-0.9735,0.2223,-0.0343,-0.0168,-0.0401,0.0034,-0.0110,0.0027,-2.5923,1.3482,3.0176
2024-10-11T13:13:29.764Z,0.0261,-0.9738,0.2218,0.0123,-0.0149,-0.0254,0.0031,-0.0082,0.0003,-2.5927,1.3480,3.0174
2024-10-11T13:13:29.773Z,0.0261,-0.9763,0.2223,0.0123,-0.0149,-0.0254,0.0034,-0.0106,-0.0006,-2.5927,1.3480,3.0174
2024-10-11T13:13:29.784Z,0.0270,-0.9756,0.2208,0.0123,-0.0149,-0.0254,0.0029,-0.0099,0.0023,-2.5927,1.3480,3.0174
2024-10-11T13:13:29.794Z,0.0263,-0.9774,0.2194,0.0120,0.0214,-0.0003,0.0026,-0.0073,-0.0004,-2.5927,1.3479,3.0168
2024-10-11T13:13:29.804Z,0.0268,-0.9770,0.2200,0.0120,0.0214,-0.0003,0.0056,-0.0093,0.0009,-2.5927,1.3479,3.0168
2024-10-11T13:13:29.814Z,0.0283,-0.9800,0.2220,0.0120,0.0214,-0.0003,-0.0014,-0.0109,-0.0016,-2.5927,1.3479,3.0168
2024-10-11T13:13:29.824Z,0.0266,-0.9790,0.2220,0.0107,0.0366,-0.0250,-0.0022,-0.0122,0.0022,-2.5925,1.3477,3.0161
2024-10-11T13:13:29.833Z,0.0245,-0.9790,0.2221,0.0107,0.0366,-0.0250,0.0007,-0.0113,-0.0014,-2.5925,1.3477,3.0161
2024-10-11T13:13:29.844Z,0.0221,-0.9804,0.2222,0.0107,0.0366,-0.0250,-0.0034,-0.0116,0.0002,-2.5925,1.3477,3.0161
2024-10-11T13:13:29.854Z,0.0232,-0.9842,0.2259,0.0446,0.0884,-0.0626,-0.0004,-0.0113,-0.0001,-2.5929,1.3477,3.0158
2024-10-11T13:13:29.864Z,0.0240,-1.0042,0.2288,0.0446,0.0884,-0.0626,-0.0005,-0.0104,0.0005,-2.5929,1.3477,3.0158
2024-10-11T13:13:29.873Z,0.0266,-1.0237,0.2253,0.0446,0.0884,-0.0626,-0.0006,-0.0096,0.0012,-2.5929,1.3477,3.0158
2024-10-11T13:13:29.884Z,0.0261,-1.0222,0.2239,0.0170,0.4614,-0.0433,-0.0004,-0.0086,0.0003,-2.5932,1.3477,3.0156
2024-10-11T13:13:29.894Z,0.0278,-1.0116,0.2324,0.0170,0.4614,-0.0433,-0.0040,-0.0061,-0.0000,-2.5932,1.3477,3.0156
2024-10-11T13:13:29.904Z,0.0279,-1.0054,0.2343,0.0170,0.4614,-0.0433,-0.0061,-0.0051,0.0019,-2.5932,1.3477,3.0156
2024-10-11T13:13:29.914Z,0.0305,-1.0017,0.2351,-0.0269,0.2595,-0.1544,-0.0084,-0.0073,0.0040,-2.5936,1.3479,3.0155
2024-10-11T13:13:29.923Z,0.0272,-0.9928,0.2321,-0.0269,0.2595,-0.1544,-0.0104,-0.0067,0.0062,-2.5936,1.3479,3.0155
2024-10-11T13:13:29.933Z,0.0294,-0.9851,0.2298,-0.0269,0.2595,-0.1544,-0.0149,-0.0051,0.0027,-2.5936,1.3479,3.0155
2024-10-11T13:13:29.944Z,0.0289,-0.9815,0.2369,-0.0118,0.0603,-0.1771,-0.0171,-0.0043,0.0067,-2.5944,1.3483,3.0158
2024-10-11T13:13:29.954Z,0.0262,-0.9751,0.2444,-0.0118,0.0603,-0.1771,-0.0242,-0.0059,0.0073,-2.5944,1.3483,3.0158
2024-10-11T13:13:29.964Z,0.0243,-0.9699,0.2441,-0.0118,0.0603,-0.1771,-0.0257,-0.0070,0.0029,-2.5944,1.3483,3.0158
2024-10-11T13:13:29.974Z,0.0252,-0.9658,0.2310,0.0233,-0.0955,-0.1262,-0.0294,-0.0065,0.0044,-2.5949,1.3491,3.0159
2024-10-11T13:13:29.984Z,0.0231,-0.9737,0.2224,0.0233,-0.0955,-0.1262,-0.0254,-0.0056,0.0061,-2.5949,1.3491,3.0159
2024-10-11T13:13:29.994Z,0.0244,-0.9865,0.2096,0.0233,-0.0955,-0.1262,-0.0232,-0.0033,0.0062,-2.5949,1.3491,3.0159
2024-10-11T13:13:30.004Z,0.0234,-0.9800,0.2082,0.0401,0.0421,0.0907,-0.0275,0.0016,0.0049,-2.5954,1.3498,3.0160
2024-10-11T13:13:30.014Z,0.0184,-0.9559,0.2138,0.0401,0.0421,0.0907,-0.0243,0.0001,0.0047,-2.5954,1.3498,3.0160
2024-10-11T13:13:30.023Z,0.0194,-0.9486,0.2251,0.0401,0.0421,0.0907,-0.0260,0.0009,0.0049,-2.5954,1.3498,3.0160
2024-10-11T13:13:30.034Z,0.0169,-0.9505,0.2160,0.1023,-0.2489,0.0063,-0.0276,0.0015,0.0039,-2.5955,1.3506,3.0160
2024-10-11T13:13:30.044Z,0.0232,-0.9503,0.2165,0.1023,-0.2489,0.0063,-0.0267,0.0046,0.0055,-2.5955,1.3506,3.0160
2024-10-11T13:13:30.054Z,0.0214,-0.9482,0.2148,0.1023,-0.2489,0.0063,-0.0291,0.0051,0.0006,-2.5955,1.3506,3.0160
2024-10-11T13:13:30.064Z,0.0202,-0.9485,0.2137,0.0693,-0.2699,0.0214,-0.0287,0.0067,0.0016,-2.5956,1.3514,3.0160
2024-10-11T13:13:30.073Z,0.0124,-0.9499,0.2115,0.0693,-0.2699,0.0214,-0.0254,0.0058,0.0002,-2.5956,1.3514,3.0160
2024-10-11T13:13:30.084Z,0.0175,-0.9508,0.2081,0.0693,-0.2699,0.0214,-0.0261,0.0037,-0.0011,-2.5956,1.3514,3.0160
2024-10-11T13:13:30.094Z,0.0183,-0.9565,0.1980,0.0877,-0.1929,0.1690,-0.0225,0.0069,0.0001,-2.5954,1.3521,3.0157
2024-10-11T13:13:30.104Z,0.0251,-0.9660,0.2061,0.0877,-0.1929,0.1690,-0.0168,0.0090,0.0010,-2.5954,1.3521,3.0157
2024-10-11T13:13:30.114Z,0.0251,-0.9792,0.2171,0.0877,-0.1929,0.1690,-0.0174,0.0106,0.0032,-2.5954,1.3521,3.0157
2024-10-11T13:13:30.124Z,0.0272,-0.9904,0.2112,-0.0010,0.1386,0.0349,-0.0174,0.0106,0.0008,-2.5956,1.3526,3.0160
2024-10-11T13:13:30.133Z,0.0282,-0.9801,0.2260,-0.0010,0.1386,0.0349,-0.0175,0.0173,0.0025,-2.5956,1.3526,3.0160
2024-10-11T13:13:30.144Z,0.0235,-0.9728,0.2222,-0.0010,0.1386,0.0349,-0.0206,0.0163,0.0019,-2.5956,1.3526,3.0160
2024-10-11T13:13:30.154Z,0.0244,-0.9764,0.2128,0.0253,-0.0004,0.0146,-0.0155,0.0216,0.0027,-2.5957,1.3531,3.0164
2024-10-11T13:13:30.164Z,0.0240,-0.9740,0.2090,0.0253,-0.0004,0.0146,-0.0162,0.0212,0.0009,-2.5957,1.3531,3.0164
2024-10-11T13:13:30.174Z,0.0280,-0.9730,0.2093,0.0253,-0.0004,0.0146,-0.0166,0.0242,0.0033,-2.5957,1.3531,3.0164
2024-10-11T13:13:30.184Z,0.0237,-0.9705,0.2085,0.0300,-0.0592,0.0532,-0.0140,0.0270,0.0046,-2.5959,1.3535,3.0171
2024-10-11T13:13:30.194Z,0.0236,-0.9748,0.2092,0.0300,-0.0592,0.0532,-0.0141,0.0274,0.0036,-2.5959,1.3535,3.0171
2024-10-11T13:13:30.204Z,0.0190,-0.9760,0.2106,0.0300,-0.0592,0.0532,-0.0135,0.0217,-0.0002,-2.5959,1.3535,3.0171
2024-10-11T13:13:30.214Z,0.0168,-0.9787,0.2079,0.0958,0.0210,0.0560,-0.0110,0.0195,0.0000,-2.5960,1.3538,3.0176
2024-10-11T13:13:30.224Z,0.0180,-0.9823,0.2029,0.0958,0.0210,0.0560,-0.0067,0.0165,0.0000,-2.5960,1.3538,3.0176
2024-10-11T13:13:30.234Z,0.0192,-0.9834,0.2069,0.0958,0.0210,0.0560,-0.0064,0.0212,0.0003,-2.5960,1.3538,3.0176
2024-10-11T13:13:30.244Z,0.0257,-0.9876,0.2044,0.0079,0.1081,0.0890,-0.0052,0.0224,-0.0005,-2.5960,1.3540,3.0179
2024-10-11T13:13:30.254Z,0.0258,-0.9883,0.2048,0.0079,0.1081,0.0890,-0.0034,0.0215,-0.0007,-2.5960,1.3540,3.0179
2024-10-11T13:13:30.264Z,0.0189,-0.9819,0.2211,0.0079,0.1081,0.0890,-0.0069,0.0178,-0.0032,-2.5960,1.3540,3.0179
2024-10-11T13:13:30.274Z,0.0165,-0.9786,0.2111,0.0985,0.0198,0.0223,-0.0055,0.0170,-0.0025,-2.5957,1.3541,3.0180
2024-10-11T13:13:30.284Z,0.0118,-0.9876,0.2118,0.0985,0.0198,0.0223,-0.0050,0.0187,-0.0064,-2.5957,1.3541,3.0180
2024-10-11T13:13:30.294Z,0.0146,-0.9936,0.2148,0.0985,0.0198,0.0223,-0.0049,0.0179,-0.0072,-2.5957,1.3541,3.0180
2024-10-11T13:13:30.304Z,0.0166,-1.0000,0.2189,0.0982,0.2291,-0.0564,-0.0066,0.0189,-0.0100,-2.5947,1.3543,3.0173
2024-10-11T13:13:30.314Z,0.0192,-0.9988,0.2249,0.0982,0.2291,-0.0564,-0.0112,0.0191,-0.0099,-2.5947,1.3543,3.0173
2024-10-11T13:13:30.324Z,0.0252,-0.9968,0.2274,0.0982,0.2291,-0.0564,-0.0095,0.0217,-0.0107,-2.5947,1.3543,3.0173
2024-10-11T13:13:30.334Z,0.0285,-0.9899,0.2314,-0.0170,0.1297,-0.1817,-0.0131,0.0213,-0.0104,-2.5934,1.3545,3.0164
2024-10-11T13:13:30.345Z,0.0310,-0.9893,0.2299,-0.0170,0.1297,-0.1817,-0.0146,0.0230,-0.0076,-2.5934,1.3545,3.0164
2024-10-11T13:13:30.354Z,0.0243,-0.9836,0.2309,-0.0170,0.1297,-0.1817,-0.0165,0.0212,-0.0082,-2.5934,1.3545,3.0164
2024-10-11T13:13:30.364Z,0.0234,-0.9805,0.2303,0.0347,0.0365,-0.1766,-0.0228,0.0179,-0.0090,-2.5919,1.3551,3.0153
2024-10-11T13:13:30.373Z,0.0194,-0.9854,0.2273,0.0347,0.0365,-0.1766,-0.0239,0.0163,-0.0100,-2.5919,1.3551,3.0153
2024-10-11T13:13:30.384Z,0.0163,-0.9870,0.2298,0.0347,0.0365,-0.1766,-0.0281,0.0155,-0.0119,-2.5919,1.3551,3.0153
2024-10-11T13:13:30.394Z,0.0182,-0.9897,0.2287,0.0890,0.1249,-0.1687,-0.0300,0.0156,-0.0119,-2.5899,1.3558,3.0136
2024-10-11T13:13:30.403Z,0.0226,-0.9940,0.2210,0.0890,0.1249,-0.1687,-0.0320,0.0196,-0.0146,-2.5899,1.3558,3.0136
2024-10-11T13:13:30.414Z,0.0248,-0.9937,0.2277,0.0890,0.1249,-0.1687,-0.0344,0.0247,-0.0131,-2.5899,1.3558,3.0136
2024-10-11T13:13:30.424Z,0.0277,-0.9843,0.2213,-0.0025,0.0696,-0.1050,-0.0370,0.0262,-0.0109,-2.5879,1.3568,3.0121
2024-10-11T13:13:30.434Z,0.0303,-0.9703,0.2180,-0.0025,0.0696,-0.1050,-0.0387,0.0298,-0.0087,-2.5879,1.3568,3.0121
2024-10-11T13:13:30.444Z,0.0323,-0.9593,0.2164,-0.0025,0.0696,-0.1050,-0.0373,0.0314,-0.0102,-2.5879,1.3568,3.0121
2024-10-11T13:13:30.454Z,0.0321,-0.9557,0.2070,-0.0445,-0.2132,0.0248,-0.0383,0.0323,-0.0091,-2.5861,1.3578,3.0110
2024-10-11T13:13:30.464Z,0.0264,-0.9551,0.2085,-0.0445,-0.2132,0.0248,-0.0391,0.0328,-0.0097,-2.5861,1.3578,3.0110
2024-10-11T13:13:30.474Z,0.0248,-0.9598,0.2017,-0.0445,-0.2132,0.0248,-0.0372,0.0317,-0.0098,-2.5861,1.3578,3.0110
2024-10-11T13:13:30.484Z,0.0271,-0.9603,0.2048,0.0048,-0.1704,0.0365,-0.0382,0.0301,-0.0084,-2.5844,1.3588,3.0100
2024-10-11T13:13:30.493Z,0.0266,-0.9649,0.2086,0.0048,-0.1704,0.0365,-0.0356,0.0264,-0.0086,-2.5844,1.3588,3.0100
