time,gFx,gFy,gFz,ax,ay,az,wx,wy,wz,yaw,pitch,roll
2024-10-11T12:36:04.289Z,0.0091,-0.9730,0.2247,0.0282,-0.0046,0.0816,-0.0068,0.0008,-0.0028,-2.5280,1.3359,3.0869
2024-10-11T12:36:04.296Z,0.0077,-0.9688,0.2338,0.0282,-0.0046,0.0816,-0.0083,0.0097,-0.0045,-2.5280,1.3359,3.0869
2024-10-11T12:36:04.306Z,0.0055,-0.9685,0.2349,0.0579,-0.0399,-0.0236,-0.0070,0.0050,-0.0061,-2.5275,1.3360,3.0862
2024-10-11T12:36:04.316Z,0.0069,-0.9689,0.2349,0.0579,-0.0399,-0.0236,-0.0035,0.0071,-0.0053,-2.5275,1.3360,3.0862
2024-10-11T12:36:04.326Z,0.0060,-0.9675,0.2294,0.0579,-0.0399,-0.0236,-0.0071,0.0077,-0.0067,-2.5275,1.3360,3.0862
2024-10-11T12:36:04.336Z,0.0077,-0.9668,0.2254,0.0626,-0.0551,0.0507,-0.0049,0.0090,-0.0060,-2.5267,1.3362,3.0854
2024-10-11T12:36:04.346Z,0.0060,-0.9660,0.2218,0.0626,-0.0551,0.0507,-0.0075,0.0092,-0.0091,-2.5267,1.3362,3.0854
2024-10-11T12:36:04.356Z,0.0062,-0.9689,0.2199,0.0626,-0.0551,0.0507,-0.0020,0.0074,-0.0068,-2.5267,1.3362,3.0854
2024-10-11T12:36:04.366Z,0.0037,-0.9714,0.2205,0.0755,-0.0169,0.1186,-0.0036,0.0071,-0.0067,-2.5258,1.3363,3.0845
2024-10-11T12:36:04.376Z,0.0076,-0.9724,0.2200,0.0755,-0.0169,0.1186,-0.0016,0.0093,-0.0084,-2.5258,1.3363,3.0845
2024-10-11T12:36:04.386Z,0.0072,-0.9712,0.2202,0.0755,-0.0169,0.1186,0.0003,0.0094,-0.0095,-2.5258,1.3363,3.0845
2024-10-11T12:36:04.396Z,0.0085,-0.9700,0.2221,0.0659,-0.0180,0.1057,0.0004,0.0092,-0.0091,-2.5249,1.3363,3.0836
2024-10-11T12:36:04.406Z,0.0085,-0.9709,0.2215,0.0659,-0.0180,0.1057,0.0037,0.0098,-0.0107,-2.5249,1.3363,3.0836
2024-10-11T12:36:04.416Z,0.0082,-0.9698,0.2231,0.0659,-0.0180,0.1057,0.0026,0.0091,-0.0111,-2.5249,1.3363,3.0836
2024-10-11T12:36:04.427Z,0.0101,-0.9698,0.2225,0.0374,-0.0256,0.0862,0.0043,0.0132,-0.0112,-2.5239,1.3361,3.0828
2024-10-11T12:36:04.437Z,0.0108,-0.9709,0.2241,0.0374,-0.0256,0.0862,0.0048,0.0141,-0.0100,-2.5239,1.3361,3.0828
2024-10-11T12:36:04.446Z,0.0099,-0.9705,0.2289,0.0374,-0.0256,0.0862,0.0034,0.0156,-0.0083,-2.5239,1.3361,3.0828
2024-10-11T12:36:04.456Z,0.0091,-0.9702,0.2333,0.0497,-0.0207,-0.0030,0.0042,0.0155,-0.0093,-2.5228,1.3360,3.0820
2024-10-11T12:36:04.466Z,0.0090,-0.9699,0.2335,0.0497,-0.0207,-0.0030,0.0067,0.0167,-0.0069,-2.5228,1.3360,3.0820
2024-10-11T12:36:04.476Z,0.0108,-0.9717,0.2363,0.0497,-0.0207,-0.0030,0.0032,0.0179,-0.0072,-2.5228,1.3360,3.0820
2024-10-11T12:36:04.486Z,0.0140,-0.9717,0.2375,0.0096,-0.0125,-0.0513,0.0013,0.0215,-0.0083,-2.5220,1.3359,3.0816
2024-10-11T12:36:04.495Z,0.0142,-0.9745,0.2400,0.0096,-0.0125,-0.0513,0.0042,0.0209,-0.0051,-2.5220,1.3359,3.0816
2024-10-11T12:36:04.506Z,0.0170,-0.9750,0.2407,0.0096,-0.0125,-0.0513,0.0013,0.0221,-0.0059,-2.5220,1.3359,3.0816
2024-10-11T12:36:04.516Z,0.0181,-0.9763,0.2395,-0.0292,0.0361,-0.0882,-0.0034,0.0253,-0.0049,-2.5215,1.3359,3.0814
2024-10-11T12:36:04.526Z,0.0217,-0.9754,0.2384,-0.0292,0.0361,-0.0882,-0.0030,0.0269,-0.0055,-2.5215,1.3359,3.0814
2024-10-11T12:36:04.536Z,0.0200,-0.9753,0.2358,-0.0292,0.0361,-0.0882,-0.0028,0.0303,-0.0042,-2.5215,1.3359,3.0814
2024-10-11T12:36:04.546Z,0.0209,-0.9726,0.2353,-0.0601,0.0190,-0.0326,-0.0035,0.0299,-0.0027,-2.5213,1.3360,3.0819
2024-10-11T12:36:04.556Z,0.0203,-0.9719,0.2322,-0.0601,0.0190,-0.0326,-0.0055,0.0310,-0.0012,-2.5213,1.3360,3.0819
2024-10-11T12:36:04.566Z,0.0201,-0.9717,0.2303,-0.0601,0.0190,-0.0326,-0.0029,0.0302,0.0008,-2.5213,1.3360,3.0819
2024-10-11T12:36:04.577Z,0.0160,-0.9728,0.2239,-0.0339,0.0042,0.0530,-0.0078,0.0288,0.0021,-2.5215,1.3362,3.0827
2024-10-11T12:36:04.586Z,0.0139,-0.9739,0.2204,-0.0339,0.0042,0.0530,-0.0033,0.0294,-0.0019,-2.5215,1.3362,3.0827
2024-10-11T12:36:04.596Z,0.0107,-0.9769,0.2214,-0.0339,0.0042,0.0530,-0.0035,0.0270,-0.0021,-2.5215,1.3362,3.0827
2024-10-11T12:36:04.606Z,0.0118,-0.9782,0.2240,0.0297,0.0440,0.0908,-0.0016,0.0254,-0.0013,-2.5215,1.3362,3.0832
2024-10-11T12:36:04.616Z,0.0137,-0.9789,0.2264,0.0297,0.0440,0.0908,-0.0001,0.0210,-0.0010,-2.5215,1.3362,3.0832
2024-10-11T12:36:04.626Z,0.0131,-0.9820,0.2272,0.0297,0.0440,0.0908,-0.0025,0.0202,-0.0036,-2.5215,1.3362,3.0832
2024-10-11T12:36:04.637Z,0.0154,-0.9828,0.2274,-0.0180,0.0992,0.0471,-0.0028,0.0186,-0.0006,-2.5213,1.3362,3.0834
2024-10-11T12:36:04.646Z,0.0177,-0.9847,0.2284,-0.0180,0.0992,0.0471,-0.0002,0.0162,-0.0008,-2.5213,1.3362,3.0834
2024-10-11T12:36:04.656Z,0.0184,-0.9836,0.2260,-0.0180,0.0992,0.0471,0.0005,0.0153,-0.0034,-2.5213,1.3362,3.0834
2024-10-11T12:36:04.667Z,0.0199,-0.9817,0.2262,-0.0649,0.0935,0.0593,0.0001,0.0131,-0.0033,-2.5212,1.3362,3.0834
2024-10-11T12:36:04.676Z,0.0167,-0.9790,0.2268,-0.0649,0.0935,0.0593,0.0001,0.0103,-0.0007,-2.5212,1.3362,3.0834
2024-10-11T12:36:04.686Z,0.0153,-0.9789,0.2270,-0.0649,0.0935,0.0593,-0.0008,0.0117,0.0004,-2.5212,1.3362,3.0834
2024-10-11T12:36:04.695Z,0.0164,-0.9791,0.2287,-0.0380,0.0686,0.0354,0.0002,0.0122,-0.0026,-2.5211,1.3363,3.0834
2024-10-11T12:36:04.706Z,0.0123,-0.9781,0.2312,-0.0380,0.0686,0.0354,-0.0032,0.0138,-0.0018,-2.5211,1.3363,3.0834
2024-10-11T12:36:04.716Z,0.0155,-0.9756,0.2351,-0.0380,0.0686,0.0354,-0.0009,0.0099,-0.0017,-2.5211,1.3363,3.0834
2024-10-11T12:36:04.726Z,0.0112,-0.9748,0.2346,-0.0022,0.0230,-0.0340,-0.0016,0.0143,-0.0000,-2.5211,1.3364,3.0835
2024-10-11T12:36:04.736Z,0.0140,-0.9730,0.2364,-0.0022,0.0230,-0.0340,-0.0029,0.0133,-0.0005,-2.5211,1.3364,3.0835
2024-10-11T12:36:04.745Z,0.0174,-0.9730,0.2395,-0.0022,0.0230,-0.0340,-0.0040,0.0197,0.0007,-2.5211,1.3364,3.0835
2024-10-11T12:36:04.756Z,0.0196,-0.9738,0.2407,-0.0504,0.0068,-0.0848,-0.0044,0.0200,0.0006,-2.5211,1.3366,3.0839
2024-10-11T12:36:04.766Z,0.0174,-0.9740,0.2378,-0.0504,0.0068,-0.0848,-0.0051,0.0238,-0.0005,-2.5211,1.3366,3.0839
2024-10-11T12:36:04.776Z,0.0193,-0.9729,0.2341,-0.0504,0.0068,-0.0848,-0.0056,0.0228,0.0013,-2.5211,1.3366,3.0839
2024-10-11T12:36:04.786Z,0.0165,-0.9713,0.2319,-0.0589,-0.0094,-0.0083,-0.0045,0.0262,0.0030,-2.5215,1.3367,3.0848
2024-10-11T12:36:04.795Z,0.0104,-0.9693,0.2338,-0.0589,-0.0094,-0.0083,-0.0049,0.0280,0.0018,-2.5215,1.3367,3.0848
2024-10-11T12:36:04.806Z,0.0094,-0.9669,0.2345,-0.0589,-0.0094,-0.0083,-0.0038,0.0281,0.0020,-2.5215,1.3367,3.0848
2024-10-11T12:36:04.816Z,0.0070,-0.9678,0.2318,0.0441,-0.0577,-0.0169,-0.0041,0.0250,0.0035,-2.5219,1.3368,3.0857
2024-10-11T12:36:04.826Z,0.0081,-0.9683,0.2313,0.0441,-0.0577,-0.0169,-0.0023,0.0277,-0.0003,-2.5219,1.3368,3.0857
2024-10-11T12:36:04.836Z,0.0096,-0.9678,0.2335,0.0441,-0.0577,-0.0169,-0.0045,0.0286,-0.0010,-2.5219,1.3368,3.0857
2024-10-11T12:36:04.846Z,0.0088,-0.9674,0.2344,0.0431,-0.0484,-0.0307,-0.0038,0.0290,-0.0012,-2.5217,1.3368,3.0860
2024-10-11T12:36:04.856Z,0.0097,-0.9692,0.2346,0.0431,-0.0484,-0.0307,-0.0020,0.0290,-0.0059,-2.5217,1.3368,3.0860
2024-10-11T12:36:04.866Z,0.0092,-0.9700,0.2366,0.0431,-0.0484,-0.0307,-0.0037,0.0284,-0.0031,-2.5217,1.3368,3.0860
2024-10-11T12:36:04.877Z,0.0073,-0.9700,0.2380,0.0503,-0.0280,-0.0601,-0.0047,0.0309,-0.0036,-2.5212,1.3369,3.0862
2024-10-11T12:36:04.887Z,0.0074,-0.9700,0.2343,0.0503,-0.0280,-0.0601,-0.0035,0.0305,-0.0077,-2.5212,1.3369,3.0862
2024-10-11T12:36:04.896Z,0.0075,-0.9718,0.2338,0.0503,-0.0280,-0.0601,-0.0019,0.0321,-0.0031,-2.5212,1.3369,3.0862
2024-10-11T12:36:04.906Z,0.0079,-0.9727,0.2340,0.0446,-0.0062,-0.0247,-0.0009,0.0307,-0.0077,-2.5207,1.3369,3.0863
2024-10-11T12:36:04.916Z,0.0060,-0.9728,0.2362,0.0446,-0.0062,-0.0247,-0.0020,0.0341,-0.0065,-2.5207,1.3369,3.0863
2024-10-11T12:36:04.926Z,0.0067,-0.9704,0.2358,0.0446,-0.0062,-0.0247,-0.0023,0.0339,-0.0071,-2.5207,1.3369,3.0863
2024-10-11T12:36:04.936Z,0.0067,-0.9705,0.2355,0.0616,-0.0243,-0.0373,-0.0026,0.0354,-0.0115,-2.5198,1.3369,3.0862
2024-10-11T12:36:04.946Z,0.0101,-0.9681,0.2366,0.0616,-0.0243,-0.0373,-0.0000,0.0343,-0.0108,-2.5198,1.3369,3.0862
2024-10-11T12:36:04.956Z,0.0141,-0.9682,0.2384,0.0616,-0.0243,-0.0373,-0.0014,0.0367,-0.0117,-2.5198,1.3369,3.0862
2024-10-11T12:36:04.966Z,0.0130,-0.9675,0.2377,-0.0079,-0.0445,-0.0609,-0.0007,0.0348,-0.0103,-2.5205,1.3363,3.0879
2024-10-11T12:36:04.976Z,0.0147,-0.9658,0.2357,-0.0079,-0.0445,-0.0609,0.0027,0.0358,-0.0098,-2.5205,1.3363,3.0879
2024-10-11T12:36:04.986Z,0.0160,-0.9648,0.2376,-0.0079,-0.0445,-0.0609,-0.0022,0.0370,-0.0101,-2.5205,1.3363,3.0879
2024-10-11T12:36:04.996Z,0.0156,-0.9634,0.2377,-0.0354,-0.0852,-0.0501,0.0021,0.0372,-0.0087,-2.5199,1.3362,3.0882
2024-10-11T12:36:05.006Z,0.0184,-0.9619,0.2365,-0.0354,-0.0852,-0.0501,-0.0001,0.0377,-0.0081,-2.5199,1.3362,3.0882
2024-10-11T12:36:05.016Z,0.0181,-0.9662,0.2355,-0.0354,-0.0852,-0.0501,0.0007,0.0396,-0.0086,-2.5199,1.3362,3.0882
2024-10-11T12:36:05.026Z,0.0158,-0.9667,0.2369,-0.0355,-0.0544,-0.0504,0.0011,0.0378,-0.0105,-2.5191,1.3361,3.0884
2024-10-11T12:36:05.036Z,0.0151,-0.9655,0.2381,-0.0355,-0.0544,-0.0504,0.0010,0.0334,-0.0067,-2.5191,1.3361,3.0884
2024-10-11T12:36:05.046Z,0.0163,-0.9664,0.2405,-0.0355,-0.0544,-0.0504,0.0021,0.0345,-0.0086,-2.5191,1.3361,3.0884
2024-10-11T12:36:05.056Z,0.0227,-0.9647,0.2414,-0.0841,-0.0765,-0.0857,0.0008,0.0321,-0.0056,-2.5184,1.3360,3.0884
2024-10-11T12:36:05.066Z,0.0219,-0.9626,0.2416,-0.0841,-0.0765,-0.0857,-0.0010,0.0296,-0.0044,-2.5184,1.3360,3.0884
2024-10-11T12:36:05.076Z,0.0226,-0.9620,0.2411,-0.0841,-0.0765,-0.0857,-0.0026,0.0281,-0.0047,-2.5184,1.3360,3.0884
2024-10-11T12:36:05.086Z,0.0222,-0.9660,0.2372,-0.0985,-0.0821,-0.0621,-0.0028,0.0225,-0.0017,-2.5180,1.3360,3.0885
2024-10-11T12:36:05.096Z,0.0201,-0.9678,0.2349,-0.0985,-0.0821,-0.0621,-0.0031,0.0183,-0.0022,-2.5180,1.3360,3.0885
2024-10-11T12:36:05.107Z,0.0193,-0.9685,0.2311,-0.0985,-0.0821,-0.0621,-0.0033,0.0102,-0.0025,-2.5180,1.3360,3.0885
2024-10-11T12:36:05.116Z,0.0168,-0.9713,0.2294,-0.0465,-0.0202,0.0252,-0.0032,0.0075,-0.0018,-2.5178,1.3359,3.0883
2024-10-11T12:36:05.127Z,0.0184,-0.9718,0.2291,-0.0465,-0.0202,0.0252,0.0027,0.0026,-0.0007,-2.5178,1.3359,3.0883
2024-10-11T12:36:05.136Z,0.0206,-0.9732,0.2302,-0.0465,-0.0202,0.0252,0.0032,-0.0040,0.0003,-2.5178,1.3359,3.0883
2024-10-11T12:36:05.146Z,0.0198,-0.9736,0.2279,-0.0728,0.0091,0.0432,0.0032,-0.0066,-0.0011,-2.5176,1.3357,3.0877
2024-10-11T12:36:05.156Z,0.0218,-0.9716,0.2257,-0.0728,0.0091,0.0432,0.0055,-0.0113,0.0007,-2.5176,1.3357,3.0877
2024-10-11T12:36:05.166Z,0.0207,-0.9718,0.2265,-0.0728,0.0091,0.0432,0.0051,-0.0116,-0.0026,-2.5176,1.3357,3.0877
2024-10-11T12:36:05.177Z,0.0192,-0.9719,0.2265,-0.0617,-0.0014,0.0584,0.0044,-0.0122,0.0000,-2.5176,1.3355,3.0871
2024-10-11T12:36:05.187Z,0.0207,-0.9710,0.2277,-0.0617,-0.0014,0.0584,0.0079,-0.0145,0.0007,-2.5176,1.3355,3.0871
2024-10-11T12:36:05.196Z,0.0178,-0.9717,0.2298,-0.0617,-0.0014,0.0584,0.0079,-0.0145,0.0007,-2.5176,1.3355,3.0871
2024-10-11T12:36:05.206Z,0.0161,-0.9719,0.2320,-0.0372,-0.0042,0.0131,0.0098,-0.0124,0.0001,-2.5179,1.3352,3.0867
2024-10-11T12:36:05.217Z,0.0190,-0.9729,0.2324,-0.0372,-0.0042,0.0131,0.0132,-0.0097,0.0024,-2.5179,1.3352,3.0867
2024-10-11T12:36:05.226Z,0.0199,-0.9758,0.2321,-0.0372,-0.0042,0.0131,0.0132,-0.0097,0.0024,-2.5179,1.3352,3.0867
2024-10-11T12:36:05.238Z,0.0188,-0.9767,0.2316,-0.0700,0.0419,0.0134,0.0132,-0.0071,0.0049,-2.5183,1.3348,3.0867
2024-10-11T12:36:05.245Z,0.0163,-0.9763,0.2317,-0.0700,0.0419,0.0134,0.0132,-0.0071,0.0049,-2.5183,1.3348,3.0867
2024-10-11T12:36:05.257Z,0.0150,-0.9762,0.2324,-0.0700,0.0419,0.0134,0.0127,-0.0084,0.0049,-2.5183,1.3348,3.0867
2024-10-11T12:36:05.265Z,0.0131,-0.9769,0.2310,0.0012,0.0384,0.0175,0.0127,-0.0084,0.0049,-2.5183,1.3346,3.0861
2024-10-11T12:36:05.278Z,0.0143,-0.9772,0.2271,0.0012,0.0384,0.0175,0.0130,-0.0071,0.0037,-2.5183,1.3346,3.0861
2024-10-11T12:36:05.287Z,0.0132,-0.9765,0.2265,0.0012,0.0384,0.0175,0.0114,-0.0069,0.0061,-2.5183,1.3346,3.0861
2024-10-11T12:36:05.296Z,0.0146,-0.9754,0.2288,-0.0050,0.0355,0.0704,0.0114,-0.0069,0.0061,-2.5188,1.3342,3.0861
2024-10-11T12:36:05.307Z,0.0140,-0.9735,0.2309,-0.0050,0.0355,0.0704,0.0126,-0.0032,0.0071,-2.5188,1.3342,3.0861
2024-10-11T12:36:05.317Z,0.0133,-0.9710,0.2307,-0.0050,0.0355,0.0704,0.0126,-0.0032,0.0071,-2.5188,1.3342,3.0861
2024-10-11T12:36:05.327Z,0.0128,-0.9691,0.2329,0.0052,-0.0256,0.0209,0.0108,-0.0010,0.0039,-2.5194,1.3339,3.0863
2024-10-11T12:36:05.337Z,0.0155,-0.9697,0.2318,0.0052,-0.0256,0.0209,0.0093,0.0048,0.0075,-2.5194,1.3339,3.0863
2024-10-11T12:36:05.347Z,0.0151,-0.9727,0.2323,0.0052,-0.0256,0.0209,0.0068,0.0057,0.0049,-2.5194,1.3339,3.0863
2024-10-11T12:36:05.357Z,0.0145,-0.9729,0.2339,-0.0145,0.0080,0.0219,0.0083,0.0080,0.0051,-2.5203,1.3336,3.0869
2024-10-11T12:36:05.367Z,0.0113,-0.9728,0.2348,-0.0145,0.0080,0.0219,0.0077,0.0087,0.0075,-2.5203,1.3336,3.0869
2024-10-11T12:36:05.377Z,0.0107,-0.9711,0.2378,-0.0145,0.0080,0.0219,0.0077,0.0087,0.0075,-2.5203,1.3336,3.0869
2024-10-11T12:36:05.387Z,0.0085,-0.9715,0.2379,0.0296,-0.0048,-0.0249,0.0071,0.0089,0.0059,-2.5211,1.3335,3.0877
2024-10-11T12:36:05.398Z,0.0081,-0.9717,0.2385,0.0296,-0.0048,-0.0249,0.0048,0.0083,0.0056,-2.5211,1.3335,3.0877
2024-10-11T12:36:05.407Z,0.0069,-0.9705,0.2383,0.0296,-0.0048,-0.0249,0.0041,0.0117,0.0030,-2.5211,1.3335,3.0877
2024-10-11T12:36:05.417Z,0.0063,-0.9706,0.2401,0.0609,-0.0174,-0.0450,0.0024,0.0125,0.0020,-2.5216,1.3335,3.0884
2024-10-11T12:36:05.427Z,0.0046,-0.9744,0.2418,0.0609,-0.0174,-0.0450,0.0024,0.0125,0.0020,-2.5216,1.3335,3.0884
2024-10-11T12:36:05.437Z,0.0042,-0.9766,0.2432,0.0609,-0.0174,-0.0450,-0.0033,0.0126,-0.0012,-2.5216,1.3335,3.0884
2024-10-11T12:36:05.447Z,0.0074,-0.9772,0.2420,0.0477,0.0522,-0.0635,-0.0034,0.0155,-0.0012,-2.5218,1.3335,3.0886
2024-10-11T12:36:05.457Z,0.0088,-0.9793,0.2440,0.0477,0.0522,-0.0635,-0.0066,0.0176,-0.0009,-2.5218,1.3335,3.0886
2024-10-11T12:36:05.467Z,0.0140,-0.9833,0.2427,0.0477,0.0522,-0.0635,-0.0037,0.0202,0.0003,-2.5218,1.3335,3.0886
2024-10-11T12:36:05.479Z,0.0142,-0.9839,0.2397,-0.0178,0.1129,-0.0632,-0.0073,0.0221,-0.0004,-2.5219,1.3336,3.0890
2024-10-11T12:36:05.486Z,0.0179,-0.9870,0.2365,-0.0178,0.1129,-0.0632,-0.0073,0.0221,-0.0004,-2.5219,1.3336,3.0890
2024-10-11T12:36:05.497Z,0.0177,-0.9873,0.2344,-0.0178,0.1129,-0.0632,-0.0055,0.0225,0.0024,-2.5219,1.3336,3.0890
2024-10-11T12:36:05.505Z,0.0174,-0.9871,0.2295,-0.0503,0.1437,0.0330,-0.0055,0.0225,0.0024,-2.5222,1.3337,3.0897
2024-10-11T12:36:05.517Z,0.0163,-0.9867,0.2277,-0.0503,0.1437,0.0330,-0.0067,0.0210,0.0028,-2.5222,1.3337,3.0897
2024-10-11T12:36:05.527Z,0.0161,-0.9854,0.2267,-0.0503,0.1437,0.0330,-0.0067,0.0210,0.0028,-2.5222,1.3337,3.0897
2024-10-11T12:36:05.536Z,0.0124,-0.9828,0.2246,-0.0096,0.1181,0.0925,-0.0066,0.0226,0.0002,-2.5225,1.3339,3.0904
2024-10-11T12:36:05.547Z,0.0134,-0.9801,0.2245,-0.0096,0.1181,0.0925,-0.0063,0.0188,-0.0002,-2.5225,1.3339,3.0904
2024-10-11T12:36:05.557Z,0.0125,-0.9779,0.2269,-0.0096,0.1181,0.0925,-0.0077,0.0198,-0.0023,-2.5225,1.3339,3.0904
2024-10-11T12:36:05.567Z,0.0105,-0.9740,0.2285,0.0169,0.0373,0.0517,-0.0098,0.0185,-0.0012,-2.5226,1.3341,3.0909
2024-10-11T12:36:05.580Z,0.0118,-0.9693,0.2296,0.0169,0.0373,0.0517,-0.0090,0.0152,-0.0010,-2.5226,1.3341,3.0909
2024-10-11T12:36:05.587Z,0.0113,-0.9663,0.2333,0.0169,0.0373,0.0517,-0.0101,0.0120,-0.0009,-2.5226,1.3341,3.0909
2024-10-11T12:36:05.597Z,0.0117,-0.9662,0.2335,-0.0146,-0.0591,0.0015,-0.0091,0.0126,-0.0024,-2.5226,1.3344,3.0911
2024-10-11T12:36:05.607Z,0.0106,-0.9662,0.2330,-0.0146,-0.0591,0.0015,-0.0078,0.0105,-0.0020,-2.5226,1.3344,3.0911
2024-10-11T12:36:05.617Z,0.0140,-0.9670,0.2343,-0.0146,-0.0591,0.0015,-0.0076,0.0108,-0.0025,-2.5226,1.3344,3.0911
2024-10-11T12:36:05.627Z,0.0132,-0.9693,0.2352,-0.0118,-0.0326,-0.0095,-0.0098,0.0101,-0.0022,-2.5225,1.3346,3.0910
2024-10-11T12:36:05.636Z,0.0131,-0.9706,0.2385,-0.0118,-0.0326,-0.0095,-0.0085,0.0080,-0.0031,-2.5225,1.3346,3.0910
2024-10-11T12:36:05.647Z,0.0108,-0.9713,0.2417,-0.0118,-0.0326,-0.0095,-0.0116,0.0073,-0.0023,-2.5225,1.3346,3.0910
2024-10-11T12:36:05.656Z,0.0152,-0.9753,0.2414,-0.0198,0.0209,-0.0765,-0.0119,0.0064,-0.0024,-2.5222,1.3349,3.0908
2024-10-11T12:36:05.666Z,0.0143,-0.9754,0.2428,-0.0198,0.0209,-0.0765,-0.0118,0.0069,-0.0009,-2.5222,1.3349,3.0908
2024-10-11T12:36:05.677Z,0.0172,-0.9750,0.2431,-0.0198,0.0209,-0.0765,-0.0125,0.0087,-0.0013,-2.5222,1.3349,3.0908
2024-10-11T12:36:05.686Z,0.0205,-0.9770,0.2445,-0.0761,0.0421,-0.1105,-0.0140,0.0096,-0.0009,-2.5222,1.3352,3.0907
2024-10-11T12:36:05.697Z,0.0192,-0.9739,0.2399,-0.0761,0.0421,-0.1105,-0.0121,0.0060,-0.0013,-2.5222,1.3352,3.0907
2024-10-11T12:36:05.706Z,0.0182,-0.9751,0.2385,-0.0761,0.0421,-0.1105,-0.0138,0.0050,-0.0024,-2.5222,1.3352,3.0907
2024-10-11T12:36:05.716Z,0.0163,-0.9733,0.2381,-0.0434,0.0131,-0.0518,-0.0125,0.0033,0.0007,-2.5222,1.3356,3.0906
2024-10-11T12:36:05.727Z,0.0172,-0.9752,0.2371,-0.0434,0.0131,-0.0518,-0.0132,0.0019,0.0011,-2.5222,1.3356,3.0906
2024-10-11T12:36:05.737Z,0.0121,-0.9744,0.2368,-0.0434,0.0131,-0.0518,-0.0144,-0.0008,-0.0014,-2.5222,1.3356,3.0906
2024-10-11T12:36:05.747Z,0.0101,-0.9737,0.2377,0.0195,0.0101,-0.0494,-0.0160,-0.0046,-0.0019,-2.5223,1.3359,3.0905
2024-10-11T12:36:05.757Z,0.0111,-0.9742,0.2367,0.0195,0.0101,-0.0494,-0.0118,-0.0023,0.0002,-2.5223,1.3359,3.0905
2024-10-11T12:36:05.767Z,0.0104,-0.9720,0.2363,0.0195,0.0101,-0.0494,-0.0165,-0.0022,-0.0035,-2.5223,1.3359,3.0905
2024-10-11T12:36:05.779Z,0.0108,-0.9714,0.2365,0.0131,-0.0106,-0.0464,-0.0136,-0.0045,-0.0037,-2.5218,1.3362,3.0897
2024-10-11T12:36:05.786Z,0.0136,-0.9703,0.2338,0.0131,-0.0106,-0.0464,-0.0156,-0.0056,-0.0023,-2.5218,1.3362,3.0897
2024-10-11T12:36:05.796Z,0.0152,-0.9707,0.2336,0.0131,-0.0106,-0.0464,-0.0143,-0.0056,-0.0012,-2.5218,1.3362,3.0897
2024-10-11T12:36:05.806Z,0.0186,-0.9695,0.2341,-0.0444,-0.0253,-0.0211,-0.0130,-0.0041,0.0002,-2.5213,1.3365,3.0888
2024-10-11T12:36:05.816Z,0.0190,-0.9685,0.2349,-0.0444,-0.0253,-0.0211,-0.0134,-0.0066,-0.0025,-2.5213,1.3365,3.0888
2024-10-11T12:36:05.827Z,0.0154,-0.9660,0.2313,-0.0444,-0.0253,-0.0211,-0.0121,-0.0063,-0.0007,-2.5213,1.3365,3.0888
2024-10-11T12:36:05.836Z,0.0132,-0.9652,0.2323,-0.0200,-0.0722,0.0020,-0.0124,-0.0063,0.0025,-2.5213,1.3368,3.0884
2024-10-11T12:36:05.846Z,0.0126,-0.9657,0.2323,-0.0200,-0.0722,0.0020,-0.0106,-0.0082,0.0009,-2.5213,1.3368,3.0884
2024-10-11T12:36:05.856Z,0.0148,-0.9677,0.2324,-0.0200,-0.0722,0.0020,-0.0122,-0.0062,0.0021,-2.5213,1.3368,3.0884
2024-10-11T12:36:05.866Z,0.0133,-0.9704,0.2312,-0.0120,-0.0301,-0.0048,-0.0093,-0.0057,0.0008,-2.5216,1.3371,3.0882
2024-10-11T12:36:05.878Z,0.0137,-0.9702,0.2305,-0.0120,-0.0301,-0.0048,-0.0087,-0.0039,0.0011,-2.5216,1.3371,3.0882
2024-10-11T12:36:05.886Z,0.0119,-0.9727,0.2305,-0.0120,-0.0301,-0.0048,-0.0085,-0.0029,0.0005,-2.5216,1.3371,3.0882
2024-10-11T12:36:05.897Z,0.0119,-0.9732,0.2325,0.0084,-0.0057,-0.0068,-0.0086,-0.0055,0.0012,-2.5215,1.3373,3.0877
2024-10-11T12:36:05.906Z,0.0135,-0.9730,0.2343,0.0084,-0.0057,-0.0068,-0.0112,-0.0032,0.0015,-2.5215,1.3373,3.0877
2024-10-11T12:36:05.916Z,0.0132,-0.9726,0.2323,0.0084,-0.0057,-0.0068,-0.0100,-0.0050,0.0029,-2.5215,1.3373,3.0877
2024-10-11T12:36:05.928Z,0.0111,-0.9724,0.2310,0.0089,0.0030,-0.0089,-0.0087,-0.0038,0.0034,-2.5217,1.3375,3.0875
2024-10-11T12:36:05.936Z,0.0089,-0.9717,0.2274,0.0089,0.0030,-0.0089,-0.0065,-0.0022,0.0041,-2.5217,1.3375,3.0875
2024-10-11T12:36:05.947Z,0.0085,-0.9710,0.2277,0.0089,0.0030,-0.0089,-0.0082,-0.0046,0.0032,-2.5217,1.3375,3.0875
2024-10-11T12:36:05.957Z,0.0056,-0.9682,0.2272,0.0573,-0.0379,0.0298,-0.0078,-0.0040,-0.0002,-2.5221,1.3377,3.0875
2024-10-11T12:36:05.966Z,0.0016,-0.9682,0.2275,0.0573,-0.0379,0.0298,-0.0049,-0.0065,-0.0001,-2.5221,1.3377,3.0875
2024-10-11T12:36:05.977Z,0.0043,-0.9663,0.2299,0.0573,-0.0379,0.0298,-0.0067,-0.0043,-0.0012,-2.5221,1.3377,3.0875
2024-10-11T12:36:05.987Z,0.0069,-0.9665,0.2326,0.0661,-0.0591,-0.0191,-0.0048,-0.0038,-0.0013,-2.5223,1.3378,3.0873
2024-10-11T12:36:05.996Z,0.0066,-0.9675,0.2319,0.0661,-0.0591,-0.0191,-0.0057,-0.0037,-0.0016,-2.5223,1.3378,3.0873
2024-10-11T12:36:06.006Z,0.0104,-0.9679,0.2296,0.0661,-0.0591,-0.0191,-0.0029,0.0009,0.0000,-2.5223,1.3378,3.0873
2024-10-11T12:36:06.016Z,0.0115,-0.9689,0.2276,0.0171,-0.0467,0.0233,-0.0042,0.0006,0.0009,-2.5224,1.3379,3.0871
2024-10-11T12:36:06.026Z,0.0121,-0.9700,0.2277,0.0171,-0.0467,0.0233,-0.0025,-0.0013,0.0046,-2.5224,1.3379,3.0871
2024-10-11T12:36:06.036Z,0.0111,-0.9721,0.2245,0.0171,-0.0467,0.0233,-0.0026,0.0028,-0.0002,-2.5224,1.3379,3.0871
2024-10-11T12:36:06.046Z,0.0112,-0.9741,0.2238,0.0102,0.0026,0.0639,-0.0027,0.0045,0.0023,-2.5231,1.3380,3.0875
2024-10-11T12:36:06.056Z,0.0107,-0.9764,0.2246,0.0102,0.0026,0.0639,-0.0001,0.0074,0.0016,-2.5231,1.3380,3.0875
2024-10-11T12:36:06.066Z,0.0135,-0.9761,0.2239,0.0102,0.0026,0.0639,-0.0007,0.0062,0.0015,-2.5231,1.3380,3.0875
2024-10-11T12:36:06.076Z,0.0144,-0.9751,0.2273,-0.0168,0.0250,0.0345,-0.0007,0.0076,0.0023,-2.5239,1.3380,3.0882
2024-10-11T12:36:06.086Z,0.0133,-0.9729,0.2264,-0.0168,0.0250,0.0345,0.0002,0.0102,0.0011,-2.5239,1.3380,3.0882
2024-10-11T12:36:06.096Z,0.0145,-0.9711,0.2273,-0.0168,0.0250,0.0345,0.0014,0.0094,0.0034,-2.5239,1.3380,3.0882
2024-10-11T12:36:06.106Z,0.0128,-0.9714,0.2306,-0.0055,-0.0174,0.0084,0.0003,0.0142,0.0028,-2.5244,1.3380,3.0888
2024-10-11T12:36:06.116Z,0.0144,-0.9720,0.2301,-0.0055,-0.0174,0.0084,0.0016,0.0127,0.0051,-2.5244,1.3380,3.0888
2024-10-11T12:36:06.126Z,0.0169,-0.9725,0.2293,-0.0055,-0.0174,0.0084,0.0020,0.0175,0.0020,-2.5244,1.3380,3.0888
2024-10-11T12:36:06.136Z,0.0159,-0.9736,0.2301,-0.0482,-0.0063,0.0036,0.0024,0.0168,0.0047,-2.5251,1.3380,3.0897
2024-10-11T12:36:06.147Z,0.0122,-0.9724,0.2323,-0.0482,-0.0063,0.0036,0.0021,0.0181,0.0043,-2.5251,1.3380,3.0897
2024-10-11T12:36:06.156Z,0.0114,-0.9726,0.2329,-0.0482,-0.0063,0.0036,0.0009,0.0173,0.0045,-2.5251,1.3380,3.0897
2024-10-11T12:36:06.167Z,0.0130,-0.9709,0.2338,-0.0075,-0.0112,-0.0280,-0.0003,0.0183,0.0027,-2.5257,1.3380,3.0906
2024-10-11T12:36:06.176Z,0.0107,-0.9704,0.2324,-0.0075,-0.0112,-0.0280,0.0017,0.0177,0.0048,-2.5257,1.3380,3.0906
2024-10-11T12:36:06.186Z,0.0091,-0.9716,0.2320,-0.0075,-0.0112,-0.0280,0.0003,0.0197,0.0030,-2.5257,1.3380,3.0906
2024-10-11T12:36:06.196Z,0.0071,-0.9714,0.2295,0.0396,-0.0166,-0.0002,0.0048,0.0167,0.0036,-2.5263,1.3380,3.0915
2024-10-11T12:36:06.207Z,0.0054,-0.9701,0.2289,0.0396,-0.0166,-0.0002,0.0047,0.0165,0.0019,-2.5263,1.3380,3.0915
2024-10-11T12:36:06.216Z,0.0080,-0.9685,0.2271,0.0396,-0.0166,-0.0002,0.0026,0.0177,0.0036,-2.5263,1.3380,3.0915
2024-10-11T12:36:06.226Z,0.0059,-0.9683,0.2296,0.0422,-0.0419,0.0156,0.0014,0.0205,-0.0004,-2.5265,1.3379,3.0919
2024-10-11T12:36:06.236Z,0.0058,-0.9706,0.2314,0.0422,-0.0419,0.0156,0.0032,0.0202,-0.0019,-2.5265,1.3379,3.0919
2024-10-11T12:36:06.247Z,0.0075,-0.9731,0.2296,0.0422,-0.0419,0.0156,0.0013,0.0221,0.0005,-2.5265,1.3379,3.0919
2024-10-11T12:36:06.256Z,0.0089,-0.9750,0.2313,0.0307,0.0159,0.0042,0.0005,0.0206,0.0008,-2.5265,1.3378,3.0923
2024-10-11T12:36:06.266Z,0.0104,-0.9749,0.2297,0.0307,0.0159,0.0042,0.0006,0.0198,0.0003,-2.5265,1.3378,3.0923
2024-10-11T12:36:06.276Z,0.0110,-0.9761,0.2300,0.0307,0.0159,0.0042,0.0020,0.0197,-0.0015,-2.5265,1.3378,3.0923
2024-10-11T12:36:06.286Z,0.0150,-0.9757,0.2311,-0.0245,0.0255,0.0064,0.0023,0.0198,-0.0001,-2.5268,1.3377,3.0929
2024-10-11T12:36:06.297Z,0.0147,-0.9739,0.2331,-0.0245,0.0255,0.0064,0.0031,0.0194,0.0011,-2.5268,1.3377,3.0929
2024-10-11T12:36:06.306Z,0.0155,-0.9753,0.2333,-0.0245,0.0255,0.0064,-0.0020,0.0192,0.0027,-2.5268,1.3377,3.0929
2024-10-11T12:36:06.316Z,0.0141,-0.9772,0.2335,-0.0314,0.0409,-0.0262,-0.0021,0.0168,0.0008,-2.5273,1.3377,3.0937
2024-10-11T12:36:06.326Z,0.0125,-0.9756,0.2332,-0.0314,0.0409,-0.0262,-0.0042,0.0186,0.0011,-2.5273,1.3377,3.0937
2024-10-11T12:36:06.336Z,0.0135,-0.9722,0.2314,-0.0314,0.0409,-0.0262,-0.0025,0.0187,0.0001,-2.5273,1.3377,3.0937
2024-10-11T12:36:06.346Z,0.0114,-0.9713,0.2309,-0.0147,-0.0085,-0.0034,-0.0031,0.0150,0.0014,-2.5275,1.3378,3.0943
2024-10-11T12:36:06.356Z,0.0115,-0.9723,0.2332,-0.0147,-0.0085,-0.0034,-0.0058,0.0126,-0.0012,-2.5275,1.3378,3.0943
2024-10-11T12:36:06.366Z,0.0098,-0.9753,0.2341,-0.0147,-0.0085,-0.0034,-0.0037,0.0104,-0.0024,-2.5275,1.3378,3.0943
2024-10-11T12:36:06.376Z,0.0082,-0.9748,0.2320,0.0164,0.0176,-0.0285,-0.0049,0.0074,-0.0020,-2.5274,1.3379,3.0943
2024-10-11T12:36:06.386Z,0.0083,-0.9767,0.2299,0.0164,0.0176,-0.0285,-0.0039,0.0071,-0.0041,-2.5274,1.3379,3.0943
2024-10-11T12:36:06.397Z,0.0126,-0.9771,0.2294,0.0164,0.0176,-0.0285,-0.0059,0.0061,-0.0026,-2.5274,1.3379,3.0943
2024-10-11T12:36:06.406Z,0.0117,-0.9783,0.2290,-0.0235,0.0479,0.0068,-0.0051,0.0062,-0.0007,-2.5271,1.3379,3.0939
2024-10-11T12:36:06.416Z,0.0115,-0.9782,0.2285,-0.0235,0.0479,0.0068,-0.0050,0.0020,-0.0025,-2.5271,1.3379,3.0939
2024-10-11T12:36:06.427Z,0.0129,-0.9778,0.2247,-0.0235,0.0479,0.0068,-0.0057,0.0012,-0.0006,-2.5271,1.3379,3.0939
2024-10-11T12:36:06.436Z,0.0119,-0.9776,0.2226,-0.0083,0.0466,0.0670,-0.0053,-0.0001,-0.0044,-2.5267,1.3380,3.0933
2024-10-11T12:36:06.446Z,0.0122,-0.9789,0.2200,-0.0083,0.0466,0.0670,-0.0025,-0.0021,-0.0042,-2.5267,1.3380,3.0933
2024-10-11T12:36:06.456Z,0.0149,-0.9788,0.2206,-0.0083,0.0466,0.0670,-0.0021,-0.0021,-0.0049,-2.5267,1.3380,3.0933
2024-10-11T12:36:06.466Z,0.0136,-0.9777,0.2197,-0.0305,0.0504,0.0922,-0.0024,-0.0061,-0.0032,-2.5263,1.3381,3.0927
2024-10-11T12:36:06.476Z,0.0155,-0.9754,0.2173,-0.0305,0.0504,0.0922,0.0026,-0.0046,-0.0037,-2.5263,1.3381,3.0927
2024-10-11T12:36:06.486Z,0.0139,-0.9729,0.2211,-0.0305,0.0504,0.0922,-0.0031,-0.0038,-0.0058,-2.5263,1.3381,3.0927
2024-10-11T12:36:06.496Z,0.0151,-0.9734,0.2227,-0.0328,0.0010,0.0799,-0.0015,-0.0057,-0.0039,-2.5259,1.3381,3.0919
2024-10-11T12:36:06.506Z,0.0137,-0.9726,0.2212,-0.0328,0.0010,0.0799,0.0009,-0.0088,-0.0036,-2.5259,1.3381,3.0919
2024-10-11T12:36:06.516Z,0.0154,-0.9726,0.2217,-0.0328,0.0010,0.0799,0.0017,-0.0070,-0.0047,-2.5259,1.3381,3.0919
2024-10-11T12:36:06.526Z,0.0145,-0.9718,0.2225,-0.0413,-0.0061,0.0805,0.0022,-0.0048,-0.0058,-2.5255,1.3381,3.0909
2024-10-11T12:36:06.536Z,0.0128,-0.9689,0.2258,-0.0413,-0.0061,0.0805,0.0020,-0.0099,-0.0037,-2.5255,1.3381,3.0909
2024-10-11T12:36:06.546Z,0.0119,-0.9692,0.2254,-0.0413,-0.0061,0.0805,0.0057,-0.0108,-0.0057,-2.5255,1.3381,3.0909
2024-10-11T12:36:06.556Z,0.0101,-0.9696,0.2248,0.0134,-0.0343,0.0529,0.0047,-0.0089,-0.0058,-2.5248,1.3380,3.0897
2024-10-11T12:36:06.566Z,0.0139,-0.9695,0.2243,0.0134,-0.0343,0.0529,0.0046,-0.0060,-0.0029,-2.5248,1.3380,3.0897
2024-10-11T12:36:06.576Z,0.0176,-0.9703,0.2255,0.0134,-0.0343,0.0529,0.0031,-0.0059,-0.0032,-2.5248,1.3380,3.0897
2024-10-11T12:36:06.586Z,0.0168,-0.9681,0.2285,-0.0554,-0.0451,0.0247,0.0018,-0.0030,-0.0038,-2.5243,1.3379,3.0888
2024-10-11T12:36:06.597Z,0.0154,-0.9680,0.2291,-0.0554,-0.0451,0.0247,0.0030,-0.0020,0.0004,-2.5243,1.3379,3.0888
2024-10-11T12:36:06.606Z,0.0162,-0.9676,0.2302,-0.0554,-0.0451,0.0247,0.0033,0.0010,0.0003,-2.5243,1.3379,3.0888
2024-10-11T12:36:06.616Z,0.0165,-0.9675,0.2328,-0.0403,-0.0545,-0.0225,0.0019,0.0037,-0.0014,-2.5242,1.3379,3.0884
2024-10-11T12:36:06.626Z,0.0156,-0.9702,0.2339,-0.0403,-0.0545,-0.0225,0.0022,0.0076,-0.0006,-2.5242,1.3379,3.0884
2024-10-11T12:36:06.636Z,0.0153,-0.9729,0.2324,-0.0403,-0.0545,-0.0225,0.0013,0.0074,-0.0001,-2.5242,1.3379,3.0884
2024-10-11T12:36:06.647Z,0.0116,-0.9740,0.2311,-0.0106,0.0021,-0.0133,0.0044,0.0073,0.0007,-2.5244,1.3378,3.0886
2024-10-11T12:36:06.656Z,0.0077,-0.9739,0.2307,-0.0106,0.0021,-0.0133,0.0021,0.0105,-0.0026,-2.5244,1.3378,3.0886
2024-10-11T12:36:06.666Z,0.0042,-0.9756,0.2305,-0.0106,0.0021,-0.0133,0.0023,0.0060,0.0011,-2.5244,1.3378,3.0886
2024-10-11T12:36:06.676Z,0.0085,-0.9784,0.2280,0.0415,0.0417,0.0258,0.0016,0.0093,-0.0014,-2.5244,1.3378,3.0885
2024-10-11T12:36:06.686Z,0.0048,-0.9783,0.2302,0.0415,0.0417,0.0258,-0.0003,0.0061,-0.0025,-2.5244,1.3378,3.0885
2024-10-11T12:36:06.696Z,0.0100,-0.9784,0.2293,0.0415,0.0417,0.0258,0.0005,0.0051,-0.0038,-2.5244,1.3378,3.0885
2024-10-11T12:36:06.706Z,0.0097,-0.9787,0.2289,0.0237,0.0649,0.0146,-0.0025,0.0059,-0.0047,-2.5240,1.3377,3.0881
2024-10-11T12:36:06.716Z,0.0126,-0.9779,0.2260,0.0237,0.0649,0.0146,0.0010,0.0029,-0.0037,-2.5240,1.3377,3.0881
2024-10-11T12:36:06.726Z,0.0133,-0.9757,0.2223,0.0237,0.0649,0.0146,-0.0007,0.0038,-0.0005,-2.5240,1.3377,3.0881
2024-10-11T12:36:06.736Z,0.0151,-0.9738,0.2218,-0.0151,0.0141,0.0853,0.0011,0.0046,-0.0026,-2.5238,1.3377,3.0878
2024-10-11T12:36:06.746Z,0.0170,-0.9725,0.2241,-0.0151,0.0141,0.0853,-0.0018,0.0014,-0.0002,-2.5238,1.3377,3.0878
2024-10-11T12:36:06.756Z,0.0170,-0.9719,0.2243,-0.0151,0.0141,0.0853,-0.0033,0.0038,-0.0022,-2.5238,1.3377,3.0878
2024-10-11T12:36:06.766Z,0.0144,-0.9738,0.2230,-0.0339,0.0011,0.0688,-0.0015,0.0017,-0.0007,-2.5240,1.3377,3.0878
2024-10-11T12:36:06.776Z,0.0175,-0.9733,0.2229,-0.0339,0.0011,0.0688,-0.0023,0.0044,0.0002,-2.5240,1.3377,3.0878
2024-10-11T12:36:06.786Z,0.0188,-0.9752,0.2221,-0.0339,0.0011,0.0688,0.0004,0.0017,0.0023,-2.5240,1.3377,3.0878
2024-10-11T12:36:06.796Z,0.0194,-0.9753,0.2228,-0.0526,0.0180,0.0814,0.0000,0.0011,0.0006,-2.5242,1.3376,3.0878
2024-10-11T12:36:06.806Z,0.0197,-0.9758,0.2203,-0.0526,0.0180,0.0814,0.0039,0.0044,0.0036,-2.5242,1.3376,3.0878
2024-10-11T12:36:06.816Z,0.0165,-0.9772,0.2217,-0.0526,0.0180,0.0814,0.0025,0.0041,0.0033,-2.5242,1.3376,3.0878
2024-10-11T12:36:06.825Z,0.0168,-0.9776,0.2247,-0.0366,0.0401,0.0724,0.0052,0.0030,0.0042,-2.5246,1.3375,3.0880
2024-10-11T12:36:06.836Z,0.0168,-0.9783,0.2280,-0.0366,0.0401,0.0724,0.0053,0.0062,0.0041,-2.5246,1.3375,3.0880
2024-10-11T12:36:06.847Z,0.0161,-0.9755,0.2302,-0.0366,0.0401,0.0724,0.0057,0.0045,0.0039,-2.5246,1.3375,3.0880
2024-10-11T12:36:06.856Z,0.0146,-0.9729,0.2288,-0.0294,0.0078,0.0128,0.0049,0.0065,0.0038,-2.5254,1.3375,3.0886
2024-10-11T12:36:06.867Z,0.0125,-0.9698,0.2275,-0.0294,0.0078,0.0128,0.0091,0.0070,0.0068,-2.5254,1.3375,3.0886
2024-10-11T12:36:06.876Z,0.0077,-0.9686,0.2302,-0.0294,0.0078,0.0128,0.0091,0.0058,0.0047,-2.5254,1.3375,3.0886
2024-10-11T12:36:06.886Z,0.0040,-0.9678,0.2332,0.0711,-0.0395,-0.0076,0.0056,0.0092,0.0029,-2.5260,1.3373,3.0891
2024-10-11T12:36:06.896Z,0.0044,-0.9675,0.2334,0.0711,-0.0395,-0.0076,0.0093,0.0094,0.0025,-2.5260,1.3373,3.0891
2024-10-11T12:36:06.906Z,0.0020,-0.9690,0.2355,0.0711,-0.0395,-0.0076,0.0082,0.0122,0.0021,-2.5260,1.3373,3.0891
2024-10-11T12:36:06.916Z,0.0059,-0.9691,0.2366,0.0810,-0.0292,-0.0495,0.0097,0.0129,0.0016,-2.5263,1.3371,3.0895
2024-10-11T12:36:06.926Z,0.0069,-0.9694,0.2373,0.0810,-0.0292,-0.0495,0.0108,0.0145,0.0037,-2.5263,1.3371,3.0895
2024-10-11T12:36:06.936Z,0.0055,-0.9720,0.2357,0.0810,-0.0292,-0.0495,0.0077,0.0160,0.0011,-2.5263,1.3371,3.0895
2024-10-11T12:36:06.946Z,0.0068,-0.9715,0.2360,0.0583,-0.0054,-0.0439,0.0090,0.0182,0.0011,-2.5267,1.3368,3.0902
2024-10-11T12:36:06.956Z,0.0054,-0.9730,0.2368,0.0583,-0.0054,-0.0439,0.0124,0.0199,-0.0004,-2.5267,1.3368,3.0902
2024-10-11T12:36:06.965Z,0.0057,-0.9734,0.2350,0.0583,-0.0054,-0.0439,0.0125,0.0231,-0.0016,-2.5267,1.3368,3.0902
2024-10-11T12:36:06.976Z,0.0034,-0.9732,0.2333,0.0706,0.0064,-0.0177,0.0091,0.0235,-0.0018,-2.5270,1.3364,3.0908
2024-10-11T12:36:06.986Z,0.0009,-0.9708,0.2336,0.0706,0.0064,-0.0177,0.0092,0.0252,-0.0041,-2.5270,1.3364,3.0908
2024-10-11T12:36:06.996Z,0.0022,-0.9693,0.2348,0.0706,0.0064,-0.0177,0.0095,0.0256,-0.0041,-2.5270,1.3364,3.0908
2024-10-11T12:36:07.006Z,0.0054,-0.9704,0.2401,0.0773,-0.0305,-0.0575,0.0060,0.0250,-0.0049,-2.5271,1.3361,3.0913
2024-10-11T12:36:07.016Z,0.0057,-0.9700,0.2402,0.0773,-0.0305,-0.0575,0.0075,0.0281,-0.0035,-2.5271,1.3361,3.0913
2024-10-11T12:36:07.026Z,0.0057,-0.9696,0.2424,0.0773,-0.0305,-0.0575,0.0047,0.0278,-0.0037,-2.5271,1.3361,3.0913
2024-10-11T12:36:07.036Z,0.0078,-0.9680,0.2446,0.0408,-0.0301,-0.1128,0.0069,0.0273,-0.0047,-2.5269,1.3358,3.0917
2024-10-11T12:36:07.046Z,0.0084,-0.9669,0.2419,0.0408,-0.0301,-0.1128,0.0060,0.0305,-0.0076,-2.5269,1.3358,3.0917
2024-10-11T12:36:07.056Z,0.0106,-0.9674,0.2403,0.0408,-0.0301,-0.1128,0.0044,0.0297,-0.0050,-2.5269,1.3358,3.0917
2024-10-11T12:36:07.066Z,0.0100,-0.9679,0.2401,0.0047,-0.0460,-0.0720,0.0036,0.0298,-0.0072,-2.5266,1.3356,3.0921
2024-10-11T12:36:07.076Z,0.0108,-0.9689,0.2383,0.0047,-0.0460,-0.0720,-0.0024,0.0296,-0.0080,-2.5266,1.3356,3.0921
2024-10-11T12:36:07.086Z,0.0122,-0.9706,0.2380,0.0047,-0.0460,-0.0720,0.0003,0.0287,-0.0063,-2.5266,1.3356,3.0921
2024-10-11T12:36:07.096Z,0.0139,-0.9722,0.2351,-0.0176,0.0045,-0.0425,-0.0008,0.0278,-0.0075,-2.5262,1.3355,3.0923
2024-10-11T12:36:07.106Z,0.0143,-0.9716,0.2320,-0.0176,0.0045,-0.0425,-0.0022,0.0229,-0.0065,-2.5262,1.3355,3.0923
2024-10-11T12:36:07.116Z,0.0125,-0.9698,0.2327,-0.0176,0.0045,-0.0425,-0.0038,0.0232,-0.0086,-2.5262,1.3355,3.0923
2024-10-11T12:36:07.126Z,0.0145,-0.9715,0.2315,-0.0179,-0.0165,0.0068,-0.0028,0.0231,-0.0094,-2.5255,1.3355,3.0921
2024-10-11T12:36:07.136Z,0.0174,-0.9728,0.2329,-0.0179,-0.0165,0.0068,-0.0041,0.0189,-0.0083,-2.5255,1.3355,3.0921
2024-10-11T12:36:07.146Z,0.0187,-0.9746,0.2295,-0.0179,-0.0165,0.0068,-0.0027,0.0168,-0.0076,-2.5255,1.3355,3.0921
2024-10-11T12:36:07.156Z,0.0187,-0.9776,0.2284,-0.0757,0.0364,0.0374,-0.0022,0.0140,-0.0069,-2.5248,1.3355,3.0917
2024-10-11T12:36:07.166Z,0.0185,-0.9790,0.2274,-0.0757,0.0364,0.0374,-0.0030,0.0175,-0.0089,-2.5248,1.3355,3.0917
2024-10-11T12:36:07.176Z,0.0172,-0.9794,0.2286,-0.0757,0.0364,0.0374,-0.0029,0.0149,-0.0062,-2.5248,1.3355,3.0917
2024-10-11T12:36:07.186Z,0.0172,-0.9804,0.2286,-0.0603,0.0710,0.0418,-0.0006,0.0114,-0.0088,-2.5241,1.3355,3.0912
2024-10-11T12:36:07.196Z,0.0133,-0.9808,0.2282,-0.0603,0.0710,0.0418,-0.0003,0.0121,-0.0072,-2.5241,1.3355,3.0912
2024-10-11T12:36:07.206Z,0.0118,-0.9805,0.2293,-0.0603,0.0710,0.0418,-0.0036,0.0096,-0.0058,-2.5241,1.3355,3.0912
2024-10-11T12:36:07.216Z,0.0130,-0.9802,0.2307,-0.0045,0.0843,0.0273,-0.0048,0.0111,-0.0064,-2.5233,1.3355,3.0905
2024-10-11T12:36:07.226Z,0.0129,-0.9778,0.2312,-0.0045,0.0843,0.0273,-0.0044,0.0071,-0.0055,-2.5233,1.3355,3.0905
2024-10-11T12:36:07.236Z,0.0138,-0.9777,0.2297,-0.0045,0.0843,0.0273,-0.0044,0.0094,-0.0057,-2.5233,1.3355,3.0905
2024-10-11T12:36:07.246Z,0.0139,-0.9750,0.2312,-0.0156,0.0306,0.0171,-0.0061,0.0089,-0.0057,-2.5226,1.3357,3.0898
2024-10-11T12:36:07.256Z,0.0139,-0.9737,0.2312,-0.0156,0.0306,0.0171,-0.0062,0.0060,-0.0027,-2.5226,1.3357,3.0898
2024-10-11T12:36:07.266Z,0.0137,-0.9749,0.2319,-0.0156,0.0306,0.0171,-0.0078,0.0030,-0.0043,-2.5226,1.3357,3.0898
2024-10-11T12:36:07.276Z,0.0165,-0.9745,0.2325,-0.0385,0.0235,-0.0003,-0.0093,0.0065,-0.0046,-2.5219,1.3359,3.0891
2024-10-11T12:36:07.286Z,0.0120,-0.9744,0.2314,-0.0385,0.0235,-0.0003,-0.0083,0.0033,-0.0026,-2.5219,1.3359,3.0891
2024-10-11T12:36:07.298Z,0.0129,-0.9735,0.2309,-0.0385,0.0235,-0.0003,-0.0075,0.0021,-0.0026,-2.5219,1.3359,3.0891
2024-10-11T12:36:07.307Z,0.0122,-0.9733,0.2300,-0.0120,0.0060,0.0121,-0.0060,0.0017,-0.0016,-2.5216,1.3361,3.0886
2024-10-11T12:36:07.316Z,0.0108,-0.9742,0.2301,-0.0120,0.0060,0.0121,-0.0059,-0.0010,-0.0016,-2.5216,1.3361,3.0886
2024-10-11T12:36:07.326Z,0.0086,-0.9752,0.2300,-0.0120,0.0060,0.0121,-0.0040,-0.0010,-0.0006,-2.5216,1.3361,3.0886
2024-10-11T12:36:07.336Z,0.0096,-0.9737,0.2287,0.0345,0.0132,0.0335,-0.0043,-0.0002,-0.0023,-2.5213,1.3363,3.0880
2024-10-11T12:36:07.346Z,0.0122,-0.9738,0.2327,0.0345,0.0132,0.0335,-0.0025,0.0012,-0.0025,-2.5213,1.3363,3.0880
2024-10-11T12:36:07.356Z,0.0165,-0.9732,0.2308,0.0345,0.0132,0.0335,-0.0044,0.0013,0.0015,-2.5213,1.3363,3.0880
2024-10-11T12:36:07.366Z,0.0152,-0.9710,0.2294,-0.0352,-0.0023,0.0298,-0.0030,0.0007,0.0027,-2.5212,1.3363,3.0876
2024-10-11T12:36:07.376Z,0.0131,-0.9693,0.2296,-0.0352,-0.0023,0.0298,-0.0016,0.0017,0.0029,-2.5212,1.3363,3.0876
2024-10-11T12:36:07.386Z,0.0139,-0.9687,0.2299,-0.0352,-0.0023,0.0298,-0.0032,0.0032,0.0032,-2.5212,1.3363,3.0876
2024-10-11T12:36:07.396Z,0.0145,-0.9669,0.2313,-0.0212,-0.0462,0.0110,0.0003,0.0037,0.0030,-2.5217,1.3364,3.0879
2024-10-11T12:36:07.406Z,0.0144,-0.9682,0.2318,-0.0212,-0.0462,0.0110,0.0003,0.0055,0.0037,-2.5217,1.3364,3.0879
2024-10-11T12:36:07.416Z,0.0132,-0.9702,0.2331,-0.0212,-0.0462,0.0110,-0.0009,0.0070,0.0037,-2.5217,1.3364,3.0879
2024-10-11T12:36:07.426Z,0.0130,-0.9707,0.2323,-0.0113,-0.0164,-0.0064,-0.0001,0.0057,0.0057,-2.5225,1.3365,3.0886
2024-10-11T12:36:07.436Z,0.0132,-0.9706,0.2341,-0.0113,-0.0164,-0.0064,-0.0004,0.0063,0.0075,-2.5225,1.3365,3.0886
2024-10-11T12:36:07.446Z,0.0126,-0.9693,0.2334,-0.0113,-0.0164,-0.0064,-0.0021,0.0063,0.0046,-2.5225,1.3365,3.0886
2024-10-11T12:36:07.457Z,0.0113,-0.9718,0.2325,-0.0083,-0.0364,-0.0137,-0.0001,0.0094,0.0042,-2.5228,1.3365,3.0889
2024-10-11T12:36:07.466Z,0.0113,-0.9718,0.2325,-0.0083,-0.0364,-0.0137,-0.0007,0.0097,0.0010,-2.5228,1.3365,3.0889
2024-10-11T12:36:07.477Z,0.0118,-0.9706,0.2301,-0.0083,-0.0364,-0.0137,-0.0014,0.0103,0.0043,-2.5228,1.3365,3.0889
2024-10-11T12:36:07.487Z,0.0125,-0.9713,0.2265,0.0019,-0.0114,0.0040,0.0006,0.0093,0.0069,-2.5231,1.3365,3.0892
2024-10-11T12:36:07.497Z,0.0125,-0.9713,0.2265,0.0019,-0.0114,0.0040,0.0012,0.0084,0.0049,-2.5231,1.3365,3.0892
2024-10-11T12:36:07.506Z,0.0169,-0.9710,0.2261,0.0019,-0.0114,0.0040,-0.0010,0.0122,0.0039,-2.5231,1.3365,3.0892
2024-10-11T12:36:07.517Z,0.0165,-0.9709,0.2281,-0.0558,-0.0198,0.0465,0.0004,0.0106,0.0051,-2.5236,1.3364,3.0897
2024-10-11T12:36:07.526Z,0.0158,-0.9720,0.2311,-0.0558,-0.0198,0.0465,0.0006,0.0121,0.0057,-2.5236,1.3364,3.0897
2024-10-11T12:36:07.538Z,0.0139,-0.9754,0.2326,-0.0558,-0.0198,0.0465,-0.0008,0.0161,0.0020,-2.5236,1.3364,3.0897
2024-10-11T12:36:07.547Z,0.0139,-0.9754,0.2326,-0.0197,0.0172,-0.0154,-0.0019,0.0174,0.0034,-2.5244,1.3363,3.0905
2024-10-11T12:36:07.557Z,0.0139,-0.9748,0.2334,-0.0197,0.0172,-0.0154,0.0005,0.0161,0.0058,-2.5244,1.3363,3.0905
2024-10-11T12:36:07.566Z,0.0139,-0.9748,0.2334,-0.0197,0.0172,-0.0154,-0.0017,0.0173,0.0066,-2.5244,1.3363,3.0905
2024-10-11T12:36:07.577Z,0.0135,-0.9758,0.2349,-0.0318,0.0171,-0.0080,-0.0001,0.0169,0.0047,-2.5252,1.3363,3.0916
2024-10-11T12:36:07.587Z,0.0096,-0.9750,0.2345,-0.0318,0.0171,-0.0080,-0.0012,0.0175,0.0055,-2.5252,1.3363,3.0916
2024-10-11T12:36:07.598Z,0.0096,-0.9750,0.2345,0.0284,0.0122,-0.0338,-0.0036,0.0157,0.0036,-2.5254,1.3364,3.0919
2024-10-11T12:36:07.607Z,0.0096,-0.9711,0.2333,0.0284,0.0122,-0.0338,-0.0004,0.0133,0.0036,-2.5254,1.3364,3.0919
2024-10-11T12:36:07.617Z,0.0104,-0.9679,0.2317,0.0284,0.0122,-0.0338,-0.0026,0.0161,0.0015,-2.5254,1.3364,3.0919
2024-10-11T12:36:07.627Z,0.0089,-0.9662,0.2318,0.0284,0.0122,-0.0338,-0.0014,0.0159,-0.0003,-2.5254,1.3364,3.0919
2024-10-11T12:36:07.637Z,0.0090,-0.9656,0.2316,0.0193,-0.0534,-0.0011,-0.0015,0.0141,0.0015,-2.5255,1.3364,3.0922
2024-10-11T12:36:07.647Z,0.0090,-0.9656,0.2316,0.0193,-0.0534,-0.0011,-0.0016,0.0134,-0.0002,-2.5255,1.3364,3.0922
2024-10-11T12:36:07.657Z,0.0077,-0.9661,0.2309,0.0193,-0.0534,-0.0011,-0.0009,0.0141,-0.0015,-2.5255,1.3364,3.0922
2024-10-11T12:36:07.667Z,0.0119,-0.9701,0.2310,0.0450,-0.0710,0.0155,-0.0014,0.0158,-0.0012,-2.5254,1.3364,3.0922
2024-10-11T12:36:07.677Z,0.0128,-0.9721,0.2302,0.0450,-0.0710,0.0155,-0.0005,0.0146,-0.0035,-2.5254,1.3364,3.0922
2024-10-11T12:36:07.687Z,0.0150,-0.9712,0.2284,0.0450,-0.0710,0.0155,0.0013,0.0171,-0.0047,-2.5254,1.3364,3.0922
2024-10-11T12:36:07.698Z,0.0150,-0.9712,0.2284,-0.0295,-0.0140,0.0297,0.0042,0.0179,-0.0047,-2.5252,1.3364,3.0923
2024-10-11T12:36:07.707Z,0.0140,-0.9725,0.2292,-0.0295,-0.0140,0.0297,0.0009,0.0169,-0.0021,-2.5252,1.3364,3.0923
2024-10-11T12:36:07.718Z,0.0140,-0.9725,0.2292,-0.0323,-0.0112,0.0222,0.0022,0.0167,-0.0012,-2.5250,1.3363,3.0924
2024-10-11T12:36:07.726Z,0.0149,-0.9710,0.2305,-0.0323,-0.0112,0.0222,0.0004,0.0173,0.0001,-2.5250,1.3363,3.0924
2024-10-11T12:36:07.737Z,0.0186,-0.9712,0.2295,-0.0323,-0.0112,0.0222,0.0040,0.0166,-0.0010,-2.5250,1.3363,3.0924
2024-10-11T12:36:07.750Z,0.0154,-0.9682,0.2297,-0.0572,-0.0353,0.0287,0.0020,0.0178,-0.0024,-2.5250,1.3362,3.0927
2024-10-11T12:36:07.755Z,0.0154,-0.9682,0.2297,-0.0572,-0.0353,0.0287,0.0044,0.0215,-0.0007,-2.5250,1.3362,3.0927
2024-10-11T12:36:07.767Z,0.0123,-0.9686,0.2357,-0.0572,-0.0353,0.0287,0.0034,0.0174,-0.0015,-2.5250,1.3362,3.0927
2024-10-11T12:36:07.777Z,0.0150,-0.9693,0.2359,-0.0572,-0.0353,0.0287,0.0065,0.0167,-0.0015,-2.5250,1.3362,3.0927
2024-10-11T12:36:07.787Z,0.0117,-0.9747,0.2357,-0.0263,-0.0319,-0.0322,0.0039,0.0137,-0.0046,-2.5248,1.3361,3.0927
2024-10-11T12:36:07.798Z,0.0116,-0.9764,0.2341,-0.0263,-0.0319,-0.0322,0.0017,0.0134,-0.0038,-2.5248,1.3361,3.0927
2024-10-11T12:36:07.806Z,0.0127,-0.9769,0.2343,-0.0263,-0.0319,-0.0322,0.0047,0.0129,-0.0039,-2.5248,1.3361,3.0927
2024-10-11T12:36:07.817Z,0.0140,-0.9774,0.2330,-0.0168,0.0390,-0.0146,0.0043,0.0117,-0.0068,-2.5243,1.3360,3.0923
2024-10-11T12:36:07.826Z,0.0147,-0.9778,0.2339,-0.0168,0.0390,-0.0146,0.0054,0.0096,-0.0047,-2.5243,1.3360,3.0923
2024-10-11T12:36:07.837Z,0.0142,-0.9800,0.2359,-0.0168,0.0390,-0.0146,0.0018,0.0100,-0.0054,-2.5243,1.3360,3.0923
2024-10-11T12:36:07.848Z,0.0151,-0.9783,0.2390,-0.0263,0.0598,-0.0257,0.0021,0.0076,-0.0047,-2.5234,1.3358,3.0915
2024-10-11T12:36:07.857Z,0.0141,-0.9790,0.2386,-0.0263,0.0598,-0.0257,0.0020,0.0090,-0.0030,-2.5234,1.3358,3.0915
2024-10-11T12:36:07.867Z,0.0114,-0.9775,0.2374,-0.0263,0.0598,-0.0257,-0.0003,0.0052,-0.0057,-2.5234,1.3358,3.0915
2024-10-11T12:36:07.876Z,0.0132,-0.9756,0.2360,-0.0110,0.0575,-0.0460,0.0007,0.0034,-0.0053,-2.5229,1.3358,3.0909
2024-10-11T12:36:07.886Z,0.0110,-0.9737,0.2369,-0.0110,0.0575,-0.0460,0.0012,0.0003,-0.0049,-2.5229,1.3358,3.0909
2024-10-11T12:36:07.899Z,0.0131,-0.9762,0.2396,-0.0034,0.0260,-0.0555,-0.0000,-0.0020,-0.0047,-2.5224,1.3357,3.0902
2024-10-11T12:36:07.906Z,0.0125,-0.9769,0.2397,-0.0034,0.0260,-0.0555,-0.0013,-0.0030,-0.0063,-2.5224,1.3357,3.0902
2024-10-11T12:36:07.916Z,0.0110,-0.9774,0.2408,-0.0034,0.0260,-0.0555,-0.0013,0.0009,-0.0076,-2.5224,1.3357,3.0902
2024-10-11T12:36:07.927Z,0.0115,-0.9794,0.2444,0.0081,0.0596,-0.1120,-0.0029,-0.0032,-0.0039,-2.5216,1.3357,3.0890
2024-10-11T12:36:07.936Z,0.0106,-0.9803,0.2445,0.0081,0.0596,-0.1120,-0.0070,-0.0019,-0.0077,-2.5216,1.3357,3.0890
2024-10-11T12:36:07.949Z,0.0112,-0.9801,0.2451,0.0081,0.0596,-0.1120,-0.0071,-0.0024,-0.0055,-2.5216,1.3357,3.0890
2024-10-11T12:36:07.956Z,0.0129,-0.9801,0.2472,0.0081,0.0596,-0.1120,-0.0086,-0.0048,-0.0063,-2.5216,1.3357,3.0890
2024-10-11T12:36:07.967Z,0.0116,-0.9801,0.2472,-0.0011,0.0705,-0.1400,-0.0134,-0.0023,-0.0065,-2.5209,1.3359,3.0880
2024-10-11T12:36:07.976Z,0.0121,-0.9790,0.2445,-0.0011,0.0705,-0.1400,-0.0135,-0.0028,-0.0035,-2.5209,1.3359,3.0880
2024-10-11T12:36:07.987Z,0.0133,-0.9789,0.2448,-0.0018,0.0718,-0.1322,-0.0143,-0.0037,-0.0057,-2.5204,1.3363,3.0872
2024-10-11T12:36:07.997Z,0.0113,-0.9756,0.2387,-0.0018,0.0718,-0.1322,-0.0149,-0.0043,-0.0024,-2.5204,1.3363,3.0872
2024-10-11T12:36:08.006Z,0.0124,-0.9735,0.2377,-0.0018,0.0718,-0.1322,-0.0188,-0.0018,-0.0035,-2.5204,1.3363,3.0872
2024-10-11T12:36:08.016Z,0.0114,-0.9732,0.2355,-0.0018,0.0718,-0.1322,-0.0186,-0.0024,-0.0065,-2.5204,1.3363,3.0872
2024-10-11T12:36:08.026Z,0.0106,-0.9717,0.2321,0.0061,0.0064,-0.0550,-0.0138,0.0001,-0.0018,-2.5201,1.3367,3.0865
2024-10-11T12:36:08.036Z,0.0119,-0.9710,0.2295,0.0061,0.0064,-0.0550,-0.0153,-0.0018,-0.0011,-2.5201,1.3367,3.0865
2024-10-11T12:36:08.049Z,0.0117,-0.9699,0.2270,0.0139,-0.0209,0.0315,-0.0149,-0.0013,-0.0024,-2.5198,1.3370,3.0860
2024-10-11T12:36:08.056Z,0.0107,-0.9700,0.2269,0.0139,-0.0209,0.0315,-0.0128,0.0013,-0.0026,-2.5198,1.3370,3.0860
2024-10-11T12:36:08.067Z,0.0129,-0.9685,0.2248,0.0139,-0.0209,0.0315,-0.0119,0.0043,-0.0019,-2.5198,1.3370,3.0860
2024-10-11T12:36:08.077Z,0.0150,-0.9662,0.2217,-0.0202,-0.0535,0.0862,-0.0130,0.0024,-0.0010,-2.5196,1.3374,3.0856
2024-10-11T12:36:08.086Z,0.0136,-0.9654,0.2218,-0.0202,-0.0535,0.0862,-0.0076,0.0039,-0.0006,-2.5196,1.3374,3.0856
2024-10-11T12:36:08.097Z,0.0137,-0.9660,0.2216,-0.0202,-0.0535,0.0862,-0.0097,0.0040,0.0003,-2.5196,1.3374,3.0856
2024-10-11T12:36:08.106Z,0.0130,-0.9646,0.2228,-0.0202,-0.0535,0.0862,-0.0081,0.0035,0.0001,-2.5196,1.3374,3.0856
2024-10-11T12:36:08.116Z,0.0136,-0.9643,0.2217,-0.0016,-0.0728,0.0913,-0.0087,0.0016,0.0002,-2.5197,1.3376,3.0855
2024-10-11T12:36:08.126Z,0.0155,-0.9628,0.2216,-0.0016,-0.0728,0.0913,-0.0047,0.0038,-0.0013,-2.5197,1.3376,3.0855
2024-10-11T12:36:08.137Z,0.0149,-0.9640,0.2232,-0.0228,-0.0971,0.0857,-0.0057,0.0046,-0.0004,-2.5198,1.3378,3.0855
2024-10-11T12:36:08.148Z,0.0161,-0.9646,0.2261,-0.0228,-0.0971,0.0857,-0.0055,0.0068,-0.0004,-2.5198,1.3378,3.0855
2024-10-11T12:36:08.157Z,0.0164,-0.9658,0.2255,-0.0228,-0.0971,0.0857,-0.0054,0.0075,0.0025,-2.5198,1.3378,3.0855
2024-10-11T12:36:08.167Z,0.0132,-0.9678,0.2244,-0.0228,-0.0971,0.0857,-0.0002,0.0061,0.0023,-2.5198,1.3378,3.0855
2024-10-11T12:36:08.177Z,0.0133,-0.9717,0.2273,-0.0117,-0.0649,0.0627,0.0007,0.0052,0.0018,-2.5202,1.3379,3.0858
2024-10-11T12:36:08.187Z,0.0148,-0.9739,0.2273,-0.0117,-0.0649,0.0627,-0.0027,0.0082,0.0002,-2.5202,1.3379,3.0858
2024-10-11T12:36:08.200Z,0.0149,-0.9749,0.2247,-0.0233,0.0182,0.0413,-0.0005,0.0075,0.0038,-2.5206,1.3379,3.0862
2024-10-11T12:36:08.206Z,0.0155,-0.9753,0.2264,-0.0233,0.0182,0.0413,0.0025,0.0085,0.0050,-2.5206,1.3379,3.0862
2024-10-11T12:36:08.216Z,0.0143,-0.9749,0.2255,-0.0233,0.0182,0.0413,0.0022,0.0085,0.0047,-2.5206,1.3379,3.0862
2024-10-11T12:36:08.227Z,0.0113,-0.9747,0.2269,0.0049,0.0131,0.0417,0.0032,0.0088,0.0051,-2.5214,1.3379,3.0869
2024-10-11T12:36:08.236Z,0.0129,-0.9751,0.2272,0.0049,0.0131,0.0417,0.0040,0.0052,0.0055,-2.5214,1.3379,3.0869
2024-10-11T12:36:08.246Z,0.0096,-0.9738,0.2271,0.0049,0.0131,0.0417,0.0072,0.0072,0.0040,-2.5214,1.3379,3.0869
2024-10-11T12:36:08.256Z,0.0074,-0.9725,0.2265,0.0405,0.0033,0.0384,0.0049,0.0102,0.0013,-2.5219,1.3377,3.0874
2024-10-11T12:36:08.266Z,0.0103,-0.9719,0.2282,0.0405,0.0033,0.0384,0.0051,0.0094,0.0032,-2.5219,1.3377,3.0874
2024-10-11T12:36:08.276Z,0.0104,-0.9702,0.2303,0.0405,0.0033,0.0384,0.0064,0.0093,0.0018,-2.5219,1.3377,3.0874
2024-10-11T12:36:08.287Z,0.0092,-0.9706,0.2307,0.0318,-0.0301,0.0053,0.0039,0.0131,0.0032,-2.5225,1.3375,3.0880
2024-10-11T12:36:08.296Z,0.0087,-0.9726,0.2315,0.0318,-0.0301,0.0053,0.0049,0.0114,0.0018,-2.5225,1.3375,3.0880
2024-10-11T12:36:08.306Z,0.0090,-0.9738,0.2317,0.0318,-0.0301,0.0053,0.0054,0.0093,0.0021,-2.5225,1.3375,3.0880
2024-10-11T12:36:08.317Z,0.0090,-0.9751,0.2321,0.0334,0.0109,-0.0101,0.0062,0.0083,0.0041,-2.5229,1.3374,3.0885
2024-10-11T12:36:08.326Z,0.0087,-0.9758,0.2311,0.0334,0.0109,-0.0101,0.0040,0.0112,0.0021,-2.5229,1.3374,3.0885
2024-10-11T12:36:08.335Z,0.0072,-0.9758,0.2318,0.0334,0.0109,-0.0101,0.0053,0.0107,0.0013,-2.5229,1.3374,3.0885
2024-10-11T12:36:08.346Z,0.0104,-0.9762,0.2338,0.0347,0.0256,-0.0256,0.0047,0.0086,0.0014,-2.5234,1.3373,3.0890
2024-10-11T12:36:08.356Z,0.0112,-0.9775,0.2373,0.0347,0.0256,-0.0256,0.0008,0.0094,-0.0012,-2.5234,1.3373,3.0890
2024-10-11T12:36:08.367Z,0.0108,-0.9759,0.2373,0.0347,0.0256,-0.0256,0.0022,0.0120,-0.0011,-2.5234,1.3373,3.0890
2024-10-11T12:36:08.377Z,0.0087,-0.9766,0.2352,0.0183,0.0361,-0.0474,-0.0019,0.0110,-0.0003,-2.5237,1.3373,3.0893
2024-10-11T12:36:08.387Z,0.0089,-0.9754,0.2335,0.0183,0.0361,-0.0474,0.0005,0.0109,-0.0008,-2.5237,1.3373,3.0893
2024-10-11T12:36:08.396Z,0.0094,-0.9745,0.2344,0.0183,0.0361,-0.0474,0.0023,0.0127,-0.0013,-2.5237,1.3373,3.0893
2024-10-11T12:36:08.406Z,0.0112,-0.9741,0.2347,0.0225,0.0201,-0.0359,-0.0032,0.0100,-0.0027,-2.5238,1.3372,3.0895
2024-10-11T12:36:08.416Z,0.0126,-0.9726,0.2323,0.0225,0.0201,-0.0359,-0.0017,0.0132,-0.0023,-2.5238,1.3372,3.0895
2024-10-11T12:36:08.426Z,0.0120,-0.9727,0.2312,0.0225,0.0201,-0.0359,0.0002,0.0112,0.0019,-2.5238,1.3372,3.0895
2024-10-11T12:36:08.436Z,0.0164,-0.9731,0.2316,0.0225,0.0201,-0.0359,-0.0047,0.0123,-0.0023,-2.5238,1.3372,3.0895
2024-10-11T12:36:08.446Z,0.0156,-0.9726,0.2309,-0.0283,0.0058,-0.0082,-0.0037,0.0132,0.0003,-2.5240,1.3372,3.0898
2024-10-11T12:36:08.456Z,0.0143,-0.9747,0.2313,-0.0283,0.0058,-0.0082,-0.0007,0.0131,-0.0017,-2.5240,1.3372,3.0898
2024-10-11T12:36:08.466Z,0.0143,-0.9747,0.2313,-0.0323,0.0091,-0.0210,-0.0027,0.0143,-0.0003,-2.5243,1.3372,3.0903
2024-10-11T12:36:08.476Z,0.0133,-0.9705,0.2308,-0.0323,0.0091,-0.0210,-0.0022,0.0127,0.0008,-2.5243,1.3372,3.0903
2024-10-11T12:36:08.486Z,0.0117,-0.9709,0.2310,-0.0323,0.0091,-0.0210,-0.0042,0.0127,-0.0013,-2.5243,1.3372,3.0903
2024-10-11T12:36:08.496Z,0.0093,-0.9690,0.2297,0.0279,-0.0302,0.0081,-0.0008,0.0109,-0.0007,-2.5245,1.3372,3.0905
2024-10-11T12:36:08.506Z,0.0118,-0.9676,0.2303,0.0279,-0.0302,0.0081,-0.0007,0.0097,-0.0012,-2.5245,1.3372,3.0905
2024-10-11T12:36:08.515Z,0.0118,-0.9681,0.2284,0.0279,-0.0302,0.0081,-0.0035,0.0081,-0.0022,-2.5245,1.3372,3.0905
2024-10-11T12:36:08.526Z,0.0114,-0.9680,0.2299,0.0035,-0.0420,0.0245,-0.0032,0.0100,-0.0025,-2.5242,1.3372,3.0902
2024-10-11T12:36:08.536Z,0.0125,-0.9695,0.2311,0.0035,-0.0420,0.0245,-0.0016,0.0059,-0.0010,-2.5242,1.3372,3.0902
2024-10-11T12:36:08.546Z,0.0118,-0.9716,0.2300,0.0035,-0.0420,0.0245,-0.0018,0.0037,-0.0030,-2.5242,1.3372,3.0902
2024-10-11T12:36:08.557Z,0.0126,-0.9724,0.2280,-0.0029,-0.0133,0.0223,-0.0013,0.0075,-0.0033,-2.5237,1.3371,3.0896
2024-10-11T12:36:08.566Z,0.0126,-0.9724,0.2280,-0.0029,-0.0133,0.0223,-0.0014,0.0043,-0.0055,-2.5237,1.3371,3.0896
2024-10-11T12:36:08.576Z,0.0067,-0.9774,0.2266,-0.0029,-0.0133,0.0223,0.0015,0.0031,-0.0037,-2.5237,1.3371,3.0896
2024-10-11T12:36:08.587Z,0.0092,-0.9774,0.2285,0.0304,0.0460,0.0413,0.0010,-0.0016,-0.0057,-2.5233,1.3371,3.0890
2024-10-11T12:36:08.596Z,0.0075,-0.9767,0.2287,0.0304,0.0460,0.0413,0.0015,-0.0001,-0.0048,-2.5233,1.3371,3.0890
2024-10-11T12:36:08.606Z,0.0091,-0.9769,0.2299,0.0304,0.0460,0.0413,-0.0001,-0.0024,-0.0073,-2.5233,1.3371,3.0890
2024-10-11T12:36:08.617Z,0.0091,-0.9769,0.2299,0.0015,0.0322,0.0069,0.0022,-0.0016,-0.0076,-2.5226,1.3370,3.0880
2024-10-11T12:36:08.627Z,0.0177,-0.9747,0.2296,0.0015,0.0322,0.0069,0.0028,-0.0068,-0.0067,-2.5226,1.3370,3.0880
2024-10-11T12:36:08.636Z,0.0167,-0.9733,0.2265,0.0015,0.0322,0.0069,0.0007,-0.0012,-0.0075,-2.5226,1.3370,3.0880
2024-10-11T12:36:08.646Z,0.0177,-0.9713,0.2286,-0.0358,-0.0033,0.0414,-0.0014,-0.0008,-0.0040,-2.5221,1.3369,3.0873
2024-10-11T12:36:08.656Z,0.0203,-0.9712,0.2301,-0.0358,-0.0033,0.0414,0.0003,-0.0025,-0.0022,-2.5221,1.3369,3.0873
2024-10-11T12:36:08.666Z,0.0196,-0.9706,0.2310,-0.0358,-0.0033,0.0414,-0.0001,-0.0007,-0.0011,-2.5221,1.3369,3.0873
2024-10-11T12:36:08.676Z,0.0209,-0.9720,0.2322,-0.0776,-0.0164,-0.0072,0.0000,0.0006,-0.0012,-2.5223,1.3369,3.0872
2024-10-11T12:36:08.686Z,0.0193,-0.9724,0.2323,-0.0776,-0.0164,-0.0072,0.0033,0.0009,0.0003,-2.5223,1.3369,3.0872
2024-10-11T12:36:08.696Z,0.0158,-0.9734,0.2303,-0.0776,-0.0164,-0.0072,-0.0022,0.0009,-0.0002,-2.5223,1.3369,3.0872
2024-10-11T12:36:08.706Z,0.0124,-0.9749,0.2311,-0.0106,0.0064,0.0064,0.0009,0.0016,0.0013,-2.5224,1.3369,3.0871
2024-10-11T12:36:08.716Z,0.0099,-0.9763,0.2304,-0.0106,0.0064,0.0064,-0.0022,0.0021,-0.0006,-2.5224,1.3369,3.0871
2024-10-11T12:36:08.726Z,0.0123,-0.9764,0.2319,-0.0106,0.0064,0.0064,0.0005,0.0017,-0.0029,-2.5224,1.3369,3.0871
2024-10-11T12:36:08.736Z,0.0115,-0.9769,0.2314,0.0047,0.0396,0.0015,0.0003,0.0007,-0.0000,-2.5224,1.3369,3.0869
2024-10-11T12:36:08.746Z,0.0143,-0.9786,0.2317,0.0047,0.0396,0.0015,-0.0013,0.0036,-0.0022,-2.5224,1.3369,3.0869
2024-10-11T12:36:08.756Z,0.0140,-0.9785,0.2305,0.0047,0.0396,0.0015,-0.0026,0.0049,0.0004,-2.5224,1.3369,3.0869
2024-10-11T12:36:08.768Z,0.0151,-0.9753,0.2290,-0.0189,0.0400,0.0168,-0.0014,0.0053,0.0004,-2.5222,1.3369,3.0865
2024-10-11T12:36:08.776Z,0.0161,-0.9749,0.2283,-0.0189,0.0400,0.0168,0.0005,0.0046,0.0001,-2.5222,1.3369,3.0865
2024-10-11T12:36:08.786Z,0.0132,-0.9746,0.2307,-0.0189,0.0400,0.0168,-0.0001,0.0050,0.0011,-2.5222,1.3369,3.0865
2024-10-11T12:36:08.796Z,0.0126,-0.9723,0.2314,-0.0069,0.0085,0.0009,-0.0005,0.0065,0.0006,-2.5225,1.3369,3.0867
2024-10-11T12:36:08.806Z,0.0095,-0.9718,0.2335,-0.0069,0.0085,0.0009,-0.0009,0.0059,-0.0011,-2.5225,1.3369,3.0867
2024-10-11T12:36:08.816Z,0.0079,-0.9730,0.2334,-0.0069,0.0085,0.0009,-0.0005,0.0068,-0.0012,-2.5225,1.3369,3.0867
2024-10-11T12:36:08.827Z,0.0090,-0.9733,0.2333,0.0349,0.0005,-0.0195,-0.0017,0.0056,0.0003,-2.5226,1.3370,3.0868
2024-10-11T12:36:08.836Z,0.0109,-0.9728,0.2330,0.0349,0.0005,-0.0195,-0.0008,0.0068,0.0004,-2.5226,1.3370,3.0868
2024-10-11T12:36:08.847Z,0.0131,-0.9717,0.2317,0.0349,0.0005,-0.0195,-0.0044,0.0062,-0.0015,-2.5226,1.3370,3.0868
2024-10-11T12:36:08.856Z,0.0130,-0.9712,0.2346,0.0004,-0.0116,-0.0180,-0.0054,0.0089,-0.0015,-2.5225,1.3372,3.0867
2024-10-11T12:36:08.866Z,0.0140,-0.9709,0.2375,0.0004,-0.0116,-0.0180,-0.0062,0.0066,0.0025,-2.5225,1.3372,3.0867
2024-10-11T12:36:08.876Z,0.0131,-0.9694,0.2385,0.0004,-0.0116,-0.0180,-0.0087,0.0100,0.0012,-2.5225,1.3372,3.0867
2024-10-11T12:36:08.886Z,0.0122,-0.9693,0.2373,-0.0034,-0.0402,-0.0634,-0.0075,0.0091,-0.0014,-2.5227,1.3374,3.0868
2024-10-11T12:36:08.896Z,0.0119,-0.9699,0.2373,-0.0034,-0.0402,-0.0634,-0.0080,0.0107,0.0016,-2.5227,1.3374,3.0868
2024-10-11T12:36:08.906Z,0.0144,-0.9707,0.2361,-0.0034,-0.0402,-0.0634,-0.0082,0.0107,0.0038,-2.5227,1.3374,3.0868
2024-10-11T12:36:08.917Z,0.0140,-0.9714,0.2348,-0.0129,-0.0080,-0.0460,-0.0098,0.0110,-0.0006,-2.5233,1.3376,3.0875
2024-10-11T12:36:08.926Z,0.0143,-0.9727,0.2339,-0.0129,-0.0080,-0.0460,-0.0096,0.0109,0.0032,-2.5233,1.3376,3.0875
2024-10-11T12:36:08.936Z,0.0143,-0.9743,0.2305,-0.0129,-0.0080,-0.0460,-0.0092,0.0126,0.0054,-2.5233,1.3376,3.0875
2024-10-11T12:36:08.946Z,0.0149,-0.9768,0.2299,-0.0300,0.0272,0.0037,-0.0118,0.0120,0.0034,-2.5236,1.3378,3.0879
2024-10-11T12:36:08.956Z,0.0169,-0.9788,0.2283,-0.0300,0.0272,0.0037,-0.0115,0.0132,0.0042,-2.5236,1.3378,3.0879
2024-10-11T12:36:08.966Z,0.0174,-0.9794,0.2274,-0.0300,0.0272,0.0037,-0.0119,0.0151,0.0037,-2.5236,1.3378,3.0879
2024-10-11T12:36:08.976Z,0.0172,-0.9791,0.2241,-0.0480,0.0537,0.0422,-0.0050,0.0132,0.0066,-2.5244,1.3379,3.0888
2024-10-11T12:36:08.986Z,0.0163,-0.9795,0.2256,-0.0480,0.0537,0.0422,-0.0074,0.0125,0.0056,-2.5244,1.3379,3.0888
2024-10-11T12:36:08.996Z,0.0152,-0.9792,0.2265,-0.0480,0.0537,0.0422,-0.0069,0.0102,0.0052,-2.5244,1.3379,3.0888
2024-10-11T12:36:09.006Z,0.0146,-0.9780,0.2258,-0.0451,0.0586,0.0341,-0.0043,0.0098,0.0060,-2.5250,1.3381,3.0895
2024-10-11T12:36:09.017Z,0.0109,-0.9734,0.2226,-0.0451,0.0586,0.0341,-0.0079,0.0108,0.0047,-2.5250,1.3381,3.0895
2024-10-11T12:36:09.026Z,0.0120,-0.9710,0.2216,-0.0451,0.0586,0.0341,-0.0024,0.0075,0.0022,-2.5250,1.3381,3.0895
2024-10-11T12:36:09.037Z,0.0069,-0.9710,0.2209,0.0378,-0.0244,0.0886,-0.0034,0.0060,0.0053,-2.5257,1.3382,3.0901
2024-10-11T12:36:09.046Z,0.0098,-0.9696,0.2220,0.0378,-0.0244,0.0886,-0.0025,0.0064,0.0027,-2.5257,1.3382,3.0901
2024-10-11T12:36:09.056Z,0.0102,-0.9670,0.2219,0.0378,-0.0244,0.0886,-0.0001,0.0050,0.0031,-2.5257,1.3382,3.0901
2024-10-11T12:36:09.068Z,0.0126,-0.9685,0.2207,0.0025,-0.0526,0.0892,0.0000,0.0038,0.0020,-2.5261,1.3382,3.0904
2024-10-11T12:36:09.076Z,0.0117,-0.9687,0.2211,0.0025,-0.0526,0.0892,0.0008,0.0041,0.0014,-2.5261,1.3382,3.0904
2024-10-11T12:36:09.086Z,0.0115,-0.9675,0.2213,0.0025,-0.0526,0.0892,0.0020,0.0033,0.0036,-2.5261,1.3382,3.0904
2024-10-11T12:36:09.096Z,0.0085,-0.9675,0.2202,0.0215,-0.0562,0.0878,0.0033,0.0036,-0.0026,-2.5264,1.3381,3.0906
2024-10-11T12:36:09.106Z,0.0104,-0.9687,0.2202,0.0215,-0.0562,0.0878,0.0045,0.0026,0.0012,-2.5264,1.3381,3.0906
2024-10-11T12:36:09.116Z,0.0117,-0.9685,0.2213,0.0215,-0.0562,0.0878,0.0029,0.0025,0.0013,-2.5264,1.3381,3.0906
2024-10-11T12:36:09.126Z,0.0110,-0.9681,0.2233,0.0011,-0.0477,0.0739,0.0029,0.0046,0.0001,-2.5267,1.3380,3.0907
2024-10-11T12:36:09.136Z,0.0115,-0.9699,0.2256,0.0011,-0.0477,0.0739,0.0023,0.0019,0.0004,-2.5267,1.3380,3.0907
2024-10-11T12:36:09.146Z,0.0120,-0.9698,0.2237,0.0011,-0.0477,0.0739,0.0080,0.0014,0.0005,-2.5267,1.3380,3.0907
2024-10-11T12:36:09.156Z,0.0072,-0.9700,0.2214,0.0211,-0.0286,0.0850,0.0075,-0.0002,0.0014,-2.5270,1.3379,3.0907
2024-10-11T12:36:09.166Z,0.0107,-0.9711,0.2249,0.0211,-0.0286,0.0850,0.0029,0.0003,-0.0001,-2.5270,1.3379,3.0907
2024-10-11T12:36:09.176Z,0.0137,-0.9713,0.2280,0.0211,-0.0286,0.0850,0.0091,0.0003,-0.0013,-2.5270,1.3379,3.0907
2024-10-11T12:36:09.187Z,0.0152,-0.9733,0.2293,-0.0315,-0.0117,0.0106,0.0092,-0.0007,0.0004,-2.5273,1.3380,3.0908
2024-10-11T12:36:09.196Z,0.0134,-0.9752,0.2310,-0.0315,-0.0117,0.0106,0.0056,0.0018,-0.0019,-2.5273,1.3380,3.0908
2024-10-11T12:36:09.206Z,0.0119,-0.9756,0.2330,-0.0315,-0.0117,0.0106,0.0076,-0.0002,0.0013,-2.5273,1.3380,3.0908
2024-10-11T12:36:09.216Z,0.0109,-0.9769,0.2336,0.0056,0.0381,-0.0279,0.0015,0.0033,0.0002,-2.5275,1.3378,3.0907
2024-10-11T12:36:09.226Z,0.0112,-0.9761,0.2343,0.0056,0.0381,-0.0279,0.0054,0.0026,-0.0016,-2.5275,1.3378,3.0907
2024-10-11T12:36:09.235Z,0.0105,-0.9769,0.2341,0.0056,0.0381,-0.0279,0.0071,0.0026,-0.0004,-2.5275,1.3378,3.0907
2024-10-11T12:36:09.246Z,0.0115,-0.9759,0.2348,-0.0012,0.0352,-0.0396,0.0043,0.0015,0.0001,-2.5276,1.3377,3.0906
2024-10-11T12:36:09.256Z,0.0085,-0.9752,0.2371,-0.0012,0.0352,-0.0396,0.0033,0.0010,-0.0024,-2.5276,1.3377,3.0906
2024-10-11T12:36:09.267Z,0.0079,-0.9749,0.2359,-0.0012,0.0352,-0.0396,0.0042,-0.0021,-0.0045,-2.5276,1.3377,3.0906
2024-10-11T12:36:09.276Z,0.0081,-0.9726,0.2344,0.0398,0.0046,-0.0432,0.0020,-0.0014,-0.0023,-2.5275,1.3375,3.0902
2024-10-11T12:36:09.285Z,0.0091,-0.9726,0.2343,0.0398,0.0046,-0.0432,0.0015,-0.0018,-0.0021,-2.5275,1.3375,3.0902
2024-10-11T12:36:09.296Z,0.0110,-0.9730,0.2368,0.0398,0.0046,-0.0432,-0.0005,-0.0036,-0.0015,-2.5275,1.3375,3.0902
2024-10-11T12:36:09.306Z,0.0105,-0.9719,0.2380,0.0020,-0.0034,-0.0754,0.0015,-0.0013,-0.0034,-2.5273,1.3375,3.0897
2024-10-11T12:36:09.316Z,0.0098,-0.9709,0.2363,0.0020,-0.0034,-0.0754,0.0001,0.0003,-0.0021,-2.5273,1.3375,3.0897
2024-10-11T12:36:09.326Z,0.0084,-0.9740,0.2386,0.0020,-0.0034,-0.0754,-0.0047,-0.0014,-0.0026,-2.5273,1.3375,3.0897
2024-10-11T12:36:09.336Z,0.0094,-0.9764,0.2368,0.0385,0.0304,-0.0660,-0.0037,-0.0030,-0.0047,-2.5271,1.3374,3.0892
2024-10-11T12:36:09.346Z,0.0087,-0.9758,0.2341,0.0385,0.0304,-0.0660,0.0002,-0.0007,-0.0043,-2.5271,1.3374,3.0892
2024-10-11T12:36:09.356Z,0.0090,-0.9776,0.2329,0.0385,0.0304,-0.0660,-0.0038,0.0007,-0.0047,-2.5271,1.3374,3.0892
2024-10-11T12:36:09.366Z,0.0116,-0.9771,0.2306,0.0031,0.0428,0.0010,-0.0058,0.0013,-0.0083,-2.5276,1.3373,3.0895
2024-10-11T12:36:09.376Z,0.0116,-0.9781,0.2324,0.0031,0.0428,0.0010,-0.0028,0.0000,-0.0058,-2.5276,1.3373,3.0895
2024-10-11T12:36:09.386Z,0.0137,-0.9781,0.2334,0.0031,0.0428,0.0010,-0.0017,0.0015,-0.0006,-2.5276,1.3373,3.0895
2024-10-11T12:36:09.396Z,0.0133,-0.9777,0.2306,-0.0157,0.0548,-0.0077,-0.0017,0.0022,-0.0019,-2.5276,1.3372,3.0894
2024-10-11T12:36:09.406Z,0.0136,-0.9749,0.2285,-0.0157,0.0548,-0.0077,-0.0048,0.0015,-0.0027,-2.5276,1.3372,3.0894
2024-10-11T12:36:09.416Z,0.0126,-0.9742,0.2275,-0.0157,0.0548,-0.0077,-0.0046,0.0068,-0.0012,-2.5276,1.3372,3.0894
2024-10-11T12:36:09.426Z,0.0121,-0.9737,0.2288,0.0048,0.0153,0.0331,-0.0009,0.0049,-0.0031,-2.5278,1.3372,3.0895
2024-10-11T12:36:09.436Z,0.0148,-0.9716,0.2299,0.0048,0.0153,0.0331,-0.0025,0.0050,-0.0003,-2.5278,1.3372,3.0895
2024-10-11T12:36:09.446Z,0.0145,-0.9729,0.2286,0.0048,0.0153,0.0331,-0.0015,0.0067,0.0002,-2.5278,1.3372,3.0895
2024-10-11T12:36:09.456Z,0.0131,-0.9725,0.2296,-0.0172,-0.0003,0.0167,-0.0020,0.0050,-0.0014,-2.5279,1.3372,3.0895
2024-10-11T12:36:09.467Z,0.0132,-0.9727,0.2292,-0.0172,-0.0003,0.0167,-0.0029,0.0091,0.0002,-2.5279,1.3372,3.0895
2024-10-11T12:36:09.476Z,0.0126,-0.9719,0.2294,-0.0172,-0.0003,0.0167,-0.0026,0.0106,-0.0005,-2.5279,1.3372,3.0895
2024-10-11T12:36:09.486Z,0.0105,-0.9720,0.2290,0.0081,-0.0140,0.0205,-0.0008,0.0081,0.0008,-2.5279,1.3372,3.0896
2024-10-11T12:36:09.496Z,0.0092,-0.9722,0.2294,0.0081,-0.0140,0.0205,-0.0001,0.0090,0.0001,-2.5279,1.3372,3.0896
2024-10-11T12:36:09.507Z,0.0103,-0.9706,0.2309,0.0081,-0.0140,0.0205,0.0012,0.0119,0.0005,-2.5279,1.3372,3.0896
2024-10-11T12:36:09.516Z,0.0092,-0.9704,0.2316,0.0199,-0.0151,0.0008,0.0010,0.0110,0.0012,-2.5282,1.3372,3.0899
2024-10-11T12:36:09.526Z,0.0088,-0.9714,0.2308,0.0199,-0.0151,0.0008,-0.0004,0.0101,-0.0003,-2.5282,1.3372,3.0899
2024-10-11T12:36:09.535Z,0.0099,-0.9694,0.2300,0.0199,-0.0151,0.0008,-0.0001,0.0126,-0.0006,-2.5282,1.3372,3.0899
2024-10-11T12:36:09.546Z,0.0079,-0.9698,0.2294,0.0321,-0.0364,0.0156,-0.0012,0.0080,-0.0025,-2.5281,1.3373,3.0900
2024-10-11T12:36:09.556Z,0.0094,-0.9719,0.2301,0.0321,-0.0364,0.0156,0.0002,0.0103,-0.0002,-2.5281,1.3373,3.0900
2024-10-11T12:36:09.566Z,0.0114,-0.9720,0.2320,0.0321,-0.0364,0.0156,-0.0015,0.0108,-0.0013,-2.5281,1.3373,3.0900
2024-10-11T12:36:09.576Z,0.0150,-0.9719,0.2325,-0.0191,-0.0103,-0.0126,0.0002,0.0115,-0.0013,-2.5283,1.3373,3.0902
2024-10-11T12:36:09.586Z,0.0146,-0.9737,0.2333,-0.0191,-0.0103,-0.0126,0.0016,0.0116,0.0001,-2.5283,1.3373,3.0902
2024-10-11T12:36:09.596Z,0.0143,-0.9751,0.2353,-0.0191,-0.0103,-0.0126,-0.0007,0.0139,0.0011,-2.5283,1.3373,3.0902
2024-10-11T12:36:09.606Z,0.0135,-0.9747,0.2348,-0.0183,0.0242,-0.0390,-0.0019,0.0132,0.0015,-2.5287,1.3373,3.0908
2024-10-11T12:36:09.617Z,0.0118,-0.9745,0.2328,-0.0183,0.0242,-0.0390,0.0009,0.0114,0.0024,-2.5287,1.3373,3.0908
2024-10-11T12:36:09.626Z,0.0122,-0.9750,0.2351,-0.0183,0.0242,-0.0390,-0.0035,0.0164,0.0005,-2.5287,1.3373,3.0908
2024-10-11T12:36:09.636Z,0.0118,-0.9738,0.2340,-0.0139,0.0184,-0.0302,-0.0005,0.0132,0.0009,-2.5292,1.3373,3.0914
2024-10-11T12:36:09.647Z,0.0117,-0.9745,0.2340,-0.0139,0.0184,-0.0302,-0.0019,0.0141,-0.0004,-2.5292,1.3373,3.0914
2024-10-11T12:36:09.656Z,0.0116,-0.9726,0.2313,-0.0139,0.0184,-0.0302,-0.0019,0.0141,-0.0004,-2.5292,1.3373,3.0914
2024-10-11T12:36:09.666Z,0.0115,-0.9723,0.2295,0.0005,-0.0066,0.0197,-0.0033,0.0119,-0.0004,-2.5291,1.3373,3.0914
2024-10-11T12:36:09.676Z,0.0124,-0.9704,0.2293,0.0005,-0.0066,0.0197,-0.0026,0.0106,0.0004,-2.5291,1.3373,3.0914
2024-10-11T12:36:09.686Z,0.0145,-0.9729,0.2291,0.0005,-0.0066,0.0197,-0.0009,0.0139,0.0002,-2.5291,1.3373,3.0914
2024-10-11T12:36:09.697Z,0.0139,-0.9703,0.2292,-0.0235,-0.0169,0.0207,-0.0001,0.0148,0.0018,-2.5291,1.3373,3.0915
2024-10-11T12:36:09.708Z,0.0149,-0.9697,0.2285,-0.0235,-0.0169,0.0207,-0.0026,0.0172,0.0019,-2.5291,1.3373,3.0915
2024-10-11T12:36:09.719Z,0.0154,-0.9710,0.2282,-0.0235,-0.0169,0.0207,-0.0026,0.0172,0.0019,-2.5291,1.3373,3.0915
2024-10-11T12:36:09.726Z,0.0147,-0.9713,0.2277,-0.0352,-0.0120,0.0326,-0.0030,0.0152,0.0001,-2.5293,1.3373,3.0920
2024-10-11T12:36:09.738Z,0.0109,-0.9704,0.2283,-0.0352,-0.0120,0.0326,-0.0024,0.0153,-0.0005,-2.5293,1.3373,3.0920
2024-10-11T12:36:09.747Z,0.0121,-0.9718,0.2296,-0.0352,-0.0120,0.0326,0.0011,0.0139,-0.0001,-2.5293,1.3373,3.0920
2024-10-11T12:36:09.756Z,0.0106,-0.9719,0.2290,-0.0009,-0.0154,0.0102,0.0011,0.0139,-0.0001,-2.5295,1.3373,3.0924
2024-10-11T12:36:09.767Z,0.0134,-0.9711,0.2280,-0.0009,-0.0154,0.0102,-0.0034,0.0135,0.0011,-2.5295,1.3373,3.0924
2024-10-11T12:36:09.777Z,0.0151,-0.9686,0.2275,-0.0009,-0.0154,0.0102,0.0004,0.0125,0.0026,-2.5295,1.3373,3.0924
2024-10-11T12:36:09.787Z,0.0151,-0.9703,0.2274,-0.0390,-0.0366,0.0348,0.0025,0.0132,-0.0003,-2.5294,1.3373,3.0924
2024-10-11T12:36:09.797Z,0.0142,-0.9704,0.2274,-0.0390,-0.0366,0.0348,-0.0004,0.0149,0.0016,-2.5294,1.3373,3.0924
2024-10-11T12:36:09.807Z,0.0136,-0.9709,0.2295,-0.0390,-0.0366,0.0348,0.0008,0.0115,0.0007,-2.5294,1.3373,3.0924
2024-10-11T12:36:09.817Z,0.0118,-0.9720,0.2302,-0.0008,-0.0192,0.0101,0.0008,0.0115,0.0007,-2.5285,1.3375,3.0916
2024-10-11T12:36:09.827Z,0.0107,-0.9719,0.2329,-0.0008,-0.0192,0.0101,0.0024,0.0092,0.0003,-2.5285,1.3375,3.0916
2024-10-11T12:36:09.837Z,0.0113,-0.9744,0.2305,-0.0008,-0.0192,0.0101,-0.0026,0.0069,-0.0024,-2.5285,1.3375,3.0916
2024-10-11T12:36:09.847Z,0.0096,-0.9740,0.2307,0.0129,0.0120,0.0011,0.0013,0.0068,-0.0023,-2.5286,1.3375,3.0917
2024-10-11T12:36:09.857Z,0.0095,-0.9755,0.2306,0.0129,0.0120,0.0011,0.0017,0.0059,-0.0016,-2.5286,1.3375,3.0917
2024-10-11T12:36:09.867Z,0.0086,-0.9758,0.2282,0.0129,0.0120,0.0011,0.0017,0.0059,-0.0016,-2.5286,1.3375,3.0917
2024-10-11T12:36:09.877Z,0.0082,-0.9763,0.2305,0.0415,0.0292,0.0187,0.0013,0.0045,-0.0007,-2.5280,1.3375,3.0910
2024-10-11T12:36:09.887Z,0.0119,-0.9750,0.2318,0.0415,0.0292,0.0187,0.0011,0.0048,-0.0019,-2.5280,1.3375,3.0910
2024-10-11T12:36:09.897Z,0.0129,-0.9742,0.2323,0.0415,0.0292,0.0187,-0.0012,0.0057,-0.0032,-2.5280,1.3375,3.0910
2024-10-11T12:36:09.907Z,0.0137,-0.9740,0.2331,-0.0199,0.0072,-0.0197,0.0001,0.0065,-0.0031,-2.5278,1.3374,3.0907
2024-10-11T12:36:09.918Z,0.0120,-0.9754,0.2322,-0.0199,0.0072,-0.0197,0.0001,0.0065,-0.0031,-2.5278,1.3374,3.0907
2024-10-11T12:36:09.926Z,0.0114,-0.9750,0.2330,-0.0199,0.0072,-0.0197,0.0043,0.0042,-0.0027,-2.5278,1.3374,3.0907
2024-10-11T12:36:09.937Z,0.0111,-0.9769,0.2339,0.0073,0.0309,-0.0298,0.0003,0.0036,-0.0021,-2.5278,1.3373,3.0906
2024-10-11T12:36:09.946Z,0.0089,-0.9773,0.2346,0.0073,0.0309,-0.0298,0.0003,0.0036,-0.0021,-2.5278,1.3373,3.0906
2024-10-11T12:36:09.957Z,0.0113,-0.9749,0.2358,0.0073,0.0309,-0.0298,-0.0014,0.0052,-0.0053,-2.5278,1.3373,3.0906
2024-10-11T12:36:09.968Z,0.0105,-0.9780,0.2336,0.0204,0.0317,-0.0332,0.0006,0.0013,-0.0046,-2.5278,1.3374,3.0905
2024-10-11T12:36:09.976Z,0.0134,-0.9784,0.2333,0.0204,0.0317,-0.0332,0.0007,0.0006,-0.0026,-2.5278,1.3374,3.0905
2024-10-11T12:36:09.986Z,0.0134,-0.9772,0.2312,0.0204,0.0317,-0.0332,0.0007,0.0006,-0.0026,-2.5278,1.3374,3.0905
2024-10-11T12:36:09.997Z,0.0137,-0.9774,0.2312,-0.0060,0.0488,0.0082,-0.0002,0.0027,-0.0048,-2.5271,1.3373,3.0896
2024-10-11T12:36:10.007Z,0.0157,-0.9745,0.2315,-0.0060,0.0488,0.0082,0.0012,0.0044,-0.0039,-2.5271,1.3373,3.0896
2024-10-11T12:36:10.018Z,0.0146,-0.9720,0.2322,-0.0060,0.0488,0.0082,0.0009,0.0040,-0.0035,-2.5271,1.3373,3.0896
2024-10-11T12:36:10.026Z,0.0142,-0.9690,0.2320,-0.0135,-0.0253,-0.0152,0.0031,0.0028,-0.0033,-2.5271,1.3372,3.0894
2024-10-11T12:36:10.037Z,0.0150,-0.9690,0.2284,-0.0135,-0.0253,-0.0152,0.0008,0.0044,-0.0029,-2.5271,1.3372,3.0894
2024-10-11T12:36:10.046Z,0.0156,-0.9665,0.2286,-0.0135,-0.0253,-0.0152,0.0035,0.0022,-0.0018,-2.5271,1.3372,3.0894
2024-10-11T12:36:10.057Z,0.0128,-0.9663,0.2298,-0.0162,-0.0677,0.0202,0.0017,0.0040,-0.0030,-2.5270,1.3371,3.0892
2024-10-11T12:36:10.067Z,0.0140,-0.9665,0.2303,-0.0162,-0.0677,0.0202,0.0012,0.0027,-0.0010,-2.5270,1.3371,3.0892
2024-10-11T12:36:10.076Z,0.0131,-0.9667,0.2280,-0.0162,-0.0677,0.0202,0.0010,0.0037,-0.0006,-2.5270,1.3371,3.0892
2024-10-11T12:36:10.087Z,0.0108,-0.9649,0.2290,0.0092,-0.0754,0.0299,0.0004,0.0030,-0.0034,-2.5268,1.3371,3.0888
2024-10-11T12:36:10.097Z,0.0113,-0.9682,0.2278,0.0092,-0.0754,0.0299,-0.0003,0.0057,-0.0046,-2.5268,1.3371,3.0888
2024-10-11T12:36:10.107Z,0.0103,-0.9691,0.2264,0.0092,-0.0754,0.0299,0.0013,0.0049,-0.0042,-2.5268,1.3371,3.0888
2024-10-11T12:36:10.117Z,0.0120,-0.9728,0.2282,0.0112,-0.0094,0.0348,0.0033,0.0050,-0.0035,-2.5265,1.3370,3.0884
2024-10-11T12:36:10.127Z,0.0109,-0.9713,0.2280,0.0112,-0.0094,0.0348,0.0011,0.0049,-0.0068,-2.5265,1.3370,3.0884
2024-10-11T12:36:10.138Z,0.0105,-0.9730,0.2302,0.0112,-0.0094,0.0348,0.0025,0.0045,-0.0038,-2.5265,1.3370,3.0884
2024-10-11T12:36:10.146Z,0.0102,-0.9735,0.2314,0.0217,0.0087,0.0017,0.0023,0.0030,-0.0042,-2.5262,1.3369,3.0879
2024-10-11T12:36:10.157Z,0.0115,-0.9722,0.2332,0.0217,0.0087,0.0017,-0.0002,0.0031,-0.0060,-2.5262,1.3369,3.0879
2024-10-11T12:36:10.168Z,0.0092,-0.9722,0.2322,0.0217,0.0087,0.0017,-0.0004,0.0028,-0.0053,-2.5262,1.3369,3.0879
2024-10-11T12:36:10.177Z,0.0119,-0.9738,0.2307,0.0188,0.0123,0.0123,0.0034,0.0058,-0.0039,-2.5258,1.3368,3.0874
2024-10-11T12:36:10.187Z,0.0137,-0.9749,0.2320,0.0188,0.0123,0.0123,0.0008,0.0065,-0.0057,-2.5258,1.3368,3.0874
2024-10-11T12:36:10.196Z,0.0154,-0.9760,0.2329,0.0188,0.0123,0.0123,-0.0002,0.0077,-0.0031,-2.5258,1.3368,3.0874
2024-10-11T12:36:10.206Z,0.0145,-0.9749,0.2335,-0.0211,0.0239,-0.0157,-0.0009,0.0080,-0.0034,-2.5255,1.3367,3.0871
2024-10-11T12:36:10.218Z,0.0159,-0.9760,0.2366,-0.0211,0.0239,-0.0157,-0.0003,0.0085,-0.0014,-2.5255,1.3367,3.0871
2024-10-11T12:36:10.226Z,0.0162,-0.9767,0.2356,-0.0211,0.0239,-0.0157,0.0016,0.0097,-0.0009,-2.5255,1.3367,3.0871
2024-10-11T12:36:10.236Z,0.0174,-0.9776,0.2341,-0.0400,0.0460,-0.0306,0.0006,0.0093,-0.0006,-2.5254,1.3367,3.0870
2024-10-11T12:36:10.246Z,0.0163,-0.9770,0.2345,-0.0400,0.0460,-0.0306,-0.0012,0.0083,-0.0016,-2.5254,1.3367,3.0870
2024-10-11T12:36:10.257Z,0.0169,-0.9777,0.2336,-0.0400,0.0460,-0.0306,-0.0012,0.0092,-0.0008,-2.5254,1.3367,3.0870
2024-10-11T12:36:10.268Z,0.0150,-0.9772,0.2333,-0.0300,0.0402,-0.0240,-0.0020,0.0105,0.0006,-2.5255,1.3367,3.0870
2024-10-11T12:36:10.276Z,0.0159,-0.9773,0.2324,-0.0300,0.0402,-0.0240,-0.0019,0.0073,0.0011,-2.5255,1.3367,3.0870
2024-10-11T12:36:10.286Z,0.0191,-0.9761,0.2339,-0.0300,0.0402,-0.0240,-0.0036,0.0105,0.0017,-2.5255,1.3367,3.0870
2024-10-11T12:36:10.296Z,0.0202,-0.9727,0.2345,-0.0678,0.0093,-0.0217,-0.0026,0.0101,0.0020,-2.5256,1.3368,3.0872
2024-10-11T12:36:10.306Z,0.0177,-0.9720,0.2331,-0.0678,0.0093,-0.0217,-0.0033,0.0085,0.0024,-2.5256,1.3368,3.0872
2024-10-11T12:36:10.317Z,0.0144,-0.9717,0.2337,-0.0678,0.0093,-0.0217,-0.0013,0.0098,0.0028,-2.5256,1.3368,3.0872
2024-10-11T12:36:10.326Z,0.0127,-0.9730,0.2341,-0.0146,-0.0017,-0.0275,-0.0018,0.0118,0.0035,-2.5257,1.3368,3.0874
2024-10-11T12:36:10.337Z,0.0109,-0.9723,0.2351,-0.0146,-0.0017,-0.0275,-0.0032,0.0104,0.0023,-2.5257,1.3368,3.0874
2024-10-11T12:36:10.347Z,0.0111,-0.9732,0.2351,-0.0146,-0.0017,-0.0275,-0.0030,0.0111,0.0035,-2.5257,1.3368,3.0874
2024-10-11T12:36:10.357Z,0.0108,-0.9726,0.2365,0.0107,-0.0042,-0.0425,-0.0051,0.0110,0.0035,-2.5260,1.3369,3.0877
2024-10-11T12:36:10.367Z,0.0103,-0.9751,0.2353,0.0107,-0.0042,-0.0425,-0.0059,0.0084,-0.0004,-2.5260,1.3369,3.0877
2024-10-11T12:36:10.377Z,0.0094,-0.9759,0.2345,0.0107,-0.0042,-0.0425,-0.0025,0.0056,0.0022,-2.5260,1.3369,3.0877
2024-10-11T12:36:10.386Z,0.0080,-0.9753,0.2322,0.0438,0.0281,-0.0111,-0.0040,0.0051,0.0002,-2.5261,1.3369,3.0877
2024-10-11T12:36:10.396Z,0.0094,-0.9762,0.2337,0.0438,0.0281,-0.0111,-0.0052,0.0062,-0.0002,-2.5261,1.3369,3.0877
2024-10-11T12:36:10.406Z,0.0110,-0.9778,0.2325,0.0438,0.0281,-0.0111,-0.0058,0.0075,-0.0015,-2.5261,1.3369,3.0877
2024-10-11T12:36:10.416Z,0.0132,-0.9772,0.2311,-0.0025,0.0424,-0.0076,-0.0037,0.0075,0.0006,-2.5262,1.3371,3.0878
2024-10-11T12:36:10.426Z,0.0126,-0.9761,0.2300,-0.0025,0.0424,-0.0076,-0.0053,0.0055,0.0020,-2.5262,1.3371,3.0878
2024-10-11T12:36:10.437Z,0.0131,-0.9757,0.2291,-0.0025,0.0424,-0.0076,-0.0053,0.0075,-0.0013,-2.5262,1.3371,3.0878
2024-10-11T12:36:10.446Z,0.0103,-0.9752,0.2322,0.0219,0.0240,0.0031,-0.0059,0.0063,-0.0008,-2.5265,1.3372,3.0880
2024-10-11T12:36:10.456Z,0.0101,-0.9754,0.2329,0.0219,0.0240,0.0031,-0.0065,0.0054,-0.0003,-2.5265,1.3372,3.0880
2024-10-11T12:36:10.466Z,0.0101,-0.9735,0.2321,0.0219,0.0240,0.0031,-0.0055,0.0038,-0.0005,-2.5265,1.3372,3.0880
2024-10-11T12:36:10.476Z,0.0124,-0.9743,0.2314,0.0009,0.0105,-0.0113,-0.0052,0.0044,-0.0001,-2.5270,1.3373,3.0884
2024-10-11T12:36:10.487Z,0.0140,-0.9737,0.2295,0.0009,0.0105,-0.0113,-0.0054,0.0073,-0.0022,-2.5270,1.3373,3.0884
2024-10-11T12:36:10.496Z,0.0154,-0.9738,0.2293,0.0009,0.0105,-0.0113,-0.0075,0.0069,-0.0008,-2.5270,1.3373,3.0884
2024-10-11T12:36:10.506Z,0.0122,-0.9742,0.2295,-0.0040,0.0031,0.0122,-0.0071,0.0095,0.0010,-2.5272,1.3375,3.0885
2024-10-11T12:36:10.516Z,0.0145,-0.9731,0.2300,-0.0040,0.0031,0.0122,-0.0073,0.0070,0.0023,-2.5272,1.3375,3.0885
2024-10-11T12:36:10.526Z,0.0143,-0.9728,0.2308,-0.0040,0.0031,0.0122,-0.0068,0.0107,0.0001,-2.5272,1.3375,3.0885
2024-10-11T12:36:10.536Z,0.0118,-0.9709,0.2318,-0.0008,-0.0079,-0.0122,-0.0067,0.0102,0.0017,-2.5276,1.3376,3.0890
2024-10-11T12:36:10.546Z,0.0117,-0.9700,0.2297,-0.0008,-0.0079,-0.0122,-0.0070,0.0096,0.0046,-2.5276,1.3376,3.0890
2024-10-11T12:36:10.556Z,0.0093,-0.9701,0.2299,-0.0008,-0.0079,-0.0122,-0.0093,0.0109,0.0026,-2.5276,1.3376,3.0890
2024-10-11T12:36:10.567Z,0.0085,-0.9698,0.2284,0.0363,-0.0300,0.0179,-0.0098,0.0096,-0.0003,-2.5280,1.3378,3.0895
2024-10-11T12:36:10.576Z,0.0075,-0.9701,0.2273,0.0363,-0.0300,0.0179,-0.0075,0.0110,-0.0008,-2.5280,1.3378,3.0895
2024-10-11T12:36:10.586Z,0.0087,-0.9700,0.2298,0.0363,-0.0300,0.0179,-0.0052,0.0086,0.0001,-2.5280,1.3378,3.0895
2024-10-11T12:36:10.596Z,0.0096,-0.9712,0.2279,0.0257,-0.0187,0.0116,-0.0062,0.0075,-0.0022,-2.5278,1.3380,3.0893
2024-10-11T12:36:10.607Z,0.0099,-0.9695,0.2290,0.0257,-0.0187,0.0116,-0.0067,0.0079,-0.0022,-2.5278,1.3380,3.0893
2024-10-11T12:36:10.616Z,0.0094,-0.9732,0.2268,0.0257,-0.0187,0.0116,-0.0091,0.0095,-0.0021,-2.5278,1.3380,3.0893
2024-10-11T12:36:10.626Z,0.0097,-0.9736,0.2233,0.0266,0.0016,0.0585,-0.0047,0.0061,-0.0027,-2.5275,1.3382,3.0890
2024-10-11T12:36:10.637Z,0.0106,-0.9741,0.2228,0.0266,0.0016,0.0585,-0.0057,0.0048,-0.0023,-2.5275,1.3382,3.0890
2024-10-11T12:36:10.646Z,0.0113,-0.9737,0.2238,0.0266,0.0016,0.0585,-0.0054,0.0079,-0.0018,-2.5275,1.3382,3.0890
2024-10-11T12:36:10.656Z,0.0101,-0.9739,0.2268,0.0049,0.0118,0.0410,-0.0039,0.0059,-0.0018,-2.5274,1.3383,3.0889
2024-10-11T12:36:10.666Z,0.0089,-0.9704,0.2251,0.0049,0.0118,0.0410,-0.0044,0.0073,-0.0017,-2.5274,1.3383,3.0889
2024-10-11T12:36:10.676Z,0.0116,-0.9708,0.2257,0.0049,0.0118,0.0410,-0.0047,0.0080,-0.0037,-2.5274,1.3383,3.0889
2024-10-11T12:36:10.687Z,0.0092,-0.9698,0.2250,0.0245,-0.0267,0.0465,-0.0029,0.0073,-0.0029,-2.5272,1.3384,3.0887
2024-10-11T12:36:10.696Z,0.0131,-0.9702,0.2239,0.0245,-0.0267,0.0465,-0.0029,0.0086,-0.0027,-2.5272,1.3384,3.0887
2024-10-11T12:36:10.706Z,0.0161,-0.9716,0.2272,0.0245,-0.0267,0.0465,-0.0028,0.0106,-0.0033,-2.5272,1.3384,3.0887
2024-10-11T12:36:10.716Z,0.0183,-0.9694,0.2243,-0.0544,-0.0262,0.0448,-0.0022,0.0129,-0.0010,-2.5272,1.3385,3.0886
2024-10-11T12:36:10.726Z,0.0178,-0.9693,0.2263,-0.0544,-0.0262,0.0448,0.0014,0.0126,-0.0014,-2.5272,1.3385,3.0886
2024-10-11T12:36:10.736Z,0.0157,-0.9705,0.2269,-0.0544,-0.0262,0.0448,0.0014,0.0126,-0.0001,-2.5272,1.3385,3.0886
2024-10-11T12:36:10.746Z,0.0141,-0.9705,0.2269,-0.0299,-0.0313,0.0358,0.0026,0.0121,0.0011,-2.5272,1.3385,3.0888
2024-10-11T12:36:10.756Z,0.0130,-0.9732,0.2285,-0.0299,-0.0313,0.0358,0.0017,0.0106,0.0006,-2.5272,1.3385,3.0888
2024-10-11T12:36:10.766Z,0.0105,-0.9713,0.2260,-0.0299,-0.0313,0.0358,0.0012,0.0082,-0.0024,-2.5272,1.3385,3.0888
2024-10-11T12:36:10.776Z,0.0109,-0.9722,0.2273,0.0125,-0.0145,0.0314,0.0007,0.0100,-0.0024,-2.5272,1.3385,3.0889
2024-10-11T12:36:10.787Z,0.0091,-0.9737,0.2275,0.0125,-0.0145,0.0314,0.0040,0.0117,-0.0017,-2.5272,1.3385,3.0889
2024-10-11T12:36:10.796Z,0.0116,-0.9718,0.2281,0.0125,-0.0145,0.0314,0.0040,0.0076,-0.0012,-2.5272,1.3385,3.0889
2024-10-11T12:36:10.806Z,0.0119,-0.9715,0.2282,-0.0064,-0.0161,0.0158,0.0027,0.0106,0.0002,-2.5270,1.3384,3.0887
2024-10-11T12:36:10.816Z,0.0137,-0.9723,0.2286,-0.0064,-0.0161,0.0158,0.0017,0.0086,-0.0011,-2.5270,1.3384,3.0887
2024-10-11T12:36:10.827Z,0.0146,-0.9727,0.2295,-0.0064,-0.0161,0.0158,0.0049,0.0092,-0.0024,-2.5270,1.3384,3.0887
2024-10-11T12:36:10.836Z,0.0134,-0.9745,0.2321,-0.0170,0.0004,-0.0167,0.0019,0.0093,-0.0003,-2.5269,1.3383,3.0886
2024-10-11T12:36:10.846Z,0.0128,-0.9751,0.2331,-0.0170,0.0004,-0.0167,0.0025,0.0084,-0.0030,-2.5269,1.3383,3.0886
2024-10-11T12:36:10.856Z,0.0113,-0.9751,0.2330,-0.0170,0.0004,-0.0167,0.0025,0.0100,-0.0031,-2.5269,1.3383,3.0886
2024-10-11T12:36:10.866Z,0.0102,-0.9777,0.2339,0.0129,0.0354,-0.0329,0.0003,0.0089,-0.0029,-2.5267,1.3383,3.0885
2024-10-11T12:36:10.876Z,0.0085,-0.9769,0.2335,0.0129,0.0354,-0.0329,0.0007,0.0063,-0.0050,-2.5267,1.3383,3.0885
2024-10-11T12:36:10.887Z,0.0097,-0.9794,0.2360,0.0129,0.0354,-0.0329,-0.0008,0.0090,-0.0043,-2.5267,1.3383,3.0885
2024-10-11T12:36:10.896Z,0.0087,-0.9782,0.2356,0.0348,0.0521,-0.0544,-0.0003,0.0061,-0.0029,-2.5264,1.3382,3.0881
2024-10-11T12:36:10.906Z,0.0098,-0.9775,0.2340,0.0348,0.0521,-0.0544,-0.0019,0.0072,-0.0046,-2.5264,1.3382,3.0881
2024-10-11T12:36:10.916Z,0.0104,-0.9759,0.2360,0.0348,0.0521,-0.0544,-0.0034,0.0086,-0.0053,-2.5264,1.3382,3.0881
2024-10-11T12:36:10.926Z,0.0145,-0.9754,0.2349,0.0009,0.0260,-0.0512,-0.0041,0.0104,-0.0029,-2.5259,1.3382,3.0877
2024-10-11T12:36:10.936Z,0.0166,-0.9727,0.2342,0.0009,0.0260,-0.0512,-0.0031,0.0125,-0.0014,-2.5259,1.3382,3.0877
2024-10-11T12:36:10.946Z,0.0172,-0.9734,0.2332,0.0009,0.0260,-0.0512,-0.0051,0.0141,-0.0026,-2.5259,1.3382,3.0877
2024-10-11T12:36:10.956Z,0.0179,-0.9745,0.2344,-0.0544,0.0103,-0.0371,-0.0029,0.0131,0.0007,-2.5260,1.3383,3.0878
2024-10-11T12:36:10.966Z,0.0168,-0.9732,0.2334,-0.0544,0.0103,-0.0371,-0.0053,0.0148,-0.0014,-2.5260,1.3383,3.0878
2024-10-11T12:36:10.976Z,0.0143,-0.9736,0.2320,-0.0544,0.0103,-0.0371,-0.0036,0.0171,-0.0001,-2.5260,1.3383,3.0878
2024-10-11T12:36:10.987Z,0.0148,-0.9739,0.2320,-0.0241,-0.0008,-0.0175,-0.0040,0.0145,0.0006,-2.5261,1.3384,3.0882
2024-10-11T12:36:10.996Z,0.0153,-0.9758,0.2280,-0.0241,-0.0008,-0.0175,-0.0051,0.0166,0.0024,-2.5261,1.3384,3.0882
2024-10-11T12:36:11.006Z,0.0169,-0.9739,0.2276,-0.0241,-0.0008,-0.0175,-0.0050,0.0166,0.0029,-2.5261,1.3384,3.0882
2024-10-11T12:36:11.016Z,0.0163,-0.9730,0.2259,-0.0436,-0.0047,0.0336,-0.0029,0.0188,0.0028,-2.5265,1.3384,3.0888
2024-10-11T12:36:11.026Z,0.0153,-0.9755,0.2245,-0.0436,-0.0047,0.0336,-0.0034,0.0204,0.0014,-2.5265,1.3384,3.0888
2024-10-11T12:36:11.037Z,0.0137,-0.9727,0.2245,-0.0436,-0.0047,0.0336,-0.0026,0.0195,0.0040,-2.5265,1.3384,3.0888
2024-10-11T12:36:11.047Z,0.0130,-0.9732,0.2268,-0.0152,-0.0000,0.0425,-0.0044,0.0186,0.0021,-2.5269,1.3385,3.0896
2024-10-11T12:36:11.056Z,0.0142,-0.9707,0.2252,-0.0152,-0.0000,0.0425,-0.0023,0.0165,0.0029,-2.5269,1.3385,3.0896
2024-10-11T12:36:11.066Z,0.0129,-0.9673,0.2244,-0.0152,-0.0000,0.0425,-0.0012,0.0150,0.0030,-2.5269,1.3385,3.0896
2024-10-11T12:36:11.076Z,0.0101,-0.9679,0.2251,0.0071,-0.0543,0.0481,-0.0033,0.0134,0.0014,-2.5273,1.3385,3.0902
2024-10-11T12:36:11.086Z,0.0070,-0.9685,0.2254,0.0071,-0.0543,0.0481,-0.0020,0.0121,-0.0006,-2.5273,1.3385,3.0902
2024-10-11T12:36:11.096Z,0.0061,-0.9689,0.2262,0.0071,-0.0543,0.0481,0.0006,0.0099,0.0001,-2.5273,1.3385,3.0902
2024-10-11T12:36:11.106Z,0.0087,-0.9693,0.2261,0.0374,-0.0273,0.0346,-0.0000,0.0072,-0.0030,-2.5273,1.3385,3.0903
2024-10-11T12:36:11.116Z,0.0119,-0.9689,0.2249,0.0374,-0.0273,0.0346,-0.0005,0.0084,-0.0033,-2.5273,1.3385,3.0903
2024-10-11T12:36:11.126Z,0.0144,-0.9708,0.2253,0.0374,-0.0273,0.0346,-0.0002,0.0093,0.0003,-2.5273,1.3385,3.0903
2024-10-11T12:36:11.136Z,0.0142,-0.9698,0.2256,-0.0237,-0.0340,0.0427,0.0027,0.0088,0.0004,-2.5272,1.3385,3.0901
2024-10-11T12:36:11.146Z,0.0138,-0.9719,0.2242,-0.0237,-0.0340,0.0427,0.0038,0.0108,-0.0005,-2.5272,1.3385,3.0901
2024-10-11T12:36:11.156Z,0.0114,-0.9737,0.2258,-0.0237,-0.0340,0.0427,0.0035,0.0081,-0.0020,-2.5272,1.3385,3.0901
2024-10-11T12:36:11.166Z,0.0124,-0.9737,0.2278,-0.0064,0.0080,0.0229,0.0000,0.0092,-0.0001,-2.5274,1.3385,3.0903
2024-10-11T12:36:11.176Z,0.0126,-0.9746,0.2288,-0.0064,0.0080,0.0229,0.0048,0.0102,-0.0014,-2.5274,1.3385,3.0903
2024-10-11T12:36:11.186Z,0.0146,-0.9737,0.2293,-0.0064,0.0080,0.0229,0.0040,0.0090,-0.0002,-2.5274,1.3385,3.0903
2024-10-11T12:36:11.196Z,0.0145,-0.9729,0.2269,-0.0247,0.0011,0.0156,0.0020,0.0053,-0.0006,-2.5276,1.3384,3.0905
2024-10-11T12:36:11.206Z,0.0162,-0.9737,0.2255,-0.0247,0.0011,0.0156,0.0058,0.0071,-0.0000,-2.5276,1.3384,3.0905
2024-10-11T12:36:11.216Z,0.0159,-0.9759,0.2285,-0.0247,0.0011,0.0156,0.0038,0.0080,0.0020,-2.5276,1.3384,3.0905
2024-10-11T12:36:11.226Z,0.0172,-0.9756,0.2302,-0.0556,0.0292,0.0072,0.0027,0.0112,0.0005,-2.5277,1.3383,3.0906
2024-10-11T12:36:11.237Z,0.0167,-0.9751,0.2313,-0.0556,0.0292,0.0072,0.0036,0.0088,0.0026,-2.5277,1.3383,3.0906
2024-10-11T12:36:11.246Z,0.0182,-0.9755,0.2317,-0.0556,0.0292,0.0072,0.0029,0.0091,0.0047,-2.5277,1.3383,3.0906
2024-10-11T12:36:11.256Z,0.0192,-0.9760,0.2313,-0.0676,0.0290,-0.0085,0.0023,0.0087,0.0028,-2.5280,1.3383,3.0910
2024-10-11T12:36:11.267Z,0.0171,-0.9771,0.2319,-0.0676,0.0290,-0.0085,0.0033,0.0098,0.0024,-2.5280,1.3383,3.0910
2024-10-11T12:36:11.276Z,0.0141,-0.9774,0.2326,-0.0676,0.0290,-0.0085,0.0014,0.0095,0.0015,-2.5280,1.3383,3.0910
2024-10-11T12:36:11.286Z,0.0112,-0.9781,0.2329,-0.0042,0.0471,-0.0203,-0.0005,0.0082,0.0017,-2.5284,1.3382,3.0914
2024-10-11T12:36:11.296Z,0.0087,-0.9754,0.2370,-0.0042,0.0471,-0.0203,-0.0019,0.0054,0.0031,-2.5284,1.3382,3.0914
2024-10-11T12:36:11.306Z,0.0091,-0.9755,0.2364,-0.0042,0.0471,-0.0203,0.0005,0.0039,0.0017,-2.5284,1.3382,3.0914
2024-10-11T12:36:11.315Z,0.0070,-0.9724,0.2353,0.0327,0.0040,-0.0647,-0.0019,0.0045,0.0006,-2.5287,1.3382,3.0916
2024-10-11T12:36:11.326Z,0.0076,-0.9728,0.2328,0.0327,0.0040,-0.0647,-0.0024,0.0036,-0.0005,-2.5287,1.3382,3.0916
2024-10-11T12:36:11.336Z,0.0119,-0.9724,0.2317,0.0327,0.0040,-0.0647,-0.0024,0.0007,0.0003,-2.5287,1.3382,3.0916
2024-10-11T12:36:11.346Z,0.0100,-0.9724,0.2314,0.0093,-0.0084,-0.0153,-0.0028,0.0022,-0.0012,-2.5287,1.3382,3.0914
2024-10-11T12:36:11.355Z,0.0098,-0.9745,0.2303,0.0093,-0.0084,-0.0153,-0.0010,-0.0002,0.0002,-2.5287,1.3382,3.0914
2024-10-11T12:36:11.366Z,0.0093,-0.9738,0.2295,0.0093,-0.0084,-0.0153,-0.0013,-0.0037,-0.0020,-2.5287,1.3382,3.0914
2024-10-11T12:36:11.376Z,0.0098,-0.9729,0.2304,0.0210,-0.0095,0.0011,-0.0040,-0.0021,-0.0031,-2.5286,1.3382,3.0911
2024-10-11T12:36:11.386Z,0.0076,-0.9743,0.2292,0.0210,-0.0095,0.0011,-0.0046,-0.0025,-0.0036,-2.5286,1.3382,3.0911
2024-10-11T12:36:11.396Z,0.0081,-0.9744,0.2292,0.0210,-0.0095,0.0011,-0.0036,-0.0014,-0.0047,-2.5286,1.3382,3.0911
2024-10-11T12:36:11.405Z,0.0087,-0.9757,0.2300,0.0256,0.0267,0.0009,-0.0037,-0.0025,-0.0042,-2.5285,1.3382,3.0907
2024-10-11T12:36:11.416Z,0.0107,-0.9756,0.2311,0.0256,0.0267,0.0009,-0.0022,-0.0037,-0.0037,-2.5285,1.3382,3.0907
2024-10-11T12:36:11.426Z,0.0117,-0.9741,0.2305,0.0256,0.0267,0.0009,-0.0040,-0.0026,-0.0041,-2.5285,1.3382,3.0907
2024-10-11T12:36:11.436Z,0.0132,-0.9755,0.2266,0.0027,0.0174,0.0209,-0.0041,-0.0006,-0.0047,-2.5283,1.3382,3.0901
2024-10-11T12:36:11.446Z,0.0142,-0.9732,0.2256,0.0027,0.0174,0.0209,-0.0038,0.0021,-0.0032,-2.5283,1.3382,3.0901
2024-10-11T12:36:11.456Z,0.0163,-0.9718,0.2248,0.0027,0.0174,0.0209,-0.0005,0.0005,-0.0009,-2.5283,1.3382,3.0901
2024-10-11T12:36:11.466Z,0.0150,-0.9727,0.2236,-0.0421,-0.0168,0.0558,0.0017,0.0026,-0.0013,-2.5282,1.3383,3.0898
2024-10-11T12:36:11.477Z,0.0153,-0.9731,0.2239,-0.0421,-0.0168,0.0558,0.0010,0.0047,0.0014,-2.5282,1.3383,3.0898
2024-10-11T12:36:11.488Z,0.0127,-0.9705,0.2291,-0.0421,-0.0168,0.0558,-0.0032,0.0027,0.0014,-2.5282,1.3383,3.0898
2024-10-11T12:36:11.496Z,0.0112,-0.9701,0.2273,0.0003,-0.0231,0.0142,0.0020,0.0053,-0.0019,-2.5285,1.3383,3.0899
2024-10-11T12:36:11.506Z,0.0130,-0.9704,0.2245,0.0003,-0.0231,0.0142,0.0012,0.0059,-0.0000,-2.5285,1.3383,3.0899
2024-10-11T12:36:11.516Z,0.0119,-0.9695,0.2248,0.0003,-0.0231,0.0142,0.0012,0.0060,-0.0022,-2.5285,1.3383,3.0899
2024-10-11T12:36:11.526Z,0.0127,-0.9697,0.2255,-0.0018,-0.0451,0.0495,0.0024,0.0088,-0.0011,-2.5286,1.3383,3.0899
2024-10-11T12:36:11.536Z,0.0109,-0.9712,0.2261,-0.0018,-0.0451,0.0495,0.0024,0.0082,-0.0019,-2.5286,1.3383,3.0899
2024-10-11T12:36:11.546Z,0.0112,-0.9718,0.2263,-0.0018,-0.0451,0.0495,0.0041,0.0080,-0.0006,-2.5286,1.3383,3.0899
2024-10-11T12:36:11.556Z,0.0083,-0.9697,0.2278,0.0253,-0.0266,0.0225,0.0034,0.0100,-0.0030,-2.5282,1.3383,3.0895
2024-10-11T12:36:11.566Z,0.0102,-0.9685,0.2265,0.0253,-0.0266,0.0225,0.0044,0.0075,-0.0019,-2.5282,1.3383,3.0895
2024-10-11T12:36:11.576Z,0.0112,-0.9679,0.2262,0.0253,-0.0266,0.0225,0.0030,0.0107,0.0004,-2.5282,1.3383,3.0895
2024-10-11T12:36:11.586Z,0.0120,-0.9672,0.2252,0.0018,-0.0578,0.0444,0.0056,0.0092,-0.0008,-2.5280,1.3382,3.0893
2024-10-11T12:36:11.596Z,0.0113,-0.9698,0.2259,0.0018,-0.0578,0.0444,0.0047,0.0065,-0.0010,-2.5280,1.3382,3.0893
2024-10-11T12:36:11.606Z,0.0097,-0.9701,0.2268,0.0018,-0.0578,0.0444,0.0077,0.0045,-0.0011,-2.5280,1.3382,3.0893
2024-10-11T12:36:11.616Z,0.0072,-0.9734,0.2271,0.0352,-0.0057,0.0332,0.0072,0.0093,-0.0014,-2.5279,1.3382,3.0892
2024-10-11T12:36:11.626Z,0.0099,-0.9742,0.2308,0.0352,-0.0057,0.0332,0.0054,0.0098,-0.0036,-2.5279,1.3382,3.0892
2024-10-11T12:36:11.636Z,0.0097,-0.9761,0.2297,0.0352,-0.0057,0.0332,0.0071,0.0072,-0.0032,-2.5279,1.3382,3.0892
2024-10-11T12:36:11.646Z,0.0123,-0.9762,0.2279,-0.0025,0.0365,0.0126,0.0069,0.0061,-0.0006,-2.5281,1.3381,3.0894
2024-10-11T12:36:11.656Z,0.0111,-0.9761,0.2273,-0.0025,0.0365,0.0126,0.0086,0.0063,-0.0018,-2.5281,1.3381,3.0894
2024-10-11T12:36:11.666Z,0.0103,-0.9776,0.2284,-0.0025,0.0365,0.0126,0.0072,0.0064,-0.0018,-2.5281,1.3381,3.0894
2024-10-11T12:36:11.676Z,0.0130,-0.9772,0.2303,-0.0027,0.0392,0.0122,0.0060,0.0087,-0.0027,-2.5280,1.3379,3.0892
2024-10-11T12:36:11.687Z,0.0123,-0.9762,0.2316,-0.0027,0.0392,0.0122,0.0103,0.0080,-0.0027,-2.5280,1.3379,3.0892
2024-10-11T12:36:11.697Z,0.0112,-0.9743,0.2313,-0.0027,0.0392,0.0122,0.0086,0.0064,-0.0024,-2.5280,1.3379,3.0892
2024-10-11T12:36:11.706Z,0.0109,-0.9739,0.2300,0.0135,0.0057,0.0095,0.0057,0.0069,-0.0046,-2.5277,1.3377,3.0889
2024-10-11T12:36:11.716Z,0.0132,-0.9731,0.2302,0.0135,0.0057,0.0095,0.0059,0.0058,-0.0024,-2.5277,1.3377,3.0889
2024-10-11T12:36:11.726Z,0.0150,-0.9721,0.2326,0.0135,0.0057,0.0095,0.0048,0.0065,-0.0008,-2.5277,1.3377,3.0889
2024-10-11T12:36:11.736Z,0.0144,-0.9721,0.2319,-0.0232,-0.0096,-0.0145,0.0050,0.0091,-0.0018,-2.5277,1.3375,3.0888
2024-10-11T12:36:11.746Z,0.0135,-0.9700,0.2303,-0.0232,-0.0096,-0.0145,0.0077,0.0096,-0.0005,-2.5277,1.3375,3.0888
2024-10-11T12:36:11.756Z,0.0150,-0.9694,0.2310,-0.0232,-0.0096,-0.0145,0.0045,0.0103,-0.0006,-2.5277,1.3375,3.0888
2024-10-11T12:36:11.766Z,0.0141,-0.9723,0.2308,-0.0273,-0.0179,0.0021,0.0049,0.0103,-0.0003,-2.5277,1.3373,3.0889
2024-10-11T12:36:11.776Z,0.0161,-0.9724,0.2300,-0.0273,-0.0179,0.0021,0.0045,0.0109,0.0013,-2.5277,1.3373,3.0889
2024-10-11T12:36:11.786Z,0.0146,-0.9715,0.2317,-0.0273,-0.0179,0.0021,0.0051,0.0116,0.0022,-2.5277,1.3373,3.0889
2024-10-11T12:36:11.796Z,0.0117,-0.9747,0.2335,0.0064,0.0047,-0.0188,0.0059,0.0104,-0.0003,-2.5280,1.3372,3.0893
2024-10-11T12:36:11.806Z,0.0123,-0.9742,0.2353,0.0064,0.0047,-0.0188,0.0031,0.0138,-0.0010,-2.5280,1.3372,3.0893
2024-10-11T12:36:11.816Z,0.0123,-0.9748,0.2383,0.0064,0.0047,-0.0188,0.0030,0.0114,-0.0006,-2.5280,1.3372,3.0893
2024-10-11T12:36:11.826Z,0.0106,-0.9753,0.2369,0.0136,0.0306,-0.0605,0.0002,0.0113,-0.0002,-2.5279,1.3370,3.0893
2024-10-11T12:36:11.836Z,0.0114,-0.9722,0.2370,0.0136,0.0306,-0.0605,0.0017,0.0084,0.0011,-2.5279,1.3370,3.0893
2024-10-11T12:36:11.846Z,0.0126,-0.9734,0.2374,0.0136,0.0306,-0.0605,0.0007,0.0108,0.0023,-2.5279,1.3370,3.0893
2024-10-11T12:36:11.856Z,0.0158,-0.9760,0.2371,-0.0287,0.0282,-0.0575,-0.0007,0.0107,0.0007,-2.5279,1.3370,3.0893
2024-10-11T12:36:11.866Z,0.0134,-0.9756,0.2364,-0.0287,0.0282,-0.0575,-0.0025,0.0072,-0.0012,-2.5279,1.3370,3.0893
2024-10-11T12:36:11.875Z,0.0115,-0.9764,0.2387,-0.0287,0.0282,-0.0575,-0.0039,0.0076,-0.0004,-2.5279,1.3370,3.0893
2024-10-11T12:36:11.886Z,0.0102,-0.9769,0.2383,0.0157,0.0460,-0.0706,-0.0020,0.0069,-0.0017,-2.5279,1.3370,3.0893
2024-10-11T12:36:11.897Z,0.0117,-0.9777,0.2368,0.0157,0.0460,-0.0706,-0.0014,0.0059,0.0014,-2.5279,1.3370,3.0893
2024-10-11T12:36:11.907Z,0.0117,-0.9777,0.2368,0.0157,0.0460,-0.0706,-0.0018,0.0059,0.0011,-2.5279,1.3370,3.0893
2024-10-11T12:36:11.917Z,0.0110,-0.9765,0.2355,0.0055,0.0421,-0.0409,-0.0029,0.0078,-0.0013,-2.5280,1.3371,3.0894
2024-10-11T12:36:11.926Z,0.0134,-0.9772,0.2354,0.0055,0.0421,-0.0409,-0.0055,0.0071,-0.0001,-2.5280,1.3371,3.0894
2024-10-11T12:36:11.939Z,0.0134,-0.9765,0.2356,-0.0002,0.0335,-0.0372,-0.0027,0.0079,-0.0001,-2.5276,1.3369,3.0889
2024-10-11T12:36:11.946Z,0.0130,-0.9762,0.2349,-0.0002,0.0335,-0.0372,-0.0057,0.0063,-0.0008,-2.5276,1.3369,3.0889
2024-10-11T12:36:11.957Z,0.0142,-0.9730,0.2321,-0.0002,0.0335,-0.0372,-0.0057,0.0066,-0.0011,-2.5276,1.3369,3.0889
2024-10-11T12:36:11.966Z,0.0142,-0.9730,0.2321,-0.0002,0.0335,-0.0372,-0.0034,0.0072,-0.0003,-2.5276,1.3369,3.0889
2024-10-11T12:36:11.977Z,0.0144,-0.9714,0.2284,-0.0312,-0.0073,-0.0080,-0.0060,0.0089,0.0003,-2.5282,1.3367,3.0895
2024-10-11T12:36:11.987Z,0.0144,-0.9714,0.2284,-0.0312,-0.0073,-0.0080,-0.0067,0.0066,0.0003,-2.5282,1.3367,3.0895
2024-10-11T12:36:11.997Z,0.0101,-0.9715,0.2264,-0.0312,-0.0073,-0.0080,-0.0048,0.0079,0.0006,-2.5282,1.3367,3.0895
2024-10-11T12:36:12.007Z,0.0095,-0.9719,0.2253,0.0106,-0.0160,0.0441,-0.0036,0.0057,-0.0012,-2.5284,1.3367,3.0896
2024-10-11T12:36:12.017Z,0.0094,-0.9717,0.2267,0.0106,-0.0160,0.0441,-0.0030,0.0068,-0.0015,-2.5284,1.3367,3.0896
2024-10-11T12:36:12.027Z,0.0119,-0.9729,0.2266,0.0106,-0.0160,0.0441,-0.0035,0.0102,-0.0034,-2.5284,1.3367,3.0896
2024-10-11T12:36:12.037Z,0.0119,-0.9729,0.2266,0.0176,-0.0041,0.0440,-0.0022,0.0058,-0.0001,-2.5284,1.3368,3.0895
2024-10-11T12:36:12.047Z,0.0130,-0.9729,0.2271,0.0176,-0.0041,0.0440,-0.0019,0.0093,-0.0032,-2.5284,1.3368,3.0895
2024-10-11T12:36:12.057Z,0.0125,-0.9710,0.2298,0.0176,-0.0041,0.0440,-0.0021,0.0057,0.0005,-2.5284,1.3368,3.0895
2024-10-11T12:36:12.067Z,0.0136,-0.9691,0.2294,-0.0076,-0.0043,0.0268,-0.0009,0.0077,-0.0004,-2.5284,1.3369,3.0895
2024-10-11T12:36:12.077Z,0.0129,-0.9677,0.2283,-0.0076,-0.0043,0.0268,-0.0025,0.0066,-0.0014,-2.5284,1.3369,3.0895
2024-10-11T12:36:12.089Z,0.0129,-0.9677,0.2283,-0.0051,-0.0518,0.0388,0.0009,0.0053,0.0015,-2.5286,1.3369,3.0896
2024-10-11T12:36:12.097Z,0.0079,-0.9695,0.2265,-0.0051,-0.0518,0.0388,0.0012,0.0074,0.0001,-2.5286,1.3369,3.0896
2024-10-11T12:36:12.106Z,0.0079,-0.9695,0.2265,-0.0051,-0.0518,0.0388,0.0003,0.0090,-0.0008,-2.5286,1.3369,3.0896
2024-10-11T12:36:12.117Z,0.0082,-0.9714,0.2285,-0.0051,-0.0518,0.0388,-0.0004,0.0056,-0.0007,-2.5286,1.3369,3.0896
2024-10-11T12:36:12.127Z,0.0071,-0.9712,0.2283,0.0292,-0.0179,0.0276,0.0014,0.0052,-0.0036,-2.5286,1.3369,3.0896
2024-10-11T12:36:12.138Z,0.0087,-0.9710,0.2280,0.0292,-0.0179,0.0276,0.0020,0.0072,-0.0017,-2.5286,1.3369,3.0896
2024-10-11T12:36:12.145Z,0.0087,-0.9710,0.2280,0.0292,-0.0179,0.0276,-0.0003,0.0065,-0.0039,-2.5286,1.3369,3.0896
2024-10-11T12:36:12.157Z,0.0111,-0.9720,0.2299,0.0201,-0.0115,0.0200,0.0019,0.0058,-0.0008,-2.5284,1.3369,3.0893
2024-10-11T12:36:12.167Z,0.0109,-0.9739,0.2299,0.0201,-0.0115,0.0200,-0.0005,0.0072,-0.0019,-2.5284,1.3369,3.0893
2024-10-11T12:36:12.177Z,0.0103,-0.9740,0.2318,0.0201,-0.0115,0.0200,-0.0004,0.0072,-0.0006,-2.5284,1.3369,3.0893
2024-10-11T12:36:12.189Z,0.0116,-0.9739,0.2334,0.0164,0.0099,0.0059,-0.0009,0.0081,-0.0019,-2.5284,1.3369,3.0894
2024-10-11T12:36:12.196Z,0.0089,-0.9740,0.2345,0.0164,0.0099,0.0059,0.0009,0.0081,-0.0022,-2.5284,1.3369,3.0894
2024-10-11T12:36:12.206Z,0.0089,-0.9740,0.2345,0.0164,0.0099,0.0059,-0.0012,0.0096,-0.0024,-2.5284,1.3369,3.0894
2024-10-11T12:36:12.217Z,0.0116,-0.9744,0.2345,0.0171,0.0189,-0.0320,-0.0016,0.0084,-0.0025,-2.5286,1.3370,3.0895
2024-10-11T12:36:12.227Z,0.0117,-0.9757,0.2357,0.0171,0.0189,-0.0320,-0.0026,0.0112,-0.0049,-2.5286,1.3370,3.0895
2024-10-11T12:36:12.240Z,0.0142,-0.9770,0.2346,-0.0044,0.0397,-0.0327,-0.0023,0.0102,-0.0037,-2.5284,1.3370,3.0894
2024-10-11T12:36:12.247Z,0.0169,-0.9751,0.2341,-0.0044,0.0397,-0.0327,-0.0031,0.0117,-0.0008,-2.5284,1.3370,3.0894
2024-10-11T12:36:12.257Z,0.0146,-0.9758,0.2344,-0.0044,0.0397,-0.0327,-0.0019,0.0136,-0.0036,-2.5284,1.3370,3.0894
2024-10-11T12:36:12.267Z,0.0143,-0.9768,0.2352,-0.0044,0.0397,-0.0327,-0.0025,0.0128,-0.0008,-2.5284,1.3370,3.0894
2024-10-11T12:36:12.277Z,0.0167,-0.9767,0.2331,-0.0219,0.0280,-0.0392,-0.0046,0.0129,-0.0015,-2.5283,1.3371,3.0894
2024-10-11T12:36:12.288Z,0.0139,-0.9764,0.2322,-0.0219,0.0280,-0.0392,-0.0055,0.0144,-0.0014,-2.5283,1.3371,3.0894
2024-10-11T12:36:12.296Z,0.0139,-0.9763,0.2300,-0.0219,0.0280,-0.0392,-0.0021,0.0140,-0.0007,-2.5283,1.3371,3.0894
2024-10-11T12:36:12.306Z,0.0117,-0.9768,0.2277,-0.0144,0.0316,0.0046,-0.0044,0.0134,-0.0015,-2.5283,1.3371,3.0896
2024-10-11T12:36:12.316Z,0.0121,-0.9753,0.2283,-0.0144,0.0316,0.0046,-0.0056,0.0109,-0.0037,-2.5283,1.3371,3.0896
2024-10-11T12:36:12.327Z,0.0113,-0.9740,0.2291,-0.0144,0.0316,0.0046,-0.0027,0.0104,-0.0026,-2.5283,1.3371,3.0896
2024-10-11T12:36:12.339Z,0.0108,-0.9737,0.2285,0.0008,0.0165,0.0203,-0.0023,0.0111,-0.0014,-2.5281,1.3372,3.0895
2024-10-11T12:36:12.346Z,0.0132,-0.9726,0.2289,0.0008,0.0165,0.0203,-0.0043,0.0117,0.0006,-2.5281,1.3372,3.0895
2024-10-11T12:36:12.357Z,0.0154,-0.9723,0.2283,0.0008,0.0165,0.0203,-0.0056,0.0116,-0.0010,-2.5281,1.3372,3.0895
2024-10-11T12:36:12.366Z,0.0160,-0.9717,0.2283,-0.0227,-0.0049,0.0205,-0.0031,0.0105,-0.0007,-2.5279,1.3372,3.0893
2024-10-11T12:36:12.377Z,0.0135,-0.9725,0.2258,-0.0227,-0.0049,0.0205,-0.0010,0.0102,-0.0007,-2.5279,1.3372,3.0893
2024-10-11T12:36:12.389Z,0.0114,-0.9736,0.2271,-0.0065,0.0093,0.0483,-0.0019,0.0119,0.0007,-2.5278,1.3373,3.0893
2024-10-11T12:36:12.396Z,0.0105,-0.9712,0.2262,-0.0065,0.0093,0.0483,0.0004,0.0137,-0.0015,-2.5278,1.3373,3.0893
2024-10-11T12:36:12.406Z,0.0124,-0.9731,0.2272,-0.0065,0.0093,0.0483,-0.0009,0.0133,0.0004,-2.5278,1.3373,3.0893
2024-10-11T12:36:12.418Z,0.0098,-0.9731,0.2290,0.0098,0.0007,0.0224,-0.0013,0.0101,-0.0014,-2.5277,1.3374,3.0894
2024-10-11T12:36:12.426Z,0.0096,-0.9729,0.2275,0.0098,0.0007,0.0224,-0.0047,0.0134,-0.0046,-2.5277,1.3374,3.0894
2024-10-11T12:36:12.437Z,0.0111,-0.9733,0.2301,0.0098,0.0007,0.0224,-0.0008,0.0132,-0.0024,-2.5277,1.3374,3.0894
2024-10-11T12:36:12.448Z,0.0128,-0.9740,0.2309,-0.0041,0.0012,0.0004,-0.0019,0.0102,-0.0036,-2.5271,1.3375,3.0888
2024-10-11T12:36:12.456Z,0.0110,-0.9736,0.2291,-0.0041,0.0012,0.0004,-0.0025,0.0117,-0.0035,-2.5271,1.3375,3.0888
2024-10-11T12:36:12.466Z,0.0146,-0.9724,0.2275,-0.0041,0.0012,0.0004,-0.0013,0.0121,-0.0011,-2.5271,1.3375,3.0888
2024-10-11T12:36:12.476Z,0.0164,-0.9741,0.2276,-0.0041,0.0012,0.0004,-0.0002,0.0106,0.0004,-2.5271,1.3375,3.0888
2024-10-11T12:36:12.487Z,0.0191,-0.9729,0.2276,-0.0312,0.0016,0.0225,-0.0007,0.0125,-0.0011,-2.5267,1.3378,3.0885
2024-10-11T12:36:12.496Z,0.0173,-0.9714,0.2291,-0.0312,0.0016,0.0225,0.0026,0.0115,-0.0008,-2.5267,1.3378,3.0885
2024-10-11T12:36:12.506Z,0.0150,-0.9707,0.2295,-0.0312,0.0016,0.0225,-0.0010,0.0104,0.0013,-2.5267,1.3378,3.0885
2024-10-11T12:36:12.516Z,0.0146,-0.9731,0.2296,-0.0368,-0.0219,0.0139,0.0020,0.0090,-0.0009,-2.5267,1.3378,3.0886
2024-10-11T12:36:12.526Z,0.0130,-0.9707,0.2296,-0.0368,-0.0219,0.0139,-0.0013,0.0106,-0.0004,-2.5267,1.3378,3.0886
2024-10-11T12:36:12.537Z,0.0139,-0.9706,0.2308,-0.0163,-0.0247,0.0077,0.0011,0.0115,0.0003,-2.5268,1.3378,3.0888
2024-10-11T12:36:12.546Z,0.0141,-0.9716,0.2323,-0.0163,-0.0247,0.0077,0.0026,0.0131,-0.0021,-2.5268,1.3378,3.0888
2024-10-11T12:36:12.557Z,0.0148,-0.9722,0.2314,-0.0163,-0.0247,0.0077,0.0005,0.0102,-0.0011,-2.5268,1.3378,3.0888
2024-10-11T12:36:12.567Z,0.0137,-0.9720,0.2332,-0.0184,0.0006,-0.0140,0.0018,0.0122,-0.0004,-2.5268,1.3377,3.0888
2024-10-11T12:36:12.577Z,0.0125,-0.9716,0.2337,-0.0184,0.0006,-0.0140,-0.0001,0.0116,-0.0034,-2.5268,1.3377,3.0888
2024-10-11T12:36:12.587Z,0.0105,-0.9708,0.2345,-0.0184,0.0006,-0.0140,0.0013,0.0110,-0.0006,-2.5268,1.3377,3.0888
2024-10-11T12:36:12.597Z,0.0107,-0.9702,0.2323,0.0250,-0.0354,-0.0261,0.0004,0.0085,0.0010,-2.5266,1.3377,3.0886
2024-10-11T12:36:12.606Z,0.0113,-0.9721,0.2321,0.0250,-0.0354,-0.0261,-0.0010,0.0079,-0.0015,-2.5266,1.3377,3.0886
2024-10-11T12:36:12.616Z,0.0100,-0.9721,0.2331,0.0250,-0.0354,-0.0261,-0.0016,0.0066,0.0005,-2.5266,1.3377,3.0886
2024-10-11T12:36:12.626Z,0.0110,-0.9729,0.2311,0.0250,-0.0354,-0.0261,-0.0011,0.0088,-0.0015,-2.5266,1.3377,3.0886
2024-10-11T12:36:12.636Z,0.0089,-0.9738,0.2325,0.0131,-0.0065,-0.0061,0.0004,0.0061,-0.0002,-2.5265,1.3377,3.0885
2024-10-11T12:36:12.646Z,0.0089,-0.9747,0.2326,0.0131,-0.0065,-0.0061,-0.0002,0.0089,-0.0018,-2.5265,1.3377,3.0885
2024-10-11T12:36:12.657Z,0.0108,-0.9742,0.2326,0.0232,0.0131,-0.0199,-0.0001,0.0088,-0.0025,-2.5264,1.3376,3.0883
2024-10-11T12:36:12.666Z,0.0112,-0.9752,0.2316,0.0232,0.0131,-0.0199,-0.0030,0.0082,-0.0030,-2.5264,1.3376,3.0883
2024-10-11T12:36:12.676Z,0.0131,-0.9747,0.2314,0.0232,0.0131,-0.0199,-0.0002,0.0055,-0.0024,-2.5264,1.3376,3.0883
2024-10-11T12:36:12.687Z,0.0156,-0.9746,0.2298,-0.0200,0.0151,0.0024,-0.0020,0.0068,-0.0016,-2.5263,1.3375,3.0883
2024-10-11T12:36:12.696Z,0.0148,-0.9740,0.2295,-0.0200,0.0151,0.0024,0.0002,0.0085,-0.0026,-2.5263,1.3375,3.0883
2024-10-11T12:36:12.706Z,0.0131,-0.9740,0.2291,-0.0200,0.0151,0.0024,0.0004,0.0061,-0.0013,-2.5263,1.3375,3.0883
2024-10-11T12:36:12.717Z,0.0122,-0.9726,0.2305,-0.0082,0.0032,0.0148,-0.0007,0.0054,-0.0001,-2.5266,1.3375,3.0884
2024-10-11T12:36:12.726Z,0.0117,-0.9710,0.2308,-0.0082,0.0032,0.0148,-0.0025,0.0052,-0.0015,-2.5266,1.3375,3.0884
2024-10-11T12:36:12.736Z,0.0146,-0.9724,0.2345,-0.0082,0.0032,0.0148,-0.0022,0.0061,-0.0045,-2.5266,1.3375,3.0884
2024-10-11T12:36:12.747Z,0.0157,-0.9708,0.2346,-0.0355,-0.0222,-0.0480,-0.0012,0.0077,-0.0020,-2.5270,1.3375,3.0888
2024-10-11T12:36:12.756Z,0.0157,-0.9708,0.2346,-0.0355,-0.0222,-0.0480,-0.0004,0.0063,-0.0007,-2.5270,1.3375,3.0888
2024-10-11T12:36:12.766Z,0.0138,-0.9674,0.2341,-0.0355,-0.0222,-0.0480,-0.0022,0.0091,-0.0009,-2.5270,1.3375,3.0888
2024-10-11T12:36:12.778Z,0.0152,-0.9689,0.2334,-0.0286,-0.0484,-0.0319,0.0012,0.0070,0.0003,-2.5270,1.3375,3.0888
2024-10-11T12:36:12.786Z,0.0170,-0.9705,0.2342,-0.0286,-0.0484,-0.0319,-0.0014,0.0093,-0.0022,-2.5270,1.3375,3.0888
2024-10-11T12:36:12.797Z,0.0143,-0.9724,0.2342,-0.0286,-0.0484,-0.0319,-0.0017,0.0115,0.0007,-2.5270,1.3375,3.0888
2024-10-11T12:36:12.807Z,0.0143,-0.9724,0.2342,-0.0191,-0.0015,-0.0251,-0.0019,0.0094,-0.0013,-2.5270,1.3375,3.0888
2024-10-11T12:36:12.816Z,0.0129,-0.9741,0.2335,-0.0191,-0.0015,-0.0251,-0.0025,0.0105,-0.0013,-2.5270,1.3375,3.0888
2024-10-11T12:36:12.826Z,0.0122,-0.9752,0.2344,-0.0191,-0.0015,-0.0251,-0.0005,0.0091,0.0024,-2.5270,1.3375,3.0888
2024-10-11T12:36:12.836Z,0.0094,-0.9757,0.2336,0.0190,0.0275,-0.0256,-0.0015,0.0087,-0.0001,-2.5270,1.3375,3.0889
2024-10-11T12:36:12.846Z,0.0108,-0.9754,0.2339,0.0190,0.0275,-0.0256,-0.0019,0.0098,-0.0007,-2.5270,1.3375,3.0889
2024-10-11T12:36:12.856Z,0.0110,-0.9748,0.2344,0.0190,0.0275,-0.0256,-0.0007,0.0072,0.0006,-2.5270,1.3375,3.0889
2024-10-11T12:36:12.866Z,0.0128,-0.9760,0.2327,0.0056,0.0280,-0.0292,-0.0023,0.0073,-0.0003,-2.5270,1.3374,3.0888
2024-10-11T12:36:12.876Z,0.0137,-0.9764,0.2327,0.0056,0.0280,-0.0292,-0.0010,0.0070,0.0004,-2.5270,1.3374,3.0888
2024-10-11T12:36:12.886Z,0.0137,-0.9741,0.2342,0.0056,0.0280,-0.0292,-0.0029,0.0100,-0.0015,-2.5270,1.3374,3.0888
2024-10-11T12:36:12.897Z,0.0108,-0.9755,0.2321,0.0073,0.0259,-0.0183,-0.0012,0.0048,-0.0001,-2.5269,1.3374,3.0887
2024-10-11T12:36:12.906Z,0.0095,-0.9757,0.2319,0.0073,0.0259,-0.0183,-0.0011,0.0053,-0.0000,-2.5269,1.3374,3.0887
2024-10-11T12:36:12.916Z,0.0075,-0.9745,0.2316,0.0073,0.0259,-0.0183,-0.0012,0.0043,-0.0022,-2.5269,1.3374,3.0887
2024-10-11T12:36:12.927Z,0.0087,-0.9758,0.2300,0.0452,0.0214,0.0069,0.0004,0.0026,-0.0032,-2.5268,1.3374,3.0885
2024-10-11T12:36:12.936Z,0.0096,-0.9761,0.2298,0.0452,0.0214,0.0069,-0.0026,0.0041,-0.0016,-2.5268,1.3374,3.0885
2024-10-11T12:36:12.946Z,0.0115,-0.9765,0.2315,0.0452,0.0214,0.0069,-0.0012,0.0010,-0.0021,-2.5268,1.3374,3.0885
2024-10-11T12:36:12.957Z,0.0115,-0.9765,0.2315,-0.0034,0.0250,-0.0106,0.0005,0.0042,-0.0053,-2.5264,1.3374,3.0880
2024-10-11T12:36:12.966Z,0.0115,-0.9736,0.2305,-0.0034,0.0250,-0.0106,-0.0031,0.0033,-0.0056,-2.5264,1.3374,3.0880
2024-10-11T12:36:12.976Z,0.0131,-0.9735,0.2294,-0.0034,0.0250,-0.0106,-0.0021,0.0040,-0.0032,-2.5264,1.3374,3.0880
2024-10-11T12:36:12.986Z,0.0142,-0.9729,0.2295,-0.0116,0.0101,0.0166,-0.0009,0.0073,-0.0034,-2.5261,1.3374,3.0875
2024-10-11T12:36:12.996Z,0.0183,-0.9694,0.2312,-0.0116,0.0101,0.0166,-0.0010,0.0088,-0.0047,-2.5261,1.3374,3.0875
2024-10-11T12:36:13.006Z,0.0180,-0.9706,0.2299,-0.0116,0.0101,0.0166,-0.0022,0.0071,-0.0014,-2.5261,1.3374,3.0875
2024-10-11T12:36:13.016Z,0.0162,-0.9702,0.2293,-0.0410,-0.0313,0.0078,-0.0009,0.0079,-0.0007,-2.5262,1.3374,3.0877
2024-10-11T12:36:13.027Z,0.0151,-0.9698,0.2269,-0.0410,-0.0313,0.0078,0.0003,0.0111,-0.0000,-2.5262,1.3374,3.0877
2024-10-11T12:36:13.036Z,0.0143,-0.9689,0.2268,-0.0410,-0.0313,0.0078,-0.0020,0.0107,-0.0015,-2.5262,1.3374,3.0877
2024-10-11T12:36:13.046Z,0.0142,-0.9697,0.2259,-0.0251,-0.0442,0.0430,-0.0021,0.0113,0.0015,-2.5263,1.3374,3.0878
2024-10-11T12:36:13.056Z,0.0128,-0.9710,0.2255,-0.0251,-0.0442,0.0430,0.0010,0.0111,-0.0000,-2.5263,1.3374,3.0878
2024-10-11T12:36:13.066Z,0.0129,-0.9721,0.2277,-0.0251,-0.0442,0.0430,-0.0008,0.0126,-0.0010,-2.5263,1.3374,3.0878
2024-10-11T12:36:13.077Z,0.0132,-0.9718,0.2285,-0.0012,-0.0063,0.0217,0.0001,0.0125,-0.0011,-2.5263,1.3374,3.0879
2024-10-11T12:36:13.086Z,0.0146,-0.9715,0.2283,-0.0012,-0.0063,0.0217,0.0011,0.0124,0.0004,-2.5263,1.3374,3.0879
2024-10-11T12:36:13.096Z,0.0141,-0.9719,0.2294,-0.0012,-0.0063,0.0217,-0.0006,0.0122,0.0005,-2.5263,1.3374,3.0879
2024-10-11T12:36:13.108Z,0.0105,-0.9712,0.2273,0.0116,-0.0055,0.0347,0.0015,0.0129,-0.0014,-2.5261,1.3374,3.0878
2024-10-11T12:36:13.116Z,0.0110,-0.9705,0.2278,0.0116,-0.0055,0.0347,0.0022,0.0119,-0.0001,-2.5261,1.3374,3.0878
2024-10-11T12:36:13.126Z,0.0112,-0.9728,0.2287,0.0116,-0.0055,0.0347,-0.0014,0.0130,-0.0013,-2.5261,1.3374,3.0878
2024-10-11T12:36:13.136Z,0.0093,-0.9709,0.2301,0.0204,-0.0070,0.0092,0.0008,0.0115,-0.0007,-2.5258,1.3374,3.0877
2024-10-11T12:36:13.146Z,0.0094,-0.9702,0.2301,0.0204,-0.0070,0.0092,-0.0010,0.0114,-0.0033,-2.5258,1.3374,3.0877
2024-10-11T12:36:13.156Z,0.0087,-0.9704,0.2309,0.0204,-0.0070,0.0092,0.0039,0.0110,-0.0032,-2.5258,1.3374,3.0877
2024-10-11T12:36:13.166Z,0.0085,-0.9720,0.2321,0.0394,-0.0090,-0.0174,0.0007,0.0110,-0.0010,-2.5257,1.3374,3.0876
2024-10-11T12:36:13.176Z,0.0099,-0.9699,0.2305,0.0394,-0.0090,-0.0174,0.0010,0.0104,-0.0029,-2.5257,1.3374,3.0876
2024-10-11T12:36:13.186Z,0.0117,-0.9713,0.2308,0.0394,-0.0090,-0.0174,0.0010,0.0114,-0.0042,-2.5257,1.3374,3.0876
2024-10-11T12:36:13.196Z,0.0130,-0.9739,0.2313,-0.0034,0.0069,-0.0028,0.0033,0.0103,-0.0026,-2.5254,1.3374,3.0874
2024-10-11T12:36:13.206Z,0.0146,-0.9729,0.2319,-0.0034,0.0069,-0.0028,0.0010,0.0129,-0.0028,-2.5254,1.3374,3.0874
2024-10-11T12:36:13.216Z,0.0138,-0.9733,0.2311,-0.0034,0.0069,-0.0028,0.0030,0.0125,-0.0025,-2.5254,1.3374,3.0874
2024-10-11T12:36:13.227Z,0.0140,-0.9733,0.2287,-0.0086,0.0107,0.0151,0.0014,0.0121,-0.0015,-2.5255,1.3374,3.0877
2024-10-11T12:36:13.237Z,0.0114,-0.9732,0.2289,-0.0086,0.0107,0.0151,0.0036,0.0116,-0.0003,-2.5255,1.3374,3.0877
2024-10-11T12:36:13.247Z,0.0116,-0.9748,0.2282,-0.0086,0.0107,0.0151,-0.0008,0.0125,-0.0028,-2.5255,1.3374,3.0877
2024-10-11T12:36:13.259Z,0.0119,-0.9759,0.2290,0.0100,0.0329,0.0202,0.0028,0.0110,-0.0020,-2.5259,1.3372,3.0882
2024-10-11T12:36:13.266Z,0.0144,-0.9739,0.2303,0.0100,0.0329,0.0202,0.0049,0.0125,-0.0032,-2.5259,1.3372,3.0882
2024-10-11T12:36:13.276Z,0.0162,-0.9733,0.2312,0.0100,0.0329,0.0202,0.0030,0.0122,-0.0011,-2.5259,1.3372,3.0882
2024-10-11T12:36:13.286Z,0.0167,-0.9737,0.2322,-0.0440,0.0167,-0.0062,0.0036,0.0144,-0.0007,-2.5258,1.3371,3.0883
2024-10-11T12:36:13.296Z,0.0167,-0.9734,0.2309,-0.0440,0.0167,-0.0062,0.0017,0.0171,-0.0014,-2.5258,1.3371,3.0883
2024-10-11T12:36:13.306Z,0.0168,-0.9737,0.2311,-0.0440,0.0167,-0.0062,0.0055,0.0134,0.0025,-2.5258,1.3371,3.0883
2024-10-11T12:36:13.316Z,0.0146,-0.9721,0.2313,-0.0333,-0.0034,0.0006,0.0042,0.0164,0.0006,-2.5259,1.3370,3.0886
2024-10-11T12:36:13.325Z,0.0154,-0.9728,0.2326,-0.0333,-0.0034,0.0006,0.0022,0.0196,0.0012,-2.5259,1.3370,3.0886
2024-10-11T12:36:13.335Z,0.0150,-0.9733,0.2318,-0.0333,-0.0034,0.0006,0.0026,0.0164,0.0022,-2.5259,1.3370,3.0886
2024-10-11T12:36:13.346Z,0.0146,-0.9742,0.2331,-0.0266,0.0077,-0.0191,0.0036,0.0156,0.0013,-2.5263,1.3370,3.0893
2024-10-11T12:36:13.356Z,0.0118,-0.9722,0.2331,-0.0266,0.0077,-0.0191,0.0036,0.0132,0.0003,-2.5263,1.3370,3.0893
2024-10-11T12:36:13.366Z,0.0097,-0.9724,0.2335,-0.0266,0.0077,-0.0191,-0.0004,0.0119,0.0018,-2.5263,1.3370,3.0893
2024-10-11T12:36:13.376Z,0.0100,-0.9737,0.2339,0.0205,0.0120,-0.0153,0.0054,0.0109,-0.0017,-2.5260,1.3369,3.0890
2024-10-11T12:36:13.386Z,0.0105,-0.9742,0.2322,0.0205,0.0120,-0.0153,0.0019,0.0084,-0.0020,-2.5260,1.3369,3.0890
2024-10-11T12:36:13.396Z,0.0108,-0.9754,0.2319,0.0205,0.0120,-0.0153,0.0047,0.0086,-0.0021,-2.5260,1.3369,3.0890
2024-10-11T12:36:13.407Z,0.0120,-0.9742,0.2329,0.0065,0.0165,-0.0082,0.0024,0.0064,-0.0007,-2.5259,1.3368,3.0888
2024-10-11T12:36:13.416Z,0.0126,-0.9744,0.2335,0.0065,0.0165,-0.0082,0.0018,0.0059,-0.0034,-2.5259,1.3368,3.0888
2024-10-11T12:36:13.426Z,0.0127,-0.9746,0.2327,0.0065,0.0165,-0.0082,-0.0005,0.0037,-0.0011,-2.5259,1.3368,3.0888
2024-10-11T12:36:13.437Z,0.0101,-0.9751,0.2321,0.0104,0.0166,0.0010,0.0018,0.0060,-0.0030,-2.5256,1.3367,3.0885
2024-10-11T12:36:13.446Z,0.0100,-0.9741,0.2321,0.0104,0.0166,0.0010,-0.0010,0.0030,-0.0016,-2.5256,1.3367,3.0885
2024-10-11T12:36:13.457Z,0.0128,-0.9749,0.2312,0.0104,0.0166,0.0010,0.0002,0.0041,-0.0035,-2.5256,1.3367,3.0885
2024-10-11T12:36:13.467Z,0.0123,-0.9754,0.2343,-0.0024,0.0248,-0.0120,0.0005,0.0040,-0.0034,-2.5257,1.3366,3.0884
2024-10-11T12:36:13.476Z,0.0137,-0.9752,0.2336,-0.0024,0.0248,-0.0120,-0.0001,0.0056,-0.0017,-2.5257,1.3366,3.0884
2024-10-11T12:36:13.486Z,0.0130,-0.9745,0.2350,-0.0024,0.0248,-0.0120,-0.0019,0.0060,-0.0009,-2.5257,1.3366,3.0884
2024-10-11T12:36:13.496Z,0.0121,-0.9751,0.2343,0.0027,0.0265,-0.0386,-0.0034,0.0037,-0.0036,-2.5256,1.3366,3.0883
2024-10-11T12:36:13.506Z,0.0146,-0.9749,0.2348,0.0027,0.0265,-0.0386,-0.0011,0.0025,-0.0014,-2.5256,1.3366,3.0883
2024-10-11T12:36:13.516Z,0.0154,-0.9753,0.2362,0.0027,0.0265,-0.0386,-0.0011,0.0034,-0.0010,-2.5256,1.3366,3.0883
2024-10-11T12:36:13.526Z,0.0165,-0.9734,0.2344,-0.0429,0.0176,-0.0298,-0.0028,0.0065,-0.0002,-2.5257,1.3366,3.0883
2024-10-11T12:36:13.536Z,0.0164,-0.9718,0.2332,-0.0429,0.0176,-0.0298,-0.0036,0.0070,-0.0014,-2.5257,1.3366,3.0883
2024-10-11T12:36:13.546Z,0.0144,-0.9723,0.2328,-0.0429,0.0176,-0.0298,-0.0043,0.0069,0.0001,-2.5257,1.3366,3.0883
2024-10-11T12:36:13.556Z,0.0150,-0.9722,0.2322,-0.0275,-0.0025,0.0022,-0.0018,0.0087,0.0005,-2.5257,1.3367,3.0883
2024-10-11T12:36:13.566Z,0.0141,-0.9722,0.2315,-0.0275,-0.0025,0.0022,-0.0033,0.0068,0.0012,-2.5257,1.3367,3.0883
2024-10-11T12:36:13.575Z,0.0143,-0.9704,0.2308,-0.0275,-0.0025,0.0022,-0.0027,0.0098,-0.0000,-2.5257,1.3367,3.0883
2024-10-11T12:36:13.586Z,0.0140,-0.9717,0.2307,-0.0060,-0.0178,0.0124,-0.0048,0.0085,-0.0004,-2.5258,1.3367,3.0884
2024-10-11T12:36:13.596Z,0.0134,-0.9709,0.2327,-0.0060,-0.0178,0.0124,-0.0022,0.0096,0.0012,-2.5258,1.3367,3.0884
2024-10-11T12:36:13.606Z,0.0119,-0.9724,0.2324,-0.0060,-0.0178,0.0124,-0.0032,0.0079,0.0011,-2.5258,1.3367,3.0884
2024-10-11T12:36:13.616Z,0.0134,-0.9722,0.2312,-0.0043,-0.0071,-0.0084,-0.0023,0.0083,0.0003,-2.5256,1.3367,3.0882
2024-10-11T12:36:13.625Z,0.0106,-0.9722,0.2292,-0.0043,-0.0071,-0.0084,-0.0017,0.0103,0.0009,-2.5256,1.3367,3.0882
2024-10-11T12:36:13.636Z,0.0112,-0.9715,0.2284,-0.0043,-0.0071,-0.0084,-0.0046,0.0097,0.0015,-2.5256,1.3367,3.0882
2024-10-11T12:36:13.646Z,0.0091,-0.9723,0.2323,0.0273,-0.0086,0.0123,-0.0032,0.0092,-0.0003,-2.5255,1.3367,3.0881
2024-10-11T12:36:13.657Z,0.0112,-0.9739,0.2313,0.0273,-0.0086,0.0123,-0.0003,0.0087,0.0002,-2.5255,1.3367,3.0881
2024-10-11T12:36:13.666Z,0.0120,-0.9729,0.2292,0.0273,-0.0086,0.0123,-0.0037,0.0065,-0.0016,-2.5255,1.3367,3.0881
2024-10-11T12:36:13.676Z,0.0126,-0.9725,0.2308,0.0003,-0.0003,0.0178,-0.0018,0.0077,0.0004,-2.5253,1.3368,3.0878
2024-10-11T12:36:13.687Z,0.0103,-0.9734,0.2306,0.0003,-0.0003,0.0178,-0.0033,0.0061,-0.0018,-2.5253,1.3368,3.0878
2024-10-11T12:36:13.696Z,0.0107,-0.9739,0.2320,0.0003,-0.0003,0.0178,-0.0019,0.0084,-0.0007,-2.5253,1.3368,3.0878
2024-10-11T12:36:13.706Z,0.0128,-0.9733,0.2298,0.0040,0.0048,0.0026,-0.0032,0.0067,-0.0015,-2.5253,1.3368,3.0877
2024-10-11T12:36:13.716Z,0.0142,-0.9738,0.2309,0.0040,0.0048,0.0026,-0.0035,0.0048,-0.0029,-2.5253,1.3368,3.0877
2024-10-11T12:36:13.726Z,0.0140,-0.9742,0.2330,0.0040,0.0048,0.0026,-0.0019,0.0051,-0.0011,-2.5253,1.3368,3.0877
2024-10-11T12:36:13.736Z,0.0145,-0.9721,0.2320,-0.0126,0.0083,-0.0139,-0.0006,0.0042,-0.0022,-2.5257,1.3369,3.0881
2024-10-11T12:36:13.746Z,0.0145,-0.9723,0.2303,-0.0126,0.0083,-0.0139,-0.0010,0.0038,-0.0019,-2.5257,1.3369,3.0881
2024-10-11T12:36:13.756Z,0.0136,-0.9732,0.2316,-0.0126,0.0083,-0.0139,-0.0036,0.0043,-0.0005,-2.5257,1.3369,3.0881
2024-10-11T12:36:13.766Z,0.0166,-0.9729,0.2320,-0.0216,0.0107,-0.0136,-0.0056,0.0040,0.0001,-2.5258,1.3371,3.0882
2024-10-11T12:36:13.776Z,0.0165,-0.9719,0.2319,-0.0216,0.0107,-0.0136,-0.0026,0.0050,0.0013,-2.5258,1.3371,3.0882
2024-10-11T12:36:13.786Z,0.0147,-0.9718,0.2311,-0.0216,0.0107,-0.0136,-0.0013,0.0064,-0.0023,-2.5258,1.3371,3.0882
2024-10-11T12:36:13.796Z,0.0146,-0.9733,0.2312,-0.0198,0.0068,-0.0025,-0.0037,0.0037,0.0015,-2.5259,1.3372,3.0882
2024-10-11T12:36:13.806Z,0.0140,-0.9737,0.2320,-0.0198,0.0068,-0.0025,-0.0024,0.0053,0.0021,-2.5259,1.3372,3.0882
2024-10-11T12:36:13.816Z,0.0130,-0.9745,0.2302,-0.0198,0.0068,-0.0025,-0.0035,0.0043,0.0013,-2.5259,1.3372,3.0882
2024-10-11T12:36:13.827Z,0.0126,-0.9746,0.2321,0.0096,0.0128,-0.0074,-0.0036,0.0078,-0.0009,-2.5258,1.3372,3.0880
2024-10-11T12:36:13.836Z,0.0134,-0.9751,0.2320,0.0096,0.0128,-0.0074,-0.0029,0.0040,-0.0002,-2.5258,1.3372,3.0880
2024-10-11T12:36:13.846Z,0.0136,-0.9743,0.2327,0.0096,0.0128,-0.0074,-0.0029,0.0051,0.0001,-2.5258,1.3372,3.0880
2024-10-11T12:36:13.857Z,0.0123,-0.9736,0.2332,-0.0110,0.0100,-0.0170,-0.0047,0.0057,0.0005,-2.5252,1.3372,3.0873
2024-10-11T12:36:13.866Z,0.0109,-0.9747,0.2339,-0.0110,0.0100,-0.0170,-0.0064,0.0060,0.0014,-2.5252,1.3372,3.0873
2024-10-11T12:36:13.876Z,0.0100,-0.9757,0.2338,-0.0110,0.0100,-0.0170,-0.0052,0.0057,-0.0002,-2.5252,1.3372,3.0873
2024-10-11T12:36:13.886Z,0.0085,-0.9751,0.2338,0.0401,0.0122,-0.0236,-0.0057,0.0052,-0.0016,-2.5249,1.3373,3.0868
2024-10-11T12:36:13.897Z,0.0112,-0.9756,0.2348,0.0401,0.0122,-0.0236,-0.0050,0.0045,0.0011,-2.5249,1.3373,3.0868
2024-10-11T12:36:13.908Z,0.0116,-0.9746,0.2342,0.0401,0.0122,-0.0236,-0.0078,0.0054,-0.0013,-2.5249,1.3373,3.0868
2024-10-11T12:36:13.916Z,0.0113,-0.9758,0.2324,0.0099,0.0177,-0.0161,-0.0044,0.0045,-0.0014,-2.5250,1.3375,3.0868
2024-10-11T12:36:13.926Z,0.0127,-0.9760,0.2335,0.0099,0.0177,-0.0161,-0.0063,0.0047,-0.0002,-2.5250,1.3375,3.0868
2024-10-11T12:36:13.936Z,0.0111,-0.9744,0.2322,0.0099,0.0177,-0.0161,-0.0050,0.0039,-0.0012,-2.5250,1.3375,3.0868
2024-10-11T12:36:13.946Z,0.0115,-0.9731,0.2310,0.0103,0.0038,-0.0050,-0.0067,0.0040,0.0015,-2.5251,1.3376,3.0868
2024-10-11T12:36:13.956Z,0.0103,-0.9722,0.2311,0.0103,0.0038,-0.0050,-0.0076,0.0058,-0.0020,-2.5251,1.3376,3.0868
2024-10-11T12:36:13.966Z,0.0125,-0.9726,0.2274,0.0103,0.0038,-0.0050,-0.0056,0.0053,0.0014,-2.5251,1.3376,3.0868
2024-10-11T12:36:13.976Z,0.0151,-0.9722,0.2262,-0.0238,-0.0050,0.0456,-0.0027,0.0045,-0.0014,-2.5258,1.3376,3.0874
2024-10-11T12:36:13.986Z,0.0145,-0.9716,0.2239,-0.0238,-0.0050,0.0456,-0.0061,0.0078,0.0002,-2.5258,1.3376,3.0874
2024-10-11T12:36:13.996Z,0.0129,-0.9703,0.2237,-0.0238,-0.0050,0.0456,-0.0050,0.0063,-0.0006,-2.5258,1.3376,3.0874
2024-10-11T12:36:14.006Z,0.0140,-0.9718,0.2255,-0.0145,-0.0093,0.0567,-0.0042,0.0061,0.0006,-2.5261,1.3377,3.0877
2024-10-11T12:36:14.016Z,0.0125,-0.9698,0.2245,-0.0145,-0.0093,0.0567,-0.0030,0.0062,0.0002,-2.5261,1.3377,3.0877
2024-10-11T12:36:14.026Z,0.0128,-0.9700,0.2250,-0.0145,-0.0093,0.0567,-0.0039,0.0058,0.0008,-2.5261,1.3377,3.0877
2024-10-11T12:36:14.036Z,0.0103,-0.9714,0.2249,0.0097,-0.0129,0.0558,-0.0021,0.0073,0.0005,-2.5263,1.3378,3.0878
2024-10-11T12:36:14.046Z,0.0126,-0.9725,0.2246,0.0097,-0.0129,0.0558,-0.0034,0.0070,0.0010,-2.5263,1.3378,3.0878
2024-10-11T12:36:14.056Z,0.0120,-0.9717,0.2260,0.0097,-0.0129,0.0558,-0.0006,0.0068,0.0004,-2.5263,1.3378,3.0878
2024-10-11T12:36:14.066Z,0.0116,-0.9732,0.2261,0.0084,0.0009,0.0424,-0.0012,0.0085,0.0012,-2.5263,1.3378,3.0878
2024-10-11T12:36:14.076Z,0.0118,-0.9723,0.2273,0.0084,0.0009,0.0424,-0.0025,0.0079,-0.0012,-2.5263,1.3378,3.0878
2024-10-11T12:36:14.086Z,0.0109,-0.9726,0.2255,0.0084,0.0009,0.0424,-0.0005,0.0083,0.0015,-2.5263,1.3378,3.0878
2024-10-11T12:36:14.098Z,0.0115,-0.9726,0.2274,0.0115,0.0010,0.0432,-0.0015,0.0090,0.0002,-2.5266,1.3378,3.0880
2024-10-11T12:36:14.107Z,0.0116,-0.9717,0.2290,0.0115,0.0010,0.0432,-0.0015,0.0090,0.0002,-2.5266,1.3378,3.0880
2024-10-11T12:36:14.117Z,0.0124,-0.9725,0.2284,0.0115,0.0010,0.0432,-0.0010,0.0083,0.0011,-2.5266,1.3378,3.0880
2024-10-11T12:36:14.126Z,0.0094,-0.9721,0.2279,0.0105,-0.0052,0.0269,0.0018,0.0089,0.0001,-2.5268,1.3380,3.0882
2024-10-11T12:36:14.137Z,0.0097,-0.9728,0.2303,0.0105,-0.0052,0.0269,0.0003,0.0083,0.0000,-2.5268,1.3380,3.0882
2024-10-11T12:36:14.146Z,0.0098,-0.9724,0.2295,0.0105,-0.0052,0.0269,0.0003,0.0083,0.0000,-2.5268,1.3380,3.0882
2024-10-11T12:36:14.156Z,0.0114,-0.9707,0.2286,0.0117,-0.0207,0.0055,-0.0002,0.0077,0.0012,-2.5270,1.3381,3.0884
2024-10-11T12:36:14.167Z,0.0108,-0.9723,0.2279,0.0117,-0.0207,0.0055,0.0027,0.0058,-0.0021,-2.5270,1.3381,3.0884
2024-10-11T12:36:14.176Z,0.0128,-0.9728,0.2270,0.0117,-0.0207,0.0055,0.0027,0.0058,-0.0021,-2.5270,1.3381,3.0884
2024-10-11T12:36:14.187Z,0.0133,-0.9722,0.2307,-0.0071,-0.0046,0.0083,-0.0011,0.0049,-0.0007,-2.5272,1.3381,3.0885
2024-10-11T12:36:14.198Z,0.0134,-0.9723,0.2306,-0.0071,-0.0046,0.0083,0.0025,0.0058,-0.0015,-2.5272,1.3381,3.0885
2024-10-11T12:36:14.206Z,0.0107,-0.9722,0.2312,-0.0071,-0.0046,0.0083,0.0025,0.0058,-0.0015,-2.5272,1.3381,3.0885
2024-10-11T12:36:14.217Z,0.0111,-0.9727,0.2323,0.0227,-0.0068,-0.0234,0.0016,0.0055,-0.0014,-2.5273,1.3381,3.0885
2024-10-11T12:36:14.227Z,0.0135,-0.9736,0.2326,0.0227,-0.0068,-0.0234,0.0011,0.0040,-0.0015,-2.5273,1.3381,3.0885
2024-10-11T12:36:14.237Z,0.0157,-0.9716,0.2336,0.0227,-0.0068,-0.0234,0.0015,0.0041,0.0012,-2.5273,1.3381,3.0885
2024-10-11T12:36:14.246Z,0.0155,-0.9710,0.2328,-0.0395,-0.0223,-0.0328,0.0015,0.0041,0.0012,-2.5276,1.3380,3.0886
2024-10-11T12:36:14.257Z,0.0131,-0.9707,0.2313,-0.0395,-0.0223,-0.0328,0.0014,0.0057,-0.0016,-2.5276,1.3380,3.0886
2024-10-11T12:36:14.267Z,0.0104,-0.9726,0.2343,-0.0395,-0.0223,-0.0328,0.0008,0.0048,-0.0017,-2.5276,1.3380,3.0886
2024-10-11T12:36:14.277Z,0.0113,-0.9736,0.2350,0.0171,0.0047,-0.0472,0.0010,0.0061,-0.0010,-2.5276,1.3380,3.0886
2024-10-11T12:36:14.287Z,0.0114,-0.9740,0.2330,0.0171,0.0047,-0.0472,0.0007,0.0083,-0.0031,-2.5276,1.3380,3.0886
2024-10-11T12:36:14.297Z,0.0107,-0.9752,0.2327,0.0171,0.0047,-0.0472,-0.0013,0.0063,0.0007,-2.5276,1.3380,3.0886
2024-10-11T12:36:14.307Z,0.0122,-0.9770,0.2328,0.0040,0.0358,-0.0274,-0.0013,0.0063,0.0007,-2.5277,1.3380,3.0887
2024-10-11T12:36:14.317Z,0.0098,-0.9778,0.2327,0.0040,0.0358,-0.0274,0.0000,0.0043,-0.0017,-2.5277,1.3380,3.0887
2024-10-11T12:36:14.326Z,0.0115,-0.9771,0.2330,0.0040,0.0358,-0.0274,0.0000,0.0043,-0.0017,-2.5277,1.3380,3.0887
2024-10-11T12:36:14.337Z,0.0100,-0.9755,0.2334,0.0174,0.0262,-0.0221,0.0001,0.0076,0.0009,-2.5275,1.3379,3.0884
2024-10-11T12:36:14.347Z,0.0106,-0.9754,0.2330,0.0174,0.0262,-0.0221,-0.0003,0.0062,-0.0004,-2.5275,1.3379,3.0884
2024-10-11T12:36:14.357Z,0.0102,-0.9734,0.2310,0.0174,0.0262,-0.0221,-0.0003,0.0062,-0.0004,-2.5275,1.3379,3.0884
2024-10-11T12:36:14.367Z,0.0130,-0.9706,0.2303,-0.0028,-0.0161,0.0069,-0.0039,0.0061,-0.0005,-2.5276,1.3379,3.0884
2024-10-11T12:36:14.377Z,0.0119,-0.9707,0.2319,-0.0028,-0.0161,0.0069,-0.0022,0.0061,-0.0014,-2.5276,1.3379,3.0884
2024-10-11T12:36:14.387Z,0.0110,-0.9698,0.2318,-0.0028,-0.0161,0.0069,-0.0016,0.0070,-0.0007,-2.5276,1.3379,3.0884
2024-10-11T12:36:14.397Z,0.0100,-0.9701,0.2334,0.0244,-0.0233,-0.0274,-0.0023,0.0084,-0.0030,-2.5276,1.3379,3.0883
2024-10-11T12:36:14.408Z,0.0116,-0.9713,0.2337,0.0244,-0.0233,-0.0274,-0.0017,0.0092,-0.0027,-2.5276,1.3379,3.0883
2024-10-11T12:36:14.417Z,0.0105,-0.9725,0.2351,0.0244,-0.0233,-0.0274,0.0005,0.0106,-0.0008,-2.5276,1.3379,3.0883
2024-10-11T12:36:14.427Z,0.0129,-0.9724,0.2329,0.0010,-0.0127,-0.0349,-0.0016,0.0120,-0.0018,-2.5276,1.3379,3.0884
2024-10-11T12:36:14.436Z,0.0120,-0.9722,0.2332,0.0010,-0.0127,-0.0349,-0.0038,0.0128,-0.0005,-2.5276,1.3379,3.0884
2024-10-11T12:36:14.447Z,0.0116,-0.9724,0.2348,0.0010,-0.0127,-0.0349,-0.0002,0.0118,-0.0002,-2.5276,1.3379,3.0884
2024-10-11T12:36:14.458Z,0.0111,-0.9734,0.2342,0.0152,0.0011,-0.0346,-0.0027,0.0107,-0.0006,-2.5275,1.3380,3.0884
2024-10-11T12:36:14.466Z,0.0096,-0.9720,0.2330,0.0152,0.0011,-0.0346,-0.0022,0.0123,-0.0015,-2.5275,1.3380,3.0884
2024-10-11T12:36:14.478Z,0.0101,-0.9728,0.2318,0.0152,0.0011,-0.0346,-0.0033,0.0128,0.0001,-2.5275,1.3380,3.0884
2024-10-11T12:36:14.487Z,0.0107,-0.9720,0.2302,0.0145,-0.0033,-0.0061,0.0005,0.0136,-0.0004,-2.5277,1.3379,3.0887
2024-10-11T12:36:14.497Z,0.0138,-0.9705,0.2303,0.0145,-0.0033,-0.0061,-0.0012,0.0137,-0.0004,-2.5277,1.3379,3.0887
2024-10-11T12:36:14.509Z,0.0122,-0.9718,0.2285,0.0145,-0.0033,-0.0061,-0.0004,0.0113,0.0009,-2.5277,1.3379,3.0887
2024-10-11T12:36:14.517Z,0.0124,-0.9712,0.2291,0.0019,-0.0184,0.0250,-0.0013,0.0122,-0.0021,-2.5279,1.3378,3.0890
2024-10-11T12:36:14.526Z,0.0103,-0.9706,0.2304,0.0019,-0.0184,0.0250,-0.0013,0.0122,-0.0021,-2.5279,1.3378,3.0890
2024-10-11T12:36:14.536Z,0.0122,-0.9702,0.2328,0.0019,-0.0184,0.0250,-0.0009,0.0144,-0.0021,-2.5279,1.3378,3.0890
2024-10-11T12:36:14.547Z,0.0119,-0.9708,0.2325,-0.0034,-0.0176,-0.0214,-0.0001,0.0147,-0.0005,-2.5281,1.3377,3.0893
2024-10-11T12:36:14.559Z,0.0103,-0.9720,0.2321,-0.0034,-0.0176,-0.0214,0.0022,0.0127,-0.0023,-2.5281,1.3377,3.0893
2024-10-11T12:36:14.567Z,0.0105,-0.9732,0.2321,-0.0034,-0.0176,-0.0214,-0.0005,0.0116,-0.0020,-2.5281,1.3377,3.0893
2024-10-11T12:36:14.577Z,0.0095,-0.9718,0.2305,0.0213,-0.0043,0.0008,0.0026,0.0108,-0.0022,-2.5280,1.3376,3.0894
2024-10-11T12:36:14.586Z,0.0106,-0.9746,0.2297,0.0213,-0.0043,0.0008,0.0028,0.0127,-0.0032,-2.5280,1.3376,3.0894
2024-10-11T12:36:14.596Z,0.0089,-0.9733,0.2305,0.0213,-0.0043,0.0008,0.0018,0.0124,-0.0036,-2.5280,1.3376,3.0894
2024-10-11T12:36:14.607Z,0.0098,-0.9719,0.2299,0.0264,-0.0036,0.0107,0.0014,0.0120,-0.0011,-2.5280,1.3376,3.0895
2024-10-11T12:36:14.616Z,0.0132,-0.9707,0.2300,0.0264,-0.0036,0.0107,0.0009,0.0136,-0.0034,-2.5280,1.3376,3.0895
2024-10-11T12:36:14.626Z,0.0149,-0.9704,0.2296,0.0264,-0.0036,0.0107,0.0031,0.0133,-0.0006,-2.5280,1.3376,3.0895
2024-10-11T12:36:14.636Z,0.0112,-0.9710,0.2303,-0.0079,-0.0115,0.0154,0.0030,0.0130,-0.0028,-2.5281,1.3374,3.0897
2024-10-11T12:36:14.646Z,0.0137,-0.9721,0.2306,-0.0079,-0.0115,0.0154,0.0029,0.0109,-0.0007,-2.5281,1.3374,3.0897
2024-10-11T12:36:14.656Z,0.0118,-0.9717,0.2325,-0.0079,-0.0115,0.0154,0.0012,0.0132,-0.0022,-2.5281,1.3374,3.0897
2024-10-11T12:36:14.666Z,0.0129,-0.9721,0.2313,-0.0077,-0.0143,-0.0024,0.0025,0.0114,-0.0035,-2.5285,1.3373,3.0902
2024-10-11T12:36:14.677Z,0.0140,-0.9736,0.2326,-0.0077,-0.0143,-0.0024,0.0032,0.0130,-0.0009,-2.5285,1.3373,3.0902
2024-10-11T12:36:14.686Z,0.0145,-0.9738,0.2318,-0.0077,-0.0143,-0.0024,0.0031,0.0117,-0.0001,-2.5285,1.3373,3.0902
2024-10-11T12:36:14.696Z,0.0145,-0.9750,0.2297,-0.0288,0.0067,0.0069,0.0033,0.0117,-0.0003,-2.5287,1.3373,3.0905
2024-10-11T12:36:14.707Z,0.0162,-0.9760,0.2293,-0.0288,0.0067,0.0069,0.0017,0.0127,-0.0015,-2.5287,1.3373,3.0905
2024-10-11T12:36:14.716Z,0.0107,-0.9764,0.2300,-0.0288,0.0067,0.0069,0.0032,0.0114,-0.0020,-2.5287,1.3373,3.0905
2024-10-11T12:36:14.727Z,0.0112,-0.9742,0.2281,0.0127,0.0183,0.0161,0.0032,0.0114,-0.0020,-2.5285,1.3372,3.0904
2024-10-11T12:36:14.736Z,0.0114,-0.9736,0.2290,0.0127,0.0183,0.0161,0.0054,0.0118,0.0000,-2.5285,1.3372,3.0904
2024-10-11T12:36:14.747Z,0.0130,-0.9731,0.2300,0.0127,0.0183,0.0161,0.0018,0.0093,-0.0029,-2.5285,1.3372,3.0904
2024-10-11T12:36:14.758Z,0.0133,-0.9707,0.2294,-0.0064,-0.0132,0.0134,0.0028,0.0102,-0.0028,-2.5281,1.3371,3.0901
2024-10-11T12:36:14.766Z,0.0162,-0.9712,0.2309,-0.0064,-0.0132,0.0134,0.0021,0.0103,-0.0019,-2.5281,1.3371,3.0901
2024-10-11T12:36:14.776Z,0.0129,-0.9699,0.2309,-0.0064,-0.0132,0.0134,0.0027,0.0092,-0.0018,-2.5281,1.3371,3.0901
2024-10-11T12:36:14.787Z,0.0103,-0.9721,0.2335,0.0141,-0.0224,-0.0090,0.0028,0.0107,-0.0022,-2.5276,1.3370,3.0896
2024-10-11T12:36:14.796Z,0.0115,-0.9716,0.2344,0.0141,-0.0224,-0.0090,0.0023,0.0088,-0.0029,-2.5276,1.3370,3.0896
2024-10-11T12:36:14.809Z,0.0114,-0.9725,0.2359,0.0141,-0.0224,-0.0090,0.0005,0.0110,-0.0034,-2.5276,1.3370,3.0896
