time,gFx,gFy,gFz,ax,ay,az,wx,wy,wz,yaw,pitch,roll
2024-10-11T14:10:18.385Z,0.0216,-0.9971,0.1213,0.0538,0.0146,-0.3133,0.0212,0.0707,0.0092,3.0017,1.4773,2.8473
2024-10-11T14:10:18.394Z,0.0421,-1.0048,0.1171,0.0538,0.0146,-0.3133,0.0198,0.0708,0.0083,3.0017,1.4773,2.8473
2024-10-11T14:10:18.405Z,0.0403,-1.0102,0.1110,-0.1336,0.1434,-0.2055,0.0201,0.0663,0.0097,2.9974,1.4767,2.8536
2024-10-11T14:10:18.415Z,0.0361,-1.0115,0.1120,-0.1336,0.1434,-0.2055,0.0168,0.0644,0.0079,2.9974,1.4767,2.8536
2024-10-11T14:10:18.425Z,0.0371,-1.0105,0.1104,-0.1336,0.1434,-0.2055,0.0153,0.0654,0.0068,2.9974,1.4767,2.8536
2024-10-11T14:10:18.435Z,0.0408,-1.0097,0.1070,-0.1416,0.1388,-0.1610,0.0117,0.0612,0.0055,2.9940,1.4763,2.8587
2024-10-11T14:10:18.445Z,0.0468,-1.0101,0.1096,-0.1416,0.1388,-0.1610,0.0108,0.0609,0.0090,2.9940,1.4763,2.8587
2024-10-11T14:10:18.455Z,0.0498,-1.0072,0.1130,-0.1416,0.1388,-0.1610,0.0081,0.0598,0.0072,2.9940,1.4763,2.8587
2024-10-11T14:10:18.465Z,0.0499,-1.0039,0.1089,-0.2350,0.0826,-0.1764,0.0081,0.0566,0.0084,2.9905,1.4761,2.8637
2024-10-11T14:10:18.475Z,0.0419,-1.0034,0.1058,-0.2350,0.0826,-0.1764,0.0001,0.0554,0.0083,2.9905,1.4761,2.8637
2024-10-11T14:10:18.485Z,0.0368,-1.0033,0.1029,-0.2350,0.0826,-0.1764,0.0019,0.0488,0.0096,2.9905,1.4761,2.8637
2024-10-11T14:10:18.495Z,0.0341,-1.0011,0.1063,-0.0837,0.0544,-0.1497,-0.0011,0.0463,0.0043,2.9875,1.4761,2.8679
2024-10-11T14:10:18.505Z,0.0281,-0.9965,0.1080,-0.0837,0.0544,-0.1497,0.0000,0.0448,0.0058,2.9875,1.4761,2.8679
2024-10-11T14:10:18.515Z,0.0220,-0.9962,0.1116,-0.0837,0.0544,-0.1497,-0.0027,0.0409,0.0042,2.9875,1.4761,2.8679
2024-10-11T14:10:18.525Z,0.0229,-0.9972,0.1058,0.0235,0.0164,-0.1448,-0.0027,0.0398,0.0020,2.9860,1.4762,2.8704
2024-10-11T14:10:18.535Z,0.0170,-0.9992,0.0977,0.0235,0.0164,-0.1448,-0.0005,0.0370,-0.0019,2.9860,1.4762,2.8704
2024-10-11T14:10:18.544Z,0.0124,-0.9995,0.0947,0.0235,0.0164,-0.1448,0.0001,0.0330,-0.0054,2.9860,1.4762,2.8704
2024-10-11T14:10:18.555Z,0.0042,-0.9998,0.0927,0.2071,0.0424,-0.0158,-0.0014,0.0335,-0.0077,2.9872,1.4761,2.8700
2024-10-11T14:10:18.565Z,0.0064,-1.0013,0.0896,0.2071,0.0424,-0.0158,-0.0011,0.0364,-0.0132,2.9872,1.4761,2.8700
2024-10-11T14:10:18.575Z,0.0063,-1.0037,0.0881,0.2071,0.0424,-0.0158,-0.0019,0.0349,-0.0160,2.9872,1.4761,2.8700
2024-10-11T14:10:18.585Z,-0.0007,-1.0042,0.0834,0.2594,0.0857,0.0763,0.0004,0.0324,-0.0214,2.9914,1.4760,2.8666
2024-10-11T14:10:18.595Z,-0.0019,-1.0033,0.0816,0.2594,0.0857,0.0763,0.0002,0.0307,-0.0236,2.9914,1.4760,2.8666
2024-10-11T14:10:18.605Z,0.0004,-1.0061,0.0801,0.2594,0.0857,0.0763,0.0025,0.0296,-0.0272,2.9914,1.4760,2.8666
2024-10-11T14:10:18.616Z,0.0083,-1.0042,0.0815,0.1771,0.0854,0.0953,0.0007,0.0315,-0.0297,2.9988,1.4757,2.8599
2024-10-11T14:10:18.625Z,0.0121,-1.0026,0.0860,0.1771,0.0854,0.0953,0.0008,0.0343,-0.0294,2.9988,1.4757,2.8599
2024-10-11T14:10:18.635Z,0.0133,-1.0023,0.0927,0.1771,0.0854,0.0953,-0.0006,0.0381,-0.0334,2.9988,1.4757,2.8599
2024-10-11T14:10:18.644Z,0.0136,-1.0039,0.0912,0.1335,0.0832,0.0004,-0.0002,0.0424,-0.0349,3.0080,1.4755,2.8517
2024-10-11T14:10:18.655Z,0.0157,-1.0048,0.0864,0.1335,0.0832,0.0004,0.0014,0.0458,-0.0326,3.0080,1.4755,2.8517
2024-10-11T14:10:18.665Z,0.0138,-1.0065,0.0854,0.1335,0.0832,0.0004,0.0003,0.0501,-0.0362,3.0080,1.4755,2.8517
2024-10-11T14:10:18.675Z,0.0185,-1.0068,0.0861,0.0935,0.1113,0.0507,-0.0022,0.0571,-0.0346,3.0178,1.4752,2.8432
2024-10-11T14:10:18.685Z,0.0239,-1.0070,0.0848,0.0935,0.1113,0.0507,-0.0022,0.0600,-0.0356,3.0178,1.4752,2.8432
2024-10-11T14:10:18.695Z,0.0308,-1.0043,0.0841,0.0935,0.1113,0.0507,-0.0011,0.0642,-0.0330,3.0178,1.4752,2.8432
2024-10-11T14:10:18.705Z,0.0368,-1.0008,0.0870,-0.0779,0.0525,0.0417,-0.0033,0.0719,-0.0320,3.0274,1.4750,2.8353
2024-10-11T14:10:18.715Z,0.0356,-0.9956,0.0861,-0.0779,0.0525,0.0417,-0.0066,0.0766,-0.0295,3.0274,1.4750,2.8353
2024-10-11T14:10:18.725Z,0.0326,-0.9946,0.0887,-0.0779,0.0525,0.0417,-0.0089,0.0759,-0.0277,3.0274,1.4750,2.8353
2024-10-11T14:10:18.735Z,0.0366,-0.9900,0.0912,-0.0694,-0.0529,-0.0001,-0.0100,0.0828,-0.0276,3.0360,1.4748,2.8287
2024-10-11T14:10:18.745Z,0.0370,-0.9890,0.0958,-0.0694,-0.0529,-0.0001,-0.0099,0.0840,-0.0234,3.0360,1.4748,2.8287
2024-10-11T14:10:18.754Z,0.0314,-0.9913,0.0987,-0.0694,-0.0529,-0.0001,-0.0131,0.0800,-0.0242,3.0360,1.4748,2.8287
2024-10-11T14:10:18.765Z,0.0271,-0.9835,0.0994,0.0292,-0.1166,-0.0830,-0.0147,0.0814,-0.0244,3.0444,1.4749,2.8225
2024-10-11T14:10:18.775Z,0.0254,-0.9839,0.0923,0.0292,-0.1166,-0.0830,-0.0151,0.0823,-0.0251,3.0444,1.4749,2.8225
2024-10-11T14:10:18.785Z,0.0323,-1.0103,0.0920,0.0292,-0.1166,-0.0830,-0.0114,0.0804,-0.0226,3.0444,1.4749,2.8225
2024-10-11T14:10:18.795Z,0.0394,-1.0089,0.0881,-0.0865,0.1326,0.0246,-0.0139,0.0824,-0.0234,3.0527,1.4751,2.8165
2024-10-11T14:10:18.805Z,0.0330,-1.0169,0.0954,-0.0865,0.1326,0.0246,-0.0132,0.0905,-0.0208,3.0527,1.4751,2.8165
2024-10-11T14:10:18.815Z,0.0353,-1.0123,0.0943,-0.0865,0.1326,0.0246,-0.0108,0.0904,-0.0146,3.0527,1.4751,2.8165
2024-10-11T14:10:18.827Z,0.0414,-1.0068,0.0930,-0.1040,0.1112,-0.0260,-0.0136,0.0942,-0.0155,3.0588,1.4752,2.8128
2024-10-11T14:10:18.835Z,0.0303,-1.0112,0.1048,-0.1040,0.1112,-0.0260,-0.0130,0.0987,-0.0124,3.0588,1.4752,2.8128
2024-10-11T14:10:18.845Z,0.0325,-1.0034,0.1054,-0.1040,0.1112,-0.0260,-0.0133,0.1030,-0.0106,3.0588,1.4752,2.8128
2024-10-11T14:10:18.855Z,0.0237,-1.0086,0.1131,0.0707,0.1292,-0.2265,-0.0134,0.1081,-0.0133,3.0636,1.4755,2.8109
2024-10-11T14:10:18.865Z,0.0271,-1.0053,0.1183,0.0707,0.1292,-0.2265,-0.0131,0.1088,-0.0108,3.0636,1.4755,2.8109
2024-10-11T14:10:18.875Z,0.0372,-1.0107,0.1200,0.0707,0.1292,-0.2265,-0.0143,0.1144,-0.0080,3.0636,1.4755,2.8109
2024-10-11T14:10:18.885Z,0.0369,-1.0121,0.1222,-0.0595,0.1633,-0.3186,-0.0136,0.1135,-0.0054,3.0670,1.4758,2.8107
2024-10-11T14:10:18.895Z,0.0350,-1.0101,0.1271,-0.0595,0.1633,-0.3186,-0.0127,0.1166,-0.0064,3.0670,1.4758,2.8107
2024-10-11T14:10:18.905Z,0.0400,-1.0099,0.1247,-0.0595,0.1633,-0.3186,-0.0142,0.1185,-0.0034,3.0670,1.4758,2.8107
2024-10-11T14:10:18.915Z,0.0457,-1.0085,0.1203,-0.1475,0.1272,-0.3021,-0.0150,0.1206,-0.0031,3.0690,1.4761,2.8119
2024-10-11T14:10:18.925Z,0.0474,-1.0047,0.1171,-0.1475,0.1272,-0.3021,-0.0138,0.1223,0.0001,3.0690,1.4761,2.8119
2024-10-11T14:10:18.935Z,0.0413,-1.0014,0.1141,-0.1475,0.1272,-0.3021,-0.0136,0.1225,0.0005,3.0690,1.4761,2.8119
2024-10-11T14:10:18.945Z,0.0364,-0.9953,0.1110,-0.0594,-0.0020,-0.2138,-0.0160,0.1225,0.0008,3.0703,1.4765,2.8140
2024-10-11T14:10:18.955Z,0.0367,-0.9938,0.1080,-0.0594,-0.0020,-0.2138,-0.0171,0.1214,0.0003,3.0703,1.4765,2.8140
2024-10-11T14:10:18.965Z,0.0384,-0.9947,0.1048,-0.0594,-0.0020,-0.2138,-0.0145,0.1181,-0.0013,3.0703,1.4765,2.8140
2024-10-11T14:10:18.976Z,0.0343,-0.9935,0.1000,-0.0428,-0.0205,-0.1091,-0.0149,0.1189,0.0003,3.0715,1.4769,2.8161
2024-10-11T14:10:18.985Z,0.0312,-0.9926,0.1035,-0.0428,-0.0205,-0.1091,-0.0172,0.1121,-0.0021,3.0715,1.4769,2.8161
2024-10-11T14:10:18.995Z,0.0249,-0.9907,0.1038,-0.0428,-0.0205,-0.1091,-0.0169,0.1081,-0.0041,3.0715,1.4769,2.8161
2024-10-11T14:10:19.005Z,0.0269,-0.9934,0.0973,0.0284,-0.0215,-0.0869,-0.0200,0.1040,-0.0074,3.0740,1.4773,2.8166
2024-10-11T14:10:19.015Z,0.0264,-0.9945,0.0985,0.0284,-0.0215,-0.0869,-0.0239,0.0855,-0.0113,3.0740,1.4773,2.8166
2024-10-11T14:10:19.027Z,0.0187,-0.9926,0.0961,0.1280,-0.0342,-0.0639,-0.0239,0.0855,-0.0113,3.0795,1.4778,2.8135
2024-10-11T14:10:19.035Z,0.0169,-0.9922,0.0944,0.1280,-0.0342,-0.0639,-0.0246,0.0803,-0.0152,3.0795,1.4778,2.8135
2024-10-11T14:10:19.045Z,0.0145,-0.9929,0.0889,0.1280,-0.0342,-0.0639,-0.0256,0.0771,-0.0200,3.0795,1.4778,2.8135
2024-10-11T14:10:19.055Z,0.0097,-0.9930,0.0851,0.1280,-0.0342,-0.0639,-0.0264,0.0714,-0.0248,3.0795,1.4778,2.8135
2024-10-11T14:10:19.066Z,0.0127,-0.9902,0.0852,0.1739,-0.0537,0.0203,-0.0295,0.0640,-0.0312,3.0887,1.4783,2.8063
2024-10-11T14:10:19.076Z,0.0196,-0.9875,0.0834,0.1739,-0.0537,0.0203,-0.0295,0.0640,-0.0312,3.0887,1.4783,2.8063
2024-10-11T14:10:19.086Z,0.0191,-0.9875,0.0835,0.1739,-0.0537,0.0203,-0.0303,0.0568,-0.0307,3.0887,1.4783,2.8063
2024-10-11T14:10:19.096Z,0.0196,-0.9856,0.0769,0.1132,-0.0999,0.0939,-0.0319,0.0573,-0.0362,3.1010,1.4788,2.7956
2024-10-11T14:10:19.106Z,0.0220,-0.9822,0.0718,0.1132,-0.0999,0.0939,-0.0305,0.0536,-0.0340,3.1010,1.4788,2.7956
2024-10-11T14:10:19.116Z,0.0271,-0.9749,0.0661,0.1132,-0.0999,0.0939,-0.0293,0.0557,-0.0332,3.1010,1.4788,2.7956
2024-10-11T14:10:19.127Z,0.0311,-0.9751,0.0605,0.0093,-0.2030,0.2471,-0.0293,0.0557,-0.0332,3.1146,1.4792,2.7835
2024-10-11T14:10:19.136Z,0.0369,-0.9730,0.0607,0.0093,-0.2030,0.2471,-0.0196,0.0586,-0.0298,3.1146,1.4792,2.7835
2024-10-11T14:10:19.146Z,0.0452,-0.9697,0.0631,0.0093,-0.2030,0.2471,-0.0168,0.0610,-0.0292,3.1146,1.4792,2.7835
2024-10-11T14:10:19.156Z,0.0482,-0.9686,0.0600,-0.1513,-0.2673,0.2469,-0.0095,0.0650,-0.0282,3.1261,1.4794,2.7735
2024-10-11T14:10:19.164Z,0.0480,-0.9702,0.0582,-0.1513,-0.2673,0.2469,-0.0095,0.0650,-0.0282,3.1261,1.4794,2.7735
2024-10-11T14:10:19.178Z,0.0464,-0.9694,0.0555,-0.1089,-0.2503,0.2398,-0.0032,0.0652,-0.0250,3.1347,1.4794,2.7666
2024-10-11T14:10:19.185Z,0.0445,-0.9703,0.0605,-0.1089,-0.2503,0.2398,-0.0032,0.0652,-0.0250,3.1347,1.4794,2.7666
2024-10-11T14:10:19.194Z,0.0499,-0.9707,0.0634,-0.1089,-0.2503,0.2398,-0.0005,0.0618,-0.0198,3.1347,1.4794,2.7666
2024-10-11T14:10:19.205Z,0.0475,-0.9708,0.0653,-0.1089,-0.2503,0.2398,0.0085,0.0623,-0.0162,3.1347,1.4794,2.7666
2024-10-11T14:10:19.215Z,0.0412,-0.9783,0.0636,-0.0727,-0.1716,0.2112,0.0106,0.0614,-0.0157,3.1399,1.4791,2.7632
2024-10-11T14:10:19.226Z,0.0419,-0.9826,0.0630,-0.0727,-0.1716,0.2112,0.0126,0.0627,-0.0131,3.1399,1.4791,2.7632
2024-10-11T14:10:19.235Z,0.0405,-0.9850,0.0667,-0.0727,-0.1716,0.2112,0.0136,0.0601,-0.0126,3.1399,1.4791,2.7632
2024-10-11T14:10:19.246Z,0.0377,-0.9867,0.0698,-0.0350,-0.0892,0.1546,0.0180,0.0579,-0.0106,-3.1409,1.4786,2.7623
2024-10-11T14:10:19.255Z,0.0369,-0.9936,0.0700,-0.0350,-0.0892,0.1546,0.0194,0.0569,-0.0116,-3.1409,1.4786,2.7623
2024-10-11T14:10:19.264Z,0.0318,-0.9988,0.0731,-0.0350,-0.0892,0.1546,0.0194,0.0569,-0.0116,-3.1409,1.4786,2.7623
2024-10-11T14:10:19.277Z,0.0261,-1.0031,0.0795,0.0799,0.0725,0.0654,0.0210,0.0530,-0.0102,-3.1400,1.4780,2.7629
2024-10-11T14:10:19.285Z,0.0227,-1.0045,0.0796,0.0799,0.0725,0.0654,0.0183,0.0494,-0.0109,-3.1400,1.4780,2.7629
2024-10-11T14:10:19.295Z,0.0269,-1.0052,0.0830,0.0799,0.0725,0.0654,0.0168,0.0489,-0.0086,-3.1400,1.4780,2.7629
2024-10-11T14:10:19.305Z,0.0291,-1.0054,0.0885,0.0529,0.0958,-0.0169,0.0149,0.0546,-0.0093,-3.1395,1.4773,2.7636
2024-10-11T14:10:19.315Z,0.0296,-1.0047,0.0993,0.0529,0.0958,-0.0169,0.0141,0.0509,-0.0086,-3.1395,1.4773,2.7636
2024-10-11T14:10:19.327Z,0.0233,-1.0025,0.1044,0.2156,0.0501,-0.1914,0.0107,0.0550,-0.0085,-3.1389,1.4769,2.7644
2024-10-11T14:10:19.335Z,0.0126,-1.0007,0.1067,0.2156,0.0501,-0.1914,0.0096,0.0598,-0.0082,-3.1389,1.4769,2.7644
2024-10-11T14:10:19.345Z,0.0079,-1.0031,0.1068,0.2156,0.0501,-0.1914,0.0053,0.0646,-0.0065,-3.1389,1.4769,2.7644
2024-10-11T14:10:19.356Z,0.0077,-1.0012,0.1115,0.2156,0.0501,-0.1914,0.0030,0.0709,-0.0070,-3.1389,1.4769,2.7644
2024-10-11T14:10:19.365Z,0.0064,-0.9958,0.1173,0.2768,0.0019,-0.2918,0.0021,0.0777,-0.0078,-3.1380,1.4765,2.7652
2024-10-11T14:10:19.375Z,0.0008,-0.9937,0.1211,0.2768,0.0019,-0.2918,0.0003,0.0866,-0.0050,-3.1380,1.4765,2.7652
2024-10-11T14:10:19.385Z,-0.0068,-0.9969,0.1210,0.2768,0.0019,-0.2918,-0.0027,0.0924,-0.0039,-3.1380,1.4765,2.7652
2024-10-11T14:10:19.395Z,-0.0052,-0.9949,0.1198,0.3896,-0.0068,-0.3158,-0.0099,0.1009,-0.0033,-3.1366,1.4765,2.7659
2024-10-11T14:10:19.405Z,0.0054,-0.9903,0.1143,0.3896,-0.0068,-0.3158,-0.0075,0.1064,-0.0031,-3.1366,1.4765,2.7659
2024-10-11T14:10:19.416Z,0.0015,-0.9862,0.1092,0.3772,-0.1327,-0.1856,-0.0103,0.1147,-0.0008,-3.1354,1.4766,2.7676
2024-10-11T14:10:19.425Z,-0.0041,-0.9820,0.1064,0.3772,-0.1327,-0.1856,-0.0123,0.1190,-0.0007,-3.1354,1.4766,2.7676
2024-10-11T14:10:19.435Z,-0.0101,-0.9795,0.1004,0.3772,-0.1327,-0.1856,-0.0152,0.1272,-0.0040,-3.1354,1.4766,2.7676
2024-10-11T14:10:19.444Z,-0.0181,-0.9794,0.0990,0.3772,-0.1327,-0.1856,-0.0152,0.1272,-0.0040,-3.1354,1.4766,2.7676
2024-10-11T14:10:19.455Z,-0.0200,-0.9728,0.0938,0.5304,-0.2233,-0.0643,-0.0129,0.1409,-0.0058,-3.1333,1.4770,2.7690
2024-10-11T14:10:19.466Z,-0.0208,-0.9710,0.0843,0.5304,-0.2233,-0.0643,-0.0169,0.1444,-0.0090,-3.1333,1.4770,2.7690
2024-10-11T14:10:19.475Z,-0.0172,-0.9678,0.0789,0.5304,-0.2233,-0.0643,-0.0117,0.1503,-0.0086,-3.1333,1.4770,2.7690
2024-10-11T14:10:19.485Z,-0.0107,-0.9663,0.0784,0.4376,-0.2875,0.0837,-0.0120,0.1575,-0.0089,-3.1300,1.4773,2.7697
2024-10-11T14:10:19.495Z,-0.0099,-0.9624,0.0783,0.4376,-0.2875,0.0837,-0.0098,0.1626,-0.0067,-3.1300,1.4773,2.7697
2024-10-11T14:10:19.505Z,-0.0072,-0.9607,0.0805,0.4376,-0.2875,0.0837,-0.0102,0.1708,-0.0088,-3.1300,1.4773,2.7697
2024-10-11T14:10:19.515Z,-0.0108,-0.9568,0.0796,0.4363,-0.3816,0.0704,-0.0096,0.1765,-0.0080,-3.1270,1.4776,2.7713
2024-10-11T14:10:19.525Z,-0.0085,-0.9507,0.0829,0.4363,-0.3816,0.0704,-0.0068,0.1835,-0.0076,-3.1270,1.4776,2.7713
2024-10-11T14:10:19.535Z,-0.0085,-0.9507,0.0829,0.4363,-0.3816,0.0704,-0.0053,0.1884,-0.0063,-3.1270,1.4776,2.7713
2024-10-11T14:10:19.545Z,-0.0125,-0.9508,0.0866,0.4503,-0.4401,0.0013,-0.0008,0.1958,-0.0096,-3.1243,1.4777,2.7738
2024-10-11T14:10:19.555Z,-0.0166,-0.9543,0.0922,0.4503,-0.4401,0.0013,-0.0021,0.2051,-0.0103,-3.1243,1.4777,2.7738
2024-10-11T14:10:19.565Z,-0.0166,-0.9543,0.0922,0.4503,-0.4401,0.0013,-0.0035,0.2131,-0.0133,-3.1243,1.4777,2.7738
2024-10-11T14:10:19.576Z,-0.0141,-0.9538,0.1039,0.4979,-0.3980,-0.1353,-0.0032,0.2186,-0.0129,-3.1212,1.4777,2.7765
2024-10-11T14:10:19.585Z,-0.0141,-0.9538,0.1039,0.4979,-0.3980,-0.1353,-0.0039,0.2276,-0.0132,-3.1212,1.4777,2.7765
2024-10-11T14:10:19.595Z,-0.0124,-0.9527,0.1020,0.4979,-0.3980,-0.1353,-0.0015,0.2351,-0.0142,-3.1212,1.4777,2.7765
2024-10-11T14:10:19.605Z,-0.0136,-0.9539,0.0994,0.4322,-0.4173,-0.1531,-0.0022,0.2475,-0.0144,-3.1174,1.4776,2.7793
2024-10-11T14:10:19.616Z,-0.0226,-0.9558,0.0952,0.4322,-0.4173,-0.1531,-0.0029,0.2557,-0.0180,-3.1174,1.4776,2.7793
2024-10-11T14:10:19.626Z,-0.0226,-0.9558,0.0952,0.5507,-0.4101,-0.0490,-0.0006,0.2639,-0.0193,-3.1125,1.4775,2.7817
2024-10-11T14:10:19.636Z,-0.0205,-0.9559,0.0908,0.5507,-0.4101,-0.0490,0.0026,0.2724,-0.0218,-3.1125,1.4775,2.7817
2024-10-11T14:10:19.645Z,-0.0205,-0.9559,0.0908,0.5507,-0.4101,-0.0490,0.0018,0.2810,-0.0220,-3.1125,1.4775,2.7817
2024-10-11T14:10:19.655Z,-0.0170,-0.9580,0.0894,0.5081,-0.3363,-0.0316,0.0066,0.2901,-0.0259,-3.1066,1.4772,2.7839
2024-10-11T14:10:19.665Z,-0.0191,-0.9613,0.0908,0.5081,-0.3363,-0.0316,0.0115,0.2995,-0.0246,-3.1066,1.4772,2.7839
2024-10-11T14:10:19.675Z,-0.0254,-0.9627,0.0909,0.5081,-0.3363,-0.0316,0.0113,0.3039,-0.0293,-3.1066,1.4772,2.7839
2024-10-11T14:10:19.685Z,-0.0275,-0.9663,0.0954,0.5081,-0.3363,-0.0316,0.0133,0.3116,-0.0309,-3.1066,1.4772,2.7839
2024-10-11T14:10:19.695Z,-0.0193,-0.9668,0.0996,0.5112,-0.2822,-0.1113,0.0126,0.3207,-0.0340,-3.0997,1.4765,2.7859
2024-10-11T14:10:19.705Z,-0.0195,-0.9693,0.0955,0.5112,-0.2822,-0.1113,0.0168,0.3216,-0.0354,-3.0997,1.4765,2.7859
2024-10-11T14:10:19.715Z,-0.0195,-0.9693,0.0955,0.5112,-0.2822,-0.1113,0.0180,0.3294,-0.0361,-3.0997,1.4765,2.7859
2024-10-11T14:10:19.725Z,-0.0142,-0.9721,0.0913,0.5057,-0.2509,-0.0334,0.0200,0.3329,-0.0378,-3.0913,1.4757,2.7869
2024-10-11T14:10:19.736Z,-0.0142,-0.9740,0.0902,0.5057,-0.2509,-0.0334,0.0226,0.3396,-0.0398,-3.0913,1.4757,2.7869
2024-10-11T14:10:19.745Z,-0.0142,-0.9740,0.0902,0.5057,-0.2509,-0.0334,0.0244,0.3458,-0.0394,-3.0913,1.4757,2.7869
2024-10-11T14:10:19.755Z,0.0003,-0.9703,0.0966,0.3989,-0.2333,-0.0317,0.0263,0.3507,-0.0414,-3.0826,1.4747,2.7881
2024-10-11T14:10:19.765Z,0.0003,-0.9703,0.0966,0.3989,-0.2333,-0.0317,0.0270,0.3584,-0.0386,-3.0826,1.4747,2.7881
2024-10-11T14:10:19.776Z,0.0004,-0.9695,0.0932,0.3363,-0.2721,-0.0487,0.0295,0.3651,-0.0381,-3.0745,1.4735,2.7904
2024-10-11T14:10:19.785Z,-0.0036,-0.9692,0.0994,0.3363,-0.2721,-0.0487,0.0309,0.3688,-0.0381,-3.0745,1.4735,2.7904
2024-10-11T14:10:19.795Z,-0.0036,-0.9692,0.0994,0.3363,-0.2721,-0.0487,0.0333,0.3754,-0.0370,-3.0745,1.4735,2.7904
2024-10-11T14:10:19.806Z,-0.0008,-0.9731,0.0999,0.2816,-0.1912,-0.0964,0.0375,0.3810,-0.0369,-3.0675,1.4721,2.7943
2024-10-11T14:10:19.815Z,0.0104,-0.9770,0.1049,0.2816,-0.1912,-0.0964,0.0417,0.3894,-0.0368,-3.0675,1.4721,2.7943
2024-10-11T14:10:19.825Z,0.0101,-0.9741,0.1067,0.2816,-0.1912,-0.0964,0.0435,0.3943,-0.0349,-3.0675,1.4721,2.7943
2024-10-11T14:10:19.836Z,0.0101,-0.9741,0.1067,0.1862,-0.2185,-0.1849,0.0464,0.4037,-0.0343,-3.0617,1.4706,2.8001
2024-10-11T14:10:19.845Z,0.0145,-0.9727,0.1131,0.1862,-0.2185,-0.1849,0.0450,0.4101,-0.0333,-3.0617,1.4706,2.8001
2024-10-11T14:10:19.855Z,0.0196,-0.9724,0.1131,0.1862,-0.2185,-0.1849,0.0446,0.4138,-0.0347,-3.0617,1.4706,2.8001
2024-10-11T14:10:19.866Z,0.0196,-0.9724,0.1131,0.1019,-0.1761,-0.1657,0.0451,0.4158,-0.0325,-3.0571,1.4689,2.8076
2024-10-11T14:10:19.875Z,0.0207,-0.9812,0.1156,0.1019,-0.1761,-0.1657,0.0448,0.4170,-0.0304,-3.0571,1.4689,2.8076
2024-10-11T14:10:19.885Z,0.0207,-0.9812,0.1156,0.1019,-0.1761,-0.1657,0.0463,0.4194,-0.0314,-3.0571,1.4689,2.8076
2024-10-11T14:10:19.896Z,0.0216,-0.9855,0.1184,0.1180,-0.0487,-0.2187,0.0463,0.4194,-0.0314,-3.0536,1.4673,2.8163
2024-10-11T14:10:19.905Z,0.0229,-0.9937,0.1228,0.1180,-0.0487,-0.2187,0.0463,0.4208,-0.0313,-3.0536,1.4673,2.8163
2024-10-11T14:10:19.915Z,0.0238,-0.9939,0.1250,0.1180,-0.0487,-0.2187,0.0440,0.4168,-0.0299,-3.0536,1.4673,2.8163
2024-10-11T14:10:19.925Z,0.0238,-0.9939,0.1250,0.0432,-0.0181,-0.3293,0.0430,0.4176,-0.0311,-3.0498,1.4657,2.8248
2024-10-11T14:10:19.935Z,0.0231,-0.9943,0.1409,0.0432,-0.0181,-0.3293,0.0402,0.4125,-0.0280,-3.0498,1.4657,2.8248
2024-10-11T14:10:19.945Z,0.0231,-0.9943,0.1409,0.0432,-0.0181,-0.3293,0.0361,0.4092,-0.0318,-3.0498,1.4657,2.8248
2024-10-11T14:10:19.956Z,0.0178,-0.9992,0.1489,0.1429,0.0473,-0.4681,0.0329,0.4023,-0.0306,-3.0449,1.4644,2.8321
2024-10-11T14:10:19.964Z,0.0208,-0.9992,0.1526,0.1429,0.0473,-0.4681,0.0296,0.4015,-0.0329,-3.0449,1.4644,2.8321
2024-10-11T14:10:19.975Z,0.0212,-0.9985,0.1565,0.1429,0.0473,-0.4681,0.0254,0.3985,-0.0325,-3.0449,1.4644,2.8321
2024-10-11T14:10:19.985Z,0.0212,-0.9985,0.1565,0.0674,0.0203,-0.5821,0.0240,0.3952,-0.0333,-3.0393,1.4633,2.8381
2024-10-11T14:10:19.995Z,0.0252,-0.9963,0.1617,0.0674,0.0203,-0.5821,0.0186,0.3927,-0.0298,-3.0393,1.4633,2.8381
2024-10-11T14:10:20.005Z,0.0216,-0.9942,0.1671,0.0674,0.0203,-0.5821,0.0139,0.3936,-0.0313,-3.0393,1.4633,2.8381
2024-10-11T14:10:20.015Z,0.0229,-0.9977,0.1680,0.0875,0.0350,-0.6353,0.0140,0.3907,-0.0320,-3.0328,1.4625,2.8431
2024-10-11T14:10:20.025Z,0.0205,-1.0025,0.1598,0.0875,0.0350,-0.6353,0.0118,0.3905,-0.0316,-3.0328,1.4625,2.8431
2024-10-11T14:10:20.035Z,0.0211,-1.0046,0.1600,0.0875,0.0350,-0.6353,0.0123,0.3928,-0.0309,-3.0328,1.4625,2.8431
2024-10-11T14:10:20.046Z,0.0211,-1.0046,0.1600,0.0519,0.1132,-0.5406,0.0139,0.3943,-0.0328,-3.0256,1.4619,2.8474
2024-10-11T14:10:20.055Z,0.0266,-1.0068,0.1546,0.0519,0.1132,-0.5406,0.0127,0.3969,-0.0323,-3.0256,1.4619,2.8474
2024-10-11T14:10:20.064Z,0.0326,-1.0075,0.1535,0.0519,0.1132,-0.5406,0.0133,0.4000,-0.0303,-3.0256,1.4619,2.8474
2024-10-11T14:10:20.075Z,0.0356,-1.0096,0.1518,-0.0435,0.1528,-0.4613,0.0106,0.4032,-0.0279,-3.0189,1.4613,2.8524
2024-10-11T14:10:20.085Z,0.0356,-1.0094,0.1493,-0.0435,0.1528,-0.4613,0.0081,0.4044,-0.0266,-3.0189,1.4613,2.8524
2024-10-11T14:10:20.095Z,0.0366,-1.0099,0.1458,-0.0435,0.1528,-0.4613,0.0106,0.4050,-0.0276,-3.0189,1.4613,2.8524
2024-10-11T14:10:20.106Z,0.0366,-1.0099,0.1458,-0.0238,0.1756,-0.3379,0.0084,0.4039,-0.0241,-3.0133,1.4608,2.8586
2024-10-11T14:10:20.115Z,0.0222,-1.0134,0.1318,-0.0238,0.1756,-0.3379,0.0100,0.4081,-0.0271,-3.0133,1.4608,2.8586
2024-10-11T14:10:20.125Z,0.0134,-1.0094,0.1305,-0.0238,0.1756,-0.3379,0.0107,0.4054,-0.0277,-3.0133,1.4608,2.8586
2024-10-11T14:10:20.136Z,0.0141,-1.0027,0.1301,0.1582,0.0865,-0.2349,0.0107,0.4054,-0.0277,-3.0072,1.4603,2.8645
2024-10-11T14:10:20.146Z,0.0135,-1.0021,0.1226,0.1582,0.0865,-0.2349,0.0146,0.4111,-0.0314,-3.0072,1.4603,2.8645
2024-10-11T14:10:20.155Z,0.0180,-1.0018,0.1152,0.1582,0.0865,-0.2349,0.0172,0.4114,-0.0325,-3.0072,1.4603,2.8645
2024-10-11T14:10:20.165Z,0.0180,-1.0018,0.1152,0.0720,0.0589,-0.0702,0.0213,0.4158,-0.0329,-3.0004,1.4595,2.8699
2024-10-11T14:10:20.174Z,0.0165,-1.0028,0.1117,0.0720,0.0589,-0.0702,0.0265,0.4209,-0.0349,-3.0004,1.4595,2.8699
2024-10-11T14:10:20.185Z,0.0164,-1.0003,0.1102,0.0720,0.0589,-0.0702,0.0276,0.4223,-0.0347,-3.0004,1.4595,2.8699
2024-10-11T14:10:20.196Z,0.0164,-1.0003,0.1102,0.1417,0.0589,-0.0907,0.0332,0.4276,-0.0370,-2.9938,1.4584,2.8757
2024-10-11T14:10:20.205Z,0.0156,-0.9979,0.1166,0.1417,0.0589,-0.0907,0.0349,0.4322,-0.0358,-2.9938,1.4584,2.8757
2024-10-11T14:10:20.215Z,0.0167,-0.9962,0.1140,0.1417,0.0589,-0.0907,0.0384,0.4343,-0.0347,-2.9938,1.4584,2.8757
2024-10-11T14:10:20.225Z,0.0156,-0.9960,0.1127,0.1328,0.0246,-0.0289,0.0416,0.4412,-0.0365,-2.9876,1.4570,2.8823
2024-10-11T14:10:20.235Z,0.0130,-0.9964,0.1150,0.1328,0.0246,-0.0289,0.0425,0.4459,-0.0359,-2.9876,1.4570,2.8823
2024-10-11T14:10:20.245Z,0.0119,-0.9998,0.1227,0.1328,0.0246,-0.0289,0.0474,0.4526,-0.0375,-2.9876,1.4570,2.8823
2024-10-11T14:10:20.255Z,0.0119,-0.9998,0.1227,0.1497,0.0870,-0.1505,0.0506,0.4591,-0.0360,-2.9820,1.4553,2.8900
2024-10-11T14:10:20.265Z,0.0123,-1.0070,0.1291,0.1497,0.0870,-0.1505,0.0538,0.4707,-0.0377,-2.9820,1.4553,2.8900
2024-10-11T14:10:20.275Z,0.0124,-1.0085,0.1281,0.1497,0.0870,-0.1505,0.0561,0.4792,-0.0367,-2.9820,1.4553,2.8900
2024-10-11T14:10:20.285Z,0.0119,-1.0085,0.1326,0.1596,0.1513,-0.1864,0.0553,0.4890,-0.0379,-2.9764,1.4534,2.8985
2024-10-11T14:10:20.296Z,0.0115,-1.0092,0.1405,0.1596,0.1513,-0.1864,0.0564,0.4956,-0.0369,-2.9764,1.4534,2.8985
2024-10-11T14:10:20.305Z,0.0139,-1.0124,0.1450,0.1596,0.1513,-0.1864,0.0569,0.5052,-0.0373,-2.9764,1.4534,2.8985
2024-10-11T14:10:20.315Z,0.0139,-1.0124,0.1450,0.1580,0.2416,-0.3158,0.0594,0.5162,-0.0362,-2.9710,1.4515,2.9079
2024-10-11T14:10:20.325Z,0.0100,-1.0215,0.1497,0.1580,0.2416,-0.3158,0.0567,0.5238,-0.0383,-2.9710,1.4515,2.9079
2024-10-11T14:10:20.335Z,0.0104,-1.0266,0.1494,0.1580,0.2416,-0.3158,0.0588,0.5340,-0.0348,-2.9710,1.4515,2.9079
2024-10-11T14:10:20.347Z,0.0104,-1.0266,0.1494,0.1598,0.3457,-0.3529,0.0576,0.5440,-0.0376,-2.9656,1.4495,2.9182
2024-10-11T14:10:20.355Z,0.0050,-1.0293,0.1580,0.1598,0.3457,-0.3529,0.0584,0.5526,-0.0375,-2.9656,1.4495,2.9182
2024-10-11T14:10:20.365Z,0.0038,-1.0310,0.1657,0.1598,0.3457,-0.3529,0.0560,0.5600,-0.0413,-2.9656,1.4495,2.9182
2024-10-11T14:10:20.375Z,0.0059,-1.0343,0.1722,0.1969,0.4108,-0.5109,0.0513,0.5692,-0.0397,-2.9596,1.4476,2.9287
2024-10-11T14:10:20.385Z,0.0049,-1.0369,0.1757,0.1969,0.4108,-0.5109,0.0486,0.5711,-0.0400,-2.9596,1.4476,2.9287
2024-10-11T14:10:20.395Z,0.0033,-1.0388,0.1787,0.1969,0.4108,-0.5109,0.0471,0.5797,-0.0425,-2.9596,1.4476,2.9287
2024-10-11T14:10:20.405Z,0.0066,-1.0427,0.1797,0.1819,0.4956,-0.5665,0.0445,0.5860,-0.0460,-2.9522,1.4460,2.9384
2024-10-11T14:10:20.414Z,0.0104,-1.0460,0.1806,0.1819,0.4956,-0.5665,0.0398,0.5959,-0.0440,-2.9522,1.4460,2.9384
2024-10-11T14:10:20.425Z,0.0144,-1.0463,0.1889,0.1819,0.4956,-0.5665,0.0368,0.6063,-0.0445,-2.9522,1.4460,2.9384
2024-10-11T14:10:20.435Z,0.0165,-1.0508,0.1959,0.0759,0.5763,-0.7106,0.0297,0.6125,-0.0462,-2.9437,1.4446,2.9478
2024-10-11T14:10:20.445Z,0.0070,-1.0523,0.1983,0.0759,0.5763,-0.7106,0.0227,0.6223,-0.0456,-2.9437,1.4446,2.9478
2024-10-11T14:10:20.455Z,0.0044,-1.0544,0.2001,0.0759,0.5763,-0.7106,0.0223,0.6299,-0.0504,-2.9437,1.4446,2.9478
2024-10-11T14:10:20.464Z,0.0044,-1.0544,0.2001,0.1768,0.5782,-0.7450,0.0198,0.6322,-0.0519,-2.9338,1.4436,2.9564
2024-10-11T14:10:20.475Z,0.0057,-1.0492,0.2077,0.1768,0.5782,-0.7450,0.0103,0.6402,-0.0537,-2.9338,1.4436,2.9564
2024-10-11T14:10:20.485Z,0.0113,-1.0492,0.2066,0.1768,0.5782,-0.7450,0.0079,0.6454,-0.0574,-2.9338,1.4436,2.9564
2024-10-11T14:10:20.495Z,0.0113,-1.0492,0.2066,0.1639,0.6373,-0.7251,0.0017,0.6510,-0.0606,-2.9222,1.4430,2.9640
2024-10-11T14:10:20.505Z,0.0080,-1.0605,0.1889,0.1639,0.6373,-0.7251,-0.0010,0.6548,-0.0604,-2.9222,1.4430,2.9640
2024-10-11T14:10:20.515Z,0.0138,-1.0629,0.1796,0.1639,0.6373,-0.7251,-0.0029,0.6598,-0.0619,-2.9222,1.4430,2.9640
2024-10-11T14:10:20.525Z,0.0130,-1.0633,0.1753,0.0853,0.7016,-0.4842,-0.0051,0.6656,-0.0628,-2.9094,1.4427,2.9707
2024-10-11T14:10:20.535Z,0.0126,-1.0641,0.1680,0.0853,0.7016,-0.4842,-0.0075,0.6712,-0.0675,-2.9094,1.4427,2.9707
2024-10-11T14:10:20.546Z,0.0132,-1.0629,0.1649,0.0853,0.7016,-0.4842,-0.0110,0.6761,-0.0657,-2.9094,1.4427,2.9707
2024-10-11T14:10:20.555Z,0.0161,-1.0670,0.1597,0.0489,0.7383,-0.3285,-0.0145,0.6809,-0.0691,-2.8946,1.4425,2.9760
2024-10-11T14:10:20.565Z,0.0154,-1.0671,0.1535,0.0489,0.7383,-0.3285,-0.0116,0.6839,-0.0675,-2.8946,1.4425,2.9760
2024-10-11T14:10:20.575Z,0.0181,-1.0649,0.1530,0.0489,0.7383,-0.3285,-0.0130,0.6874,-0.0674,-2.8946,1.4425,2.9760
2024-10-11T14:10:20.585Z,0.0242,-1.0619,0.1510,-0.0370,0.6874,-0.2426,-0.0134,0.6903,-0.0644,-2.8796,1.4425,2.9814
2024-10-11T14:10:20.596Z,0.0212,-1.0608,0.1466,-0.0370,0.6874,-0.2426,-0.0150,0.6938,-0.0634,-2.8796,1.4425,2.9814
2024-10-11T14:10:20.605Z,0.0175,-1.0583,0.1506,-0.0370,0.6874,-0.2426,-0.0159,0.6954,-0.0617,-2.8796,1.4425,2.9814
2024-10-11T14:10:20.615Z,0.0124,-1.0551,0.1496,0.0704,0.6207,-0.2291,-0.0198,0.6940,-0.0587,-2.8650,1.4427,2.9875
2024-10-11T14:10:20.625Z,0.0119,-1.0550,0.1433,0.0704,0.6207,-0.2291,-0.0259,0.6945,-0.0587,-2.8650,1.4427,2.9875
2024-10-11T14:10:20.635Z,0.0177,-1.0562,0.1418,0.0704,0.6207,-0.2291,-0.0303,0.6927,-0.0542,-2.8650,1.4427,2.9875
2024-10-11T14:10:20.646Z,0.0177,-1.0562,0.1418,-0.0381,0.6252,-0.1608,-0.0345,0.6932,-0.0549,-2.8510,1.4432,2.9942
2024-10-11T14:10:20.655Z,0.0258,-1.0520,0.1365,-0.0381,0.6252,-0.1608,-0.0340,0.6895,-0.0503,-2.8510,1.4432,2.9942
2024-10-11T14:10:20.664Z,0.0271,-1.0439,0.1279,-0.0381,0.6252,-0.1608,-0.0331,0.6868,-0.0436,-2.8510,1.4432,2.9942
2024-10-11T14:10:20.675Z,0.0255,-1.0380,0.1251,-0.0780,0.4517,0.0006,-0.0353,0.6838,-0.0426,-2.8389,1.4441,3.0025
2024-10-11T14:10:20.685Z,0.0335,-1.0397,0.1241,-0.0780,0.4517,0.0006,-0.0353,0.6791,-0.0412,-2.8389,1.4441,3.0025
2024-10-11T14:10:20.695Z,0.0334,-1.0411,0.1218,-0.0780,0.4517,0.0006,-0.0341,0.6764,-0.0361,-2.8389,1.4441,3.0025
2024-10-11T14:10:20.705Z,0.0282,-1.0423,0.1226,-0.1185,0.4928,0.0187,-0.0361,0.6729,-0.0378,-2.8291,1.4449,3.0127
2024-10-11T14:10:20.715Z,0.0328,-1.0415,0.1286,-0.1185,0.4928,0.0187,-0.0354,0.6631,-0.0346,-2.8291,1.4449,3.0127
2024-10-11T14:10:20.725Z,0.0433,-1.0414,0.1351,-0.1185,0.4928,0.0187,-0.0332,0.6575,-0.0273,-2.8291,1.4449,3.0127
2024-10-11T14:10:20.735Z,0.0477,-1.0401,0.1389,-0.3260,0.4698,-0.1476,-0.0327,0.6501,-0.0216,-2.8218,1.4458,3.0249
2024-10-11T14:10:20.745Z,0.0472,-1.0363,0.1389,-0.3260,0.4698,-0.1476,-0.0372,0.6382,-0.0179,-2.8218,1.4458,3.0249
2024-10-11T14:10:20.755Z,0.0474,-1.0333,0.1448,-0.3260,0.4698,-0.1476,-0.0434,0.6329,-0.0126,-2.8218,1.4458,3.0249
2024-10-11T14:10:20.766Z,0.0514,-1.0294,0.1448,-0.3805,0.3635,-0.2145,-0.0441,0.6246,-0.0122,-2.8176,1.4469,3.0395
2024-10-11T14:10:20.775Z,0.0525,-1.0302,0.1384,-0.3805,0.3635,-0.2145,-0.0465,0.6139,-0.0093,-2.8176,1.4469,3.0395
2024-10-11T14:10:20.785Z,0.0493,-1.0342,0.1259,-0.3805,0.3635,-0.2145,-0.0481,0.6038,-0.0067,-2.8176,1.4469,3.0395
2024-10-11T14:10:20.797Z,0.0471,-1.0345,0.1163,-0.3574,0.4125,0.0542,-0.0475,0.5915,-0.0063,-2.8146,1.4482,3.0544
2024-10-11T14:10:20.805Z,0.0508,-1.0331,0.1127,-0.3574,0.4125,0.0542,-0.0491,0.5776,-0.0044,-2.8146,1.4482,3.0544
2024-10-11T14:10:20.815Z,0.0569,-1.0291,0.1112,-0.3574,0.4125,0.0542,-0.0470,0.5700,-0.0035,-2.8146,1.4482,3.0544
2024-10-11T14:10:20.825Z,0.0556,-1.0289,0.1042,-0.4600,0.3559,0.1605,-0.0468,0.5554,-0.0003,-2.8129,1.4496,3.0696
2024-10-11T14:10:20.835Z,0.0544,-1.0274,0.1023,-0.4600,0.3559,0.1605,-0.0467,0.5431,-0.0028,-2.8129,1.4496,3.0696
2024-10-11T14:10:20.845Z,0.0577,-1.0235,0.0981,-0.4600,0.3559,0.1605,-0.0461,0.5342,-0.0029,-2.8129,1.4496,3.0696
2024-10-11T14:10:20.855Z,0.0640,-1.0173,0.0971,-0.5610,0.2404,0.2186,-0.0428,0.5213,-0.0003,-2.8120,1.4510,3.0845
2024-10-11T14:10:20.865Z,0.0681,-1.0108,0.1012,-0.5610,0.2404,0.2186,-0.0420,0.5104,0.0030,-2.8120,1.4510,3.0845
2024-10-11T14:10:20.875Z,0.0640,-1.0062,0.1036,-0.5610,0.2404,0.2186,-0.0434,0.4957,0.0035,-2.8120,1.4510,3.0845
2024-10-11T14:10:20.885Z,0.0630,-1.0044,0.1069,-0.5691,0.1122,0.1109,-0.0414,0.4802,0.0062,-2.8126,1.4522,3.0998
2024-10-11T14:10:20.896Z,0.0722,-1.0073,0.1028,-0.5691,0.1122,0.1109,-0.0397,0.4605,0.0092,-2.8126,1.4522,3.0998
2024-10-11T14:10:20.905Z,0.0757,-1.0119,0.0999,-0.5691,0.1122,0.1109,-0.0400,0.4427,0.0151,-2.8126,1.4522,3.0998
2024-10-11T14:10:20.915Z,0.0757,-1.0119,0.0999,-0.6603,0.2220,0.2177,-0.0415,0.4259,0.0227,-2.8163,1.4534,3.1166
2024-10-11T14:10:20.925Z,0.0656,-1.0149,0.0901,-0.6603,0.2220,0.2177,-0.0450,0.4122,0.0225,-2.8163,1.4534,3.1166
2024-10-11T14:10:20.935Z,0.0605,-1.0105,0.0920,-0.6603,0.2220,0.2177,-0.0446,0.3961,0.0264,-2.8163,1.4534,3.1166
2024-10-11T14:10:20.946Z,0.0538,-1.0094,0.0932,-0.5207,0.1579,0.2218,-0.0497,0.3901,0.0272,-2.8232,1.4548,3.1352
2024-10-11T14:10:20.955Z,0.0482,-1.0072,0.0927,-0.5207,0.1579,0.2218,-0.0547,0.3820,0.0330,-2.8232,1.4548,3.1352
2024-10-11T14:10:20.965Z,0.0422,-1.0042,0.0934,-0.5207,0.1579,0.2218,-0.0548,0.3736,0.0342,-2.8232,1.4548,3.1352
2024-10-11T14:10:20.974Z,0.0364,-0.9991,0.0912,-0.3728,0.0552,0.2244,-0.0643,0.3648,0.0376,-2.8327,1.4564,-3.1275
2024-10-11T14:10:20.984Z,0.0300,-0.9894,0.0938,-0.3728,0.0552,0.2244,-0.0690,0.3596,0.0409,-2.8327,1.4564,-3.1275
2024-10-11T14:10:20.995Z,0.0226,-0.9756,0.1015,-0.3728,0.0552,0.2244,-0.0754,0.3552,0.0402,-2.8327,1.4564,-3.1275
2024-10-11T14:10:21.005Z,0.0089,-0.9650,0.1039,-0.1266,-0.2822,0.0782,-0.0847,0.3568,0.0384,-2.8438,1.4586,-3.1060
2024-10-11T14:10:21.015Z,-0.0060,-0.9606,0.0978,-0.1266,-0.2822,0.0782,-0.0853,0.3673,0.0358,-2.8438,1.4586,-3.1060
2024-10-11T14:10:21.025Z,-0.0127,-0.9645,0.0848,-0.1266,-0.2822,0.0782,-0.0882,0.3695,0.0291,-2.8438,1.4586,-3.1060
2024-10-11T14:10:21.035Z,-0.0154,-0.9622,0.0755,0.0903,-0.3119,0.3310,-0.0900,0.3781,0.0286,-2.8538,1.4612,-3.0853
2024-10-11T14:10:21.047Z,-0.0188,-0.9521,0.0730,0.0903,-0.3119,0.3310,-0.0878,0.3810,0.0270,-2.8538,1.4612,-3.0853
2024-10-11T14:10:21.055Z,-0.0315,-0.9458,0.0647,0.0903,-0.3119,0.3310,-0.0931,0.3877,0.0225,-2.8538,1.4612,-3.0853
2024-10-11T14:10:21.065Z,-0.0403,-0.9397,0.0585,0.3159,-0.5355,0.4708,-0.0891,0.3937,0.0181,-2.8621,1.4638,-3.0657
2024-10-11T14:10:21.075Z,-0.0400,-0.9374,0.0501,0.3159,-0.5355,0.4708,-0.0889,0.4043,0.0137,-2.8621,1.4638,-3.0657
2024-10-11T14:10:21.085Z,-0.0427,-0.9420,0.0427,0.3159,-0.5355,0.4708,-0.0854,0.4132,0.0099,-2.8621,1.4638,-3.0657
2024-10-11T14:10:21.096Z,-0.0377,-0.9413,0.0380,0.2748,-0.5223,0.6460,-0.0792,0.4207,0.0058,-2.8674,1.4663,-3.0484
2024-10-11T14:10:21.105Z,-0.0351,-0.9370,0.0376,0.2748,-0.5223,0.6460,-0.0751,0.4312,0.0016,-2.8674,1.4663,-3.0484
2024-10-11T14:10:21.115Z,-0.0352,-0.9279,0.0424,0.2748,-0.5223,0.6460,-0.0686,0.4361,-0.0020,-2.8674,1.4663,-3.0484
2024-10-11T14:10:21.124Z,-0.0381,-0.9180,0.0515,0.2659,-0.7532,0.4916,-0.0639,0.4415,-0.0045,-2.8694,1.4684,-3.0337
2024-10-11T14:10:21.135Z,-0.0386,-0.9106,0.0562,0.2659,-0.7532,0.4916,-0.0619,0.4443,-0.0117,-2.8694,1.4684,-3.0337
2024-10-11T14:10:21.145Z,-0.0372,-0.9033,0.0601,0.2659,-0.7532,0.4916,-0.0559,0.4489,-0.0183,-2.8694,1.4684,-3.0337
2024-10-11T14:10:21.155Z,-0.0355,-0.8968,0.0630,0.2321,-0.9627,0.3612,-0.0532,0.4505,-0.0205,-2.8666,1.4701,-3.0233
2024-10-11T14:10:21.165Z,-0.0340,-0.8900,0.0641,0.2321,-0.9627,0.3612,-0.0494,0.4521,-0.0294,-2.8666,1.4701,-3.0233
2024-10-11T14:10:21.174Z,-0.0330,-0.8882,0.0601,0.2321,-0.9627,0.3612,-0.0422,0.4509,-0.0387,-2.8666,1.4701,-3.0233
2024-10-11T14:10:21.185Z,-0.0282,-0.8892,0.0568,0.1576,-1.0386,0.4073,-0.0388,0.4533,-0.0461,-2.8576,1.4716,-3.0189
2024-10-11T14:10:21.196Z,-0.0223,-0.8884,0.0640,0.1576,-1.0386,0.4073,-0.0344,0.4477,-0.0529,-2.8576,1.4716,-3.0189
2024-10-11T14:10:21.205Z,-0.0173,-0.8887,0.0666,0.1576,-1.0386,0.4073,-0.0278,0.4444,-0.0582,-2.8576,1.4716,-3.0189
2024-10-11T14:10:21.215Z,-0.0117,-0.8923,0.0647,-0.0008,-1.0091,0.3196,-0.0229,0.4349,-0.0639,-2.8419,1.4726,-3.0215
2024-10-11T14:10:21.224Z,-0.0072,-0.8943,0.0644,-0.0008,-1.0091,0.3196,-0.0151,0.4272,-0.0698,-2.8419,1.4726,-3.0215
2024-10-11T14:10:21.235Z,0.0000,-0.8921,0.0691,-0.0008,-1.0091,0.3196,-0.0123,0.4165,-0.0721,-2.8419,1.4726,-3.0215
2024-10-11T14:10:21.246Z,0.0113,-0.8926,0.0736,-0.2177,-1.0069,0.2273,-0.0033,0.4060,-0.0757,-2.8213,1.4733,-3.0297
2024-10-11T14:10:21.255Z,0.0250,-0.8888,0.0783,-0.2177,-1.0069,0.2273,0.0008,0.3965,-0.0770,-2.8213,1.4733,-3.0297
2024-10-11T14:10:21.264Z,0.0375,-0.8898,0.0749,-0.2177,-1.0069,0.2273,0.0025,0.3862,-0.0789,-2.8213,1.4733,-3.0297
2024-10-11T14:10:21.274Z,0.0393,-0.8871,0.0794,-0.4806,-1.0614,0.1704,0.0057,0.3767,-0.0789,-2.7982,1.4734,-3.0413
2024-10-11T14:10:21.285Z,0.0427,-0.8842,0.0807,-0.4806,-1.0614,0.1704,0.0132,0.3652,-0.0812,-2.7982,1.4734,-3.0413
2024-10-11T14:10:21.296Z,0.0443,-0.8871,0.0818,-0.4806,-1.0614,0.1704,0.0157,0.3491,-0.0815,-2.7982,1.4734,-3.0413
2024-10-11T14:10:21.305Z,0.0407,-0.8919,0.0815,-0.4818,-1.0137,0.1533,0.0210,0.3321,-0.0823,-2.7735,1.4732,-3.0556
2024-10-11T14:10:21.315Z,0.0407,-0.8954,0.0859,-0.4818,-1.0137,0.1533,0.0209,0.3189,-0.0828,-2.7735,1.4732,-3.0556
2024-10-11T14:10:21.325Z,0.0400,-0.8989,0.0879,-0.4818,-1.0137,0.1533,0.0224,0.3014,-0.0855,-2.7735,1.4732,-3.0556
2024-10-11T14:10:21.335Z,0.0375,-0.9058,0.0892,-0.4340,-0.8766,0.0831,0.0261,0.2843,-0.0868,-2.7473,1.4727,-3.0727
2024-10-11T14:10:21.346Z,0.0368,-0.9145,0.0925,-0.4340,-0.8766,0.0831,0.0292,0.2662,-0.0930,-2.7473,1.4727,-3.0727
2024-10-11T14:10:21.355Z,0.0320,-0.9177,0.0947,-0.4340,-0.8766,0.0831,0.0289,0.2484,-0.0938,-2.7473,1.4727,-3.0727
2024-10-11T14:10:21.365Z,0.0303,-0.9209,0.0912,-0.3433,-0.7278,0.0721,0.0323,0.2324,-0.0997,-2.7183,1.4720,-3.0943
2024-10-11T14:10:21.375Z,0.0340,-0.9243,0.0878,-0.3433,-0.7278,0.0721,0.0300,0.2143,-0.1045,-2.7183,1.4720,-3.0943
2024-10-11T14:10:21.385Z,0.0388,-0.9264,0.0947,-0.3433,-0.7278,0.0721,0.0340,0.1944,-0.1076,-2.7183,1.4720,-3.0943
2024-10-11T14:10:21.396Z,0.0448,-0.9298,0.1007,-0.4594,-0.6397,-0.0116,0.0355,0.1729,-0.1089,-2.6859,1.4711,-3.1208
2024-10-11T14:10:21.405Z,0.0484,-0.9303,0.1043,-0.4594,-0.6397,-0.0116,0.0326,0.1577,-0.1137,-2.6859,1.4711,-3.1208
2024-10-11T14:10:21.415Z,0.0566,-0.9292,0.1058,-0.4594,-0.6397,-0.0116,0.0334,0.1333,-0.1111,-2.6859,1.4711,-3.1208
2024-10-11T14:10:21.425Z,0.0627,-0.9293,0.1103,-0.6071,-0.6440,-0.0957,0.0330,0.1165,-0.1140,-2.6525,1.4701,3.1330
2024-10-11T14:10:21.435Z,0.0663,-0.9311,0.1165,-0.6071,-0.6440,-0.0957,0.0335,0.0931,-0.1121,-2.6525,1.4701,3.1330
2024-10-11T14:10:21.445Z,0.0592,-0.9311,0.1158,-0.6071,-0.6440,-0.0957,0.0334,0.0738,-0.1158,-2.6525,1.4701,3.1330
2024-10-11T14:10:21.455Z,0.0590,-0.9322,0.1162,-0.5396,-0.6145,-0.1443,0.0303,0.0571,-0.1130,-2.6194,1.4690,3.1023
2024-10-11T14:10:21.465Z,0.0679,-0.9329,0.1185,-0.5396,-0.6145,-0.1443,0.0310,0.0369,-0.1100,-2.6194,1.4690,3.1023
2024-10-11T14:10:21.475Z,0.0681,-0.9359,0.1203,-0.5396,-0.6145,-0.1443,0.0322,0.0166,-0.1109,-2.6194,1.4690,3.1023
2024-10-11T14:10:21.484Z,0.0683,-0.9371,0.1187,-0.5995,-0.5655,-0.1589,0.0327,-0.0040,-0.1059,-2.5880,1.4679,3.0714
2024-10-11T14:10:21.495Z,0.0681,-0.9403,0.1164,-0.5995,-0.5655,-0.1589,0.0294,-0.0219,-0.1064,-2.5880,1.4679,3.0714
2024-10-11T14:10:21.504Z,0.0658,-0.9440,0.1173,-0.5995,-0.5655,-0.1589,0.0316,-0.0419,-0.1041,-2.5880,1.4679,3.0714
2024-10-11T14:10:21.515Z,0.0674,-0.9434,0.1194,-0.5588,-0.5024,-0.1577,0.0293,-0.0646,-0.1021,-2.5586,1.4667,3.0409
2024-10-11T14:10:21.525Z,0.0702,-0.9473,0.1217,-0.5588,-0.5024,-0.1577,0.0275,-0.0823,-0.0980,-2.5586,1.4667,3.0409
2024-10-11T14:10:21.535Z,0.0738,-0.9451,0.1266,-0.5588,-0.5024,-0.1577,0.0237,-0.1033,-0.0958,-2.5586,1.4667,3.0409
2024-10-11T14:10:21.545Z,0.0732,-0.9478,0.1215,-0.5841,-0.4584,-0.1706,0.0215,-0.1221,-0.0928,-2.5323,1.4657,3.0115
2024-10-11T14:10:21.555Z,0.0722,-0.9508,0.1162,-0.5841,-0.4584,-0.1706,0.0197,-0.1389,-0.0886,-2.5323,1.4657,3.0115
2024-10-11T14:10:21.565Z,0.0805,-0.9514,0.1134,-0.5841,-0.4584,-0.1706,0.0165,-0.1573,-0.0872,-2.5323,1.4657,3.0115
2024-10-11T14:10:21.575Z,0.0837,-0.9518,0.1142,-0.6579,-0.4176,-0.0953,0.0153,-0.1761,-0.0798,-2.5093,1.4648,2.9838
2024-10-11T14:10:21.585Z,0.0808,-0.9547,0.1136,-0.6579,-0.4176,-0.0953,0.0134,-0.1867,-0.0775,-2.5093,1.4648,2.9838
2024-10-11T14:10:21.594Z,0.0849,-0.9588,0.1087,-0.6579,-0.4176,-0.0953,0.0108,-0.2033,-0.0710,-2.5093,1.4648,2.9838
2024-10-11T14:10:21.605Z,0.0956,-0.9603,0.1053,-0.7469,-0.3339,-0.0052,0.0115,-0.2205,-0.0680,-2.4900,1.4640,2.9584
2024-10-11T14:10:21.614Z,0.0962,-0.9578,0.0996,-0.7469,-0.3339,-0.0052,0.0100,-0.2341,-0.0625,-2.4900,1.4640,2.9584
2024-10-11T14:10:21.625Z,0.0967,-0.9572,0.0974,-0.7469,-0.3339,-0.0052,0.0095,-0.2517,-0.0540,-2.4900,1.4640,2.9584
2024-10-11T14:10:21.635Z,0.1011,-0.9572,0.1006,-0.7772,-0.3633,0.0427,0.0078,-0.2665,-0.0496,-2.4751,1.4633,2.9360
2024-10-11T14:10:21.645Z,0.0994,-0.9619,0.1070,-0.7772,-0.3633,0.0427,0.0087,-0.2824,-0.0429,-2.4751,1.4633,2.9360
2024-10-11T14:10:21.655Z,0.1009,-0.9694,0.1084,-0.7772,-0.3633,0.0427,0.0043,-0.3020,-0.0379,-2.4751,1.4633,2.9360
2024-10-11T14:10:21.665Z,0.1001,-0.9740,0.1156,-0.7458,-0.1985,-0.1048,0.0016,-0.3179,-0.0317,-2.4646,1.4629,2.9164
2024-10-11T14:10:21.675Z,0.0987,-0.9758,0.1168,-0.7458,-0.1985,-0.1048,0.0005,-0.3357,-0.0296,-2.4646,1.4629,2.9164
2024-10-11T14:10:21.685Z,0.0955,-0.9788,0.1214,-0.7458,-0.1985,-0.1048,-0.0042,-0.3542,-0.0258,-2.4646,1.4629,2.9164
2024-10-11T14:10:21.695Z,0.0930,-0.9768,0.1266,-0.6581,-0.1701,-0.2152,-0.0068,-0.3756,-0.0208,-2.4574,1.4628,2.8984
2024-10-11T14:10:21.705Z,0.0873,-0.9788,0.1287,-0.6581,-0.1701,-0.2152,-0.0081,-0.3945,-0.0179,-2.4574,1.4628,2.8984
2024-10-11T14:10:21.714Z,0.0834,-0.9808,0.1244,-0.6581,-0.1701,-0.2152,-0.0074,-0.4171,-0.0145,-2.4574,1.4628,2.8984
2024-10-11T14:10:21.725Z,0.0842,-0.9846,0.1200,-0.5536,-0.0944,-0.1564,-0.0033,-0.4333,-0.0119,-2.4527,1.4629,2.8812
2024-10-11T14:10:21.735Z,0.0814,-0.9852,0.1147,-0.5536,-0.0944,-0.1564,-0.0044,-0.4540,-0.0134,-2.4527,1.4629,2.8812
2024-10-11T14:10:21.745Z,0.0729,-0.9844,0.1105,-0.5536,-0.0944,-0.1564,-0.0030,-0.4766,-0.0105,-2.4527,1.4629,2.8812
2024-10-11T14:10:21.755Z,0.0655,-0.9870,0.1066,-0.3519,-0.0701,-0.0292,0.0028,-0.4973,-0.0137,-2.4492,1.4628,2.8634
2024-10-11T14:10:21.764Z,0.0677,-0.9933,0.1088,-0.3519,-0.0701,-0.0292,0.0055,-0.5175,-0.0117,-2.4492,1.4628,2.8634
2024-10-11T14:10:21.775Z,0.0770,-0.9991,0.1101,-0.3519,-0.0701,-0.0292,0.0083,-0.5400,-0.0093,-2.4492,1.4628,2.8634
2024-10-11T14:10:21.785Z,0.0785,-1.0068,0.1047,-0.4607,0.1244,-0.0133,0.0109,-0.5581,-0.0077,-2.4475,1.4625,2.8456
2024-10-11T14:10:21.795Z,0.0748,-1.0108,0.1083,-0.4607,0.1244,-0.0133,0.0140,-0.5712,-0.0027,-2.4475,1.4625,2.8456
2024-10-11T14:10:21.805Z,0.0795,-1.0083,0.1096,-0.4607,0.1244,-0.0133,0.0153,-0.5890,-0.0006,-2.4475,1.4625,2.8456
2024-10-11T14:10:21.814Z,0.0823,-1.0067,0.1203,-0.4796,0.1238,-0.1678,0.0176,-0.5979,0.0004,-2.4483,1.4621,2.8286
2024-10-11T14:10:21.825Z,0.0829,-1.0052,0.1287,-0.4796,0.1238,-0.1678,0.0151,-0.6128,0.0019,-2.4483,1.4621,2.8286
2024-10-11T14:10:21.835Z,0.0901,-1.0076,0.1325,-0.4796,0.1238,-0.1678,0.0162,-0.6279,0.0091,-2.4483,1.4621,2.8286
2024-10-11T14:10:21.845Z,0.0874,-1.0146,0.1386,-0.5127,0.2019,-0.3487,0.0156,-0.6470,0.0108,-2.4516,1.4617,2.8129
2024-10-11T14:10:21.855Z,0.0881,-1.0238,0.1401,-0.5127,0.2019,-0.3487,0.0169,-0.6611,0.0144,-2.4516,1.4617,2.8129
2024-10-11T14:10:21.864Z,0.0883,-1.0297,0.1392,-0.5127,0.2019,-0.3487,0.0176,-0.6749,0.0164,-2.4516,1.4617,2.8129
2024-10-11T14:10:21.875Z,0.0898,-1.0350,0.1436,-0.5209,0.4019,-0.3994,0.0147,-0.6896,0.0184,-2.4577,1.4613,2.7986
2024-10-11T14:10:21.885Z,0.0918,-1.0352,0.1472,-0.5209,0.4019,-0.3994,0.0131,-0.7010,0.0235,-2.4577,1.4613,2.7986
2024-10-11T14:10:21.895Z,0.0947,-1.0325,0.1528,-0.5209,0.4019,-0.3994,0.0124,-0.7152,0.0247,-2.4577,1.4613,2.7986
2024-10-11T14:10:21.905Z,0.0961,-1.0311,0.1598,-0.5683,0.3636,-0.5627,0.0089,-0.7286,0.0309,-2.4657,1.4613,2.7850
2024-10-11T14:10:21.915Z,0.0986,-1.0343,0.1628,-0.5683,0.3636,-0.5627,0.0074,-0.7422,0.0348,-2.4657,1.4613,2.7850
2024-10-11T14:10:21.925Z,0.0980,-1.0317,0.1723,-0.5683,0.3636,-0.5627,0.0054,-0.7556,0.0386,-2.4657,1.4613,2.7850
2024-10-11T14:10:21.935Z,0.1075,-1.0295,0.1747,-0.6685,0.3476,-0.7151,0.0028,-0.7703,0.0468,-2.4765,1.4615,2.7729
2024-10-11T14:10:21.945Z,0.1180,-1.0252,0.1806,-0.6685,0.3476,-0.7151,0.0008,-0.7849,0.0555,-2.4765,1.4615,2.7729
2024-10-11T14:10:21.955Z,0.1266,-1.0206,0.1837,-0.6685,0.3476,-0.7151,-0.0020,-0.7976,0.0658,-2.4765,1.4615,2.7729
2024-10-11T14:10:21.964Z,0.1299,-1.0199,0.1788,-0.8840,0.2530,-0.7652,-0.0023,-0.8086,0.0786,-2.4931,1.4622,2.7654
2024-10-11T14:10:21.975Z,0.1224,-1.0185,0.1767,-0.8840,0.2530,-0.7652,-0.0012,-0.8196,0.0870,-2.4931,1.4622,2.7654
2024-10-11T14:10:21.985Z,0.1153,-1.0194,0.1764,-0.8840,0.2530,-0.7652,0.0026,-0.8306,0.0970,-2.4931,1.4622,2.7654
2024-10-11T14:10:21.995Z,0.1151,-1.0211,0.1743,-0.7413,0.2639,-0.7301,0.0069,-0.8410,0.1052,-2.5179,1.4632,2.7650
2024-10-11T14:10:22.004Z,0.1094,-1.0254,0.1769,-0.7413,0.2639,-0.7301,0.0078,-0.8467,0.1147,-2.5179,1.4632,2.7650
2024-10-11T14:10:22.015Z,0.0981,-1.0285,0.1815,-0.7413,0.2639,-0.7301,0.0091,-0.8532,0.1208,-2.5179,1.4632,2.7650
2024-10-11T14:10:22.025Z,0.0853,-1.0333,0.1832,-0.4591,0.3826,-0.8244,0.0131,-0.8561,0.1266,-2.5501,1.4642,2.7713
2024-10-11T14:10:22.035Z,0.0796,-1.0388,0.1900,-0.4591,0.3826,-0.8244,0.0166,-0.8608,0.1321,-2.5501,1.4642,2.7713
2024-10-11T14:10:22.045Z,0.0725,-1.0412,0.1915,-0.4591,0.3826,-0.8244,0.0173,-0.8577,0.1334,-2.5501,1.4642,2.7713
2024-10-11T14:10:22.054Z,0.0645,-1.0424,0.2032,-0.2682,0.4712,-1.0250,0.0154,-0.8634,0.1386,-2.5869,1.4651,2.7819
2024-10-11T14:10:22.065Z,0.0653,-1.0407,0.2100,-0.2682,0.4712,-1.0250,0.0142,-0.8706,0.1403,-2.5869,1.4651,2.7819
2024-10-11T14:10:22.075Z,0.0629,-1.0442,0.2042,-0.2682,0.4712,-1.0250,0.0103,-0.8752,0.1492,-2.5869,1.4651,2.7819
2024-10-11T14:10:22.085Z,0.0708,-1.0479,0.1993,-0.3468,0.5233,-0.9925,0.0072,-0.8819,0.1505,-2.6269,1.4663,2.7953
2024-10-11T14:10:22.095Z,0.0708,-1.0587,0.1944,-0.3468,0.5233,-0.9925,0.0038,-0.8893,0.1547,-2.6269,1.4663,2.7953
2024-10-11T14:10:22.105Z,0.0683,-1.0700,0.2002,-0.3468,0.5233,-0.9925,-0.0015,-0.8975,0.1596,-2.6269,1.4663,2.7953
2024-10-11T14:10:22.115Z,0.0717,-1.0810,0.1984,-0.3760,0.8462,-0.9919,-0.0060,-0.9087,0.1622,-2.6701,1.4678,2.8112
2024-10-11T14:10:22.125Z,0.0706,-1.0877,0.1892,-0.3760,0.8462,-0.9919,-0.0083,-0.9216,0.1731,-2.6701,1.4678,2.8112
2024-10-11T14:10:22.135Z,0.0766,-1.0872,0.1893,-0.3760,0.8462,-0.9919,-0.0119,-0.9343,0.1774,-2.6701,1.4678,2.8112
2024-10-11T14:10:22.145Z,0.0730,-1.0857,0.1887,-0.4138,0.8904,-0.9092,-0.0157,-0.9409,0.1841,-2.7182,1.4698,2.8310
2024-10-11T14:10:22.155Z,0.0623,-1.0901,0.1844,-0.4138,0.8904,-0.9092,-0.0216,-0.9447,0.1867,-2.7182,1.4698,2.8310
2024-10-11T14:10:22.165Z,0.0547,-1.0950,0.1822,-0.4138,0.8904,-0.9092,-0.0285,-0.9444,0.1931,-2.7182,1.4698,2.8310
2024-10-11T14:10:22.175Z,0.0421,-1.1031,0.1732,-0.1387,1.0587,-0.7723,-0.0339,-0.9367,0.1924,-2.7701,1.4721,2.8543
2024-10-11T14:10:22.185Z,0.0327,-1.1145,0.1650,-0.1387,1.0587,-0.7723,-0.0402,-0.9106,0.1902,-2.7701,1.4721,2.8543
2024-10-11T14:10:22.195Z,0.0239,-1.1203,0.1526,-0.1387,1.0587,-0.7723,-0.0403,-0.9093,0.1888,-2.7701,1.4721,2.8543
2024-10-11T14:10:22.205Z,0.0011,-1.1153,0.1462,0.2345,1.1766,-0.5255,-0.0411,-0.8939,0.1833,-2.8217,1.4747,2.8780
2024-10-11T14:10:22.215Z,-0.0051,-1.1036,0.1471,0.2345,1.1766,-0.5255,-0.0398,-0.8824,0.1765,-2.8217,1.4747,2.8780
2024-10-11T14:10:22.225Z,-0.0118,-1.0876,0.1465,0.2345,1.1766,-0.5255,-0.0430,-0.8626,0.1658,-2.8217,1.4747,2.8780
2024-10-11T14:10:22.235Z,-0.0172,-1.0762,0.1447,0.3896,0.7908,-0.5279,-0.0373,-0.8549,0.1610,-2.8686,1.4770,2.8984
2024-10-11T14:10:22.245Z,-0.0131,-1.0681,0.1431,0.3896,0.7908,-0.5279,-0.0278,-0.8478,0.1545,-2.8686,1.4770,2.8984
2024-10-11T14:10:22.255Z,-0.0205,-1.0582,0.1469,0.3896,0.7908,-0.5279,-0.0196,-0.8367,0.1490,-2.8686,1.4770,2.8984
2024-10-11T14:10:22.265Z,-0.0301,-1.0436,0.1469,0.4958,0.4693,-0.5609,-0.0091,-0.8273,0.1393,-2.9128,1.4786,2.9172
2024-10-11T14:10:22.274Z,-0.0347,-1.0479,0.1391,0.4958,0.4693,-0.5609,0.0026,-0.8166,0.1312,-2.9128,1.4786,2.9172
2024-10-11T14:10:22.285Z,-0.0422,-1.0522,0.1387,0.4958,0.4693,-0.5609,0.0074,-0.8048,0.1215,-2.9128,1.4786,2.9172
2024-10-11T14:10:22.295Z,-0.0357,-1.0654,0.1381,0.5371,0.6829,-0.4781,0.0149,-0.7945,0.1124,-2.9520,1.4793,2.9319
2024-10-11T14:10:22.305Z,-0.0379,-1.0781,0.1351,0.5371,0.6829,-0.4781,0.0235,-0.7838,0.0986,-2.9520,1.4793,2.9319
2024-10-11T14:10:22.315Z,-0.0438,-1.0924,0.1246,0.5371,0.6829,-0.4781,0.0260,-0.7727,0.0896,-2.9520,1.4793,2.9319
2024-10-11T14:10:22.324Z,-0.0390,-1.1012,0.1104,0.5625,1.0341,-0.2025,0.0295,-0.7633,0.0785,-2.9835,1.4790,2.9396
2024-10-11T14:10:22.335Z,-0.0371,-1.1073,0.1071,0.5625,1.0341,-0.2025,0.0309,-0.7555,0.0666,-2.9835,1.4790,2.9396
2024-10-11T14:10:22.345Z,-0.0431,-1.1147,0.1039,0.5625,1.0341,-0.2025,0.0345,-0.7487,0.0567,-2.9835,1.4790,2.9396
2024-10-11T14:10:22.354Z,-0.0396,-1.1183,0.1070,0.5715,1.2028,-0.1635,0.0363,-0.7408,0.0467,-3.0048,1.4784,2.9380
2024-10-11T14:10:22.366Z,-0.0390,-1.1204,0.1078,0.5715,1.2028,-0.1635,0.0337,-0.7288,0.0380,-3.0048,1.4784,2.9380
2024-10-11T14:10:22.375Z,-0.0327,-1.1157,0.1079,0.5715,1.2028,-0.1635,0.0328,-0.7234,0.0308,-3.0048,1.4784,2.9380
2024-10-11T14:10:22.384Z,-0.0321,-1.1091,0.1142,0.5076,1.1131,-0.2280,0.0299,-0.7131,0.0250,-3.0176,1.4776,2.9288
2024-10-11T14:10:22.395Z,-0.0370,-1.1024,0.1227,0.5076,1.1131,-0.2280,0.0290,-0.7082,0.0181,-3.0176,1.4776,2.9288
2024-10-11T14:10:22.405Z,-0.0308,-1.1009,0.1295,0.5076,1.1131,-0.2280,0.0293,-0.7045,0.0174,-3.0176,1.4776,2.9288
2024-10-11T14:10:22.415Z,-0.0387,-1.1046,0.1308,0.5862,1.0693,-0.3868,0.0256,-0.6958,0.0151,-3.0251,1.4769,2.9150
2024-10-11T14:10:22.425Z,-0.0410,-1.1073,0.1296,0.5862,1.0693,-0.3868,0.0250,-0.6879,0.0081,-3.0251,1.4769,2.9150
2024-10-11T14:10:22.435Z,-0.0389,-1.1049,0.1340,0.5862,1.0693,-0.3868,0.0214,-0.6729,0.0030,-3.0251,1.4769,2.9150
2024-10-11T14:10:22.445Z,-0.0461,-1.1054,0.1379,0.6761,1.0781,-0.4540,0.0184,-0.6576,-0.0006,-3.0285,1.4763,2.8979
2024-10-11T14:10:22.455Z,-0.0440,-1.1034,0.1410,0.6761,1.0781,-0.4540,0.0128,-0.6396,-0.0073,-3.0285,1.4763,2.8979
2024-10-11T14:10:22.465Z,-0.0365,-1.0977,0.1394,0.6761,1.0781,-0.4540,0.0080,-0.6222,-0.0118,-3.0285,1.4763,2.8979
2024-10-11T14:10:22.475Z,-0.0294,-1.0929,0.1362,0.5315,0.9552,-0.4401,0.0010,-0.6023,-0.0160,-3.0261,1.4760,2.8765
2024-10-11T14:10:22.484Z,-0.0262,-1.0891,0.1353,0.5315,0.9552,-0.4401,-0.0036,-0.5795,-0.0174,-3.0261,1.4760,2.8765
2024-10-11T14:10:22.495Z,-0.0138,-1.0860,0.1316,0.5315,0.9552,-0.4401,-0.0098,-0.5665,-0.0162,-3.0261,1.4760,2.8765
2024-10-11T14:10:22.505Z,-0.0050,-1.0833,0.1225,0.3121,0.8616,-0.3116,-0.0138,-0.5494,-0.0150,-3.0211,1.4760,2.8541
2024-10-11T14:10:22.515Z,0.0018,-1.0784,0.1178,0.3121,0.8616,-0.3116,-0.0203,-0.5391,-0.0141,-3.0211,1.4760,2.8541
2024-10-11T14:10:22.525Z,0.0082,-1.0656,0.1154,0.3121,0.8616,-0.3116,-0.0278,-0.5240,-0.0135,-3.0211,1.4760,2.8541
2024-10-11T14:10:22.534Z,0.0099,-1.0578,0.1149,0.1842,0.6108,-0.2486,-0.0333,-0.5143,-0.0139,-3.0146,1.4766,2.8317
2024-10-11T14:10:22.545Z,0.0157,-1.0603,0.1138,0.1842,0.6108,-0.2486,-0.0357,-0.5056,-0.0116,-3.0146,1.4766,2.8317
2024-10-11T14:10:22.555Z,0.0195,-1.0675,0.1171,0.1842,0.6108,-0.2486,-0.0386,-0.5017,-0.0131,-3.0146,1.4766,2.8317
2024-10-11T14:10:22.565Z,0.0288,-1.0660,0.1139,0.0162,0.6903,-0.2538,-0.0414,-0.4968,-0.0136,-3.0070,1.4775,2.8087
2024-10-11T14:10:22.575Z,0.0378,-1.0661,0.1132,0.0162,0.6903,-0.2538,-0.0424,-0.4979,-0.0142,-3.0070,1.4775,2.8087
2024-10-11T14:10:22.586Z,0.0400,-1.0581,0.1183,0.0162,0.6903,-0.2538,-0.0426,-0.5006,-0.0171,-3.0070,1.4775,2.8087
2024-10-11T14:10:22.595Z,0.0459,-1.0493,0.1169,-0.1334,0.5250,-0.3009,-0.0427,-0.5044,-0.0179,-2.9972,1.4786,2.7837
2024-10-11T14:10:22.605Z,0.0596,-1.0411,0.1165,-0.1334,0.5250,-0.3009,-0.0433,-0.5115,-0.0179,-2.9972,1.4786,2.7837
2024-10-11T14:10:22.615Z,0.0714,-1.0239,0.1181,-0.1334,0.5250,-0.3009,-0.0456,-0.5196,-0.0186,-2.9972,1.4786,2.7837
2024-10-11T14:10:22.625Z,0.0867,-1.0068,0.1211,-0.5163,0.1078,-0.3598,-0.0426,-0.5311,-0.0135,-2.9871,1.4796,2.7579
2024-10-11T14:10:22.635Z,0.0983,-0.9911,0.1168,-0.5163,0.1078,-0.3598,-0.0434,-0.5421,-0.0117,-2.9871,1.4796,2.7579
2024-10-11T14:10:22.645Z,0.1063,-0.9811,0.1080,-0.5163,0.1078,-0.3598,-0.0395,-0.5562,-0.0100,-2.9871,1.4796,2.7579
2024-10-11T14:10:22.655Z,0.1051,-0.9765,0.0961,-0.6808,-0.1905,-0.1310,-0.0324,-0.5698,-0.0080,-2.9797,1.4806,2.7337
2024-10-11T14:10:22.665Z,0.1036,-0.9737,0.0895,-0.6808,-0.1905,-0.1310,-0.0274,-0.5837,-0.0057,-2.9797,1.4806,2.7337
2024-10-11T14:10:22.675Z,0.1123,-0.9728,0.0851,-0.6808,-0.1905,-0.1310,-0.0214,-0.6017,0.0012,-2.9797,1.4806,2.7337
2024-10-11T14:10:22.685Z,0.1122,-0.9782,0.0822,-0.7348,-0.1742,-0.0081,-0.0164,-0.6199,0.0017,-2.9762,1.4812,2.7122
2024-10-11T14:10:22.695Z,0.1070,-0.9793,0.0857,-0.7348,-0.1742,-0.0081,-0.0112,-0.6386,0.0051,-2.9762,1.4812,2.7122
2024-10-11T14:10:22.705Z,0.1055,-0.9797,0.0905,-0.7348,-0.1742,-0.0081,-0.0048,-0.6546,0.0094,-2.9762,1.4812,2.7122
2024-10-11T14:10:22.715Z,0.1034,-0.9809,0.0940,-0.6353,-0.1486,-0.1329,-0.0003,-0.6715,0.0133,-2.9778,1.4815,2.6941
2024-10-11T14:10:22.725Z,0.0998,-0.9775,0.0921,-0.6353,-0.1486,-0.1329,-0.0010,-0.6849,0.0161,-2.9778,1.4815,2.6941
2024-10-11T14:10:22.734Z,0.0979,-0.9704,0.0985,-0.6353,-0.1486,-0.1329,-0.0023,-0.6938,0.0197,-2.9778,1.4815,2.6941
2024-10-11T14:10:22.745Z,0.0831,-0.9552,0.1079,-0.4248,-0.4004,-0.2776,0.0004,-0.6971,0.0201,-2.9827,1.4817,2.6781
2024-10-11T14:10:22.755Z,0.0737,-0.9440,0.1093,-0.4248,-0.4004,-0.2776,0.0027,-0.7025,0.0219,-2.9827,1.4817,2.6781
2024-10-11T14:10:22.765Z,0.0627,-0.9350,0.1017,-0.4248,-0.4004,-0.2776,0.0035,-0.7022,0.0239,-2.9827,1.4817,2.6781
2024-10-11T14:10:22.775Z,0.0506,-0.9203,0.1069,-0.0962,-0.7427,-0.2755,0.0059,-0.6949,0.0251,-2.9904,1.4819,2.6645
2024-10-11T14:10:22.785Z,0.0461,-0.9028,0.1112,-0.0962,-0.7427,-0.2755,0.0082,-0.6908,0.0258,-2.9904,1.4819,2.6645
2024-10-11T14:10:22.795Z,0.0418,-0.8890,0.1134,-0.0962,-0.7427,-0.2755,0.0122,-0.6817,0.0269,-2.9904,1.4819,2.6645
2024-10-11T14:10:22.805Z,0.0310,-0.8811,0.1126,0.1039,-1.1275,-0.3358,0.0129,-0.6724,0.0257,-3.0001,1.4819,2.6536
2024-10-11T14:10:22.815Z,0.0273,-0.8783,0.1102,0.1039,-1.1275,-0.3358,0.0219,-0.6615,0.0263,-3.0001,1.4819,2.6536
2024-10-11T14:10:22.825Z,0.0265,-0.8735,0.1124,0.1039,-1.1275,-0.3358,0.0264,-0.6518,0.0284,-3.0001,1.4819,2.6536
2024-10-11T14:10:22.835Z,0.0257,-0.8682,0.1053,0.1628,-1.2541,-0.2641,0.0372,-0.6452,0.0309,-3.0130,1.4816,2.6466
2024-10-11T14:10:22.845Z,0.0322,-0.8590,0.1001,0.1628,-1.2541,-0.2641,0.0427,-0.6375,0.0363,-3.0130,1.4816,2.6466
2024-10-11T14:10:22.855Z,0.0350,-0.8478,0.0997,0.1628,-1.2541,-0.2641,0.0529,-0.6342,0.0454,-3.0130,1.4816,2.6466
2024-10-11T14:10:22.865Z,0.0349,-0.8384,0.0962,0.0745,-1.5456,-0.1682,0.0596,-0.6280,0.0518,-3.0338,1.4809,2.6480
2024-10-11T14:10:22.875Z,0.0234,-0.8353,0.0912,0.0745,-1.5456,-0.1682,0.0684,-0.6232,0.0580,-3.0338,1.4809,2.6480
2024-10-11T14:10:22.885Z,0.0114,-0.8366,0.0896,0.0745,-1.5456,-0.1682,0.0763,-0.6177,0.0624,-3.0338,1.4809,2.6480
2024-10-11T14:10:22.895Z,0.0026,-0.8342,0.0822,0.3886,-1.5856,-0.0168,0.0808,-0.6120,0.0640,-3.0631,1.4798,2.6584
2024-10-11T14:10:22.905Z,-0.0042,-0.8355,0.0713,0.3886,-1.5856,-0.0168,0.0885,-0.6080,0.0676,-3.0631,1.4798,2.6584
2024-10-11T14:10:22.915Z,-0.0101,-0.8405,0.0542,0.3886,-1.5856,-0.0168,0.0896,-0.6084,0.0711,-3.0631,1.4798,2.6584
2024-10-11T14:10:22.925Z,-0.0153,-0.8514,0.0382,0.5589,-1.4158,0.4336,0.0912,-0.6069,0.0719,-3.0968,1.4784,2.6735
2024-10-11T14:10:22.935Z,-0.0164,-0.8636,0.0262,0.5589,-1.4158,0.4336,0.0992,-0.6091,0.0722,-3.0968,1.4784,2.6735
2024-10-11T14:10:22.945Z,-0.0189,-0.8722,0.0135,0.5589,-1.4158,0.4336,0.1028,-0.6089,0.0713,-3.0968,1.4784,2.6735
2024-10-11T14:10:22.955Z,-0.0312,-0.8752,0.0120,0.7079,-1.1805,0.7130,0.1054,-0.6064,0.0710,-3.1325,1.4766,2.6906
2024-10-11T14:10:22.965Z,-0.0335,-0.8775,0.0127,0.7079,-1.1805,0.7130,0.1055,-0.5912,0.0676,-3.1325,1.4766,2.6906
2024-10-11T14:10:22.975Z,-0.0264,-0.8775,0.0183,0.7079,-1.1805,0.7130,0.1057,-0.5800,0.0636,-3.1325,1.4766,2.6906
2024-10-11T14:10:22.985Z,-0.0308,-0.8750,0.0268,0.7005,-1.1811,0.5923,0.1044,-0.5670,0.0598,3.1180,1.4745,2.7053
2024-10-11T14:10:22.995Z,-0.0270,-0.8745,0.0339,0.7005,-1.1811,0.5923,0.1059,-0.5529,0.0538,3.1180,1.4745,2.7053
2024-10-11T14:10:23.005Z,-0.0310,-0.8600,0.0457,0.7005,-1.1811,0.5923,0.1089,-0.5246,0.0533,3.1180,1.4745,2.7053
2024-10-11T14:10:23.017Z,-0.1022,-0.7908,0.0370,1.4007,-2.0045,0.5181,0.1142,-0.4786,0.0504,3.0896,1.4721,2.7175
2024-10-11T14:10:23.025Z,-0.0498,-0.8878,0.0695,1.4007,-2.0045,0.5181,0.1024,-0.4741,0.0493,3.0896,1.4721,2.7175
2024-10-11T14:10:23.034Z,0.0008,-0.8583,0.0265,1.4007,-2.0045,0.5181,0.1032,-0.4646,0.0457,3.0896,1.4721,2.7175
2024-10-11T14:10:23.045Z,-0.0141,-0.8721,0.0461,0.5349,-1.2045,0.4539,0.0970,-0.4262,0.0433,3.0638,1.4698,2.7290
2024-10-11T14:10:23.055Z,-0.0418,-0.8422,0.0199,0.5349,-1.2045,0.4539,0.0962,-0.4170,0.0466,3.0638,1.4698,2.7290
2024-10-11T14:10:23.065Z,-0.0018,-0.8615,0.0269,0.5349,-1.2045,0.4539,0.0912,-0.3924,0.0472,3.0638,1.4698,2.7290
2024-10-11T14:10:23.075Z,-0.0446,-0.8478,0.0231,0.8312,-1.4413,0.7021,0.0868,-0.3551,0.0471,3.0402,1.4678,2.7404
2024-10-11T14:10:23.085Z,-0.0406,-0.8492,0.0366,0.8312,-1.4413,0.7021,0.0817,-0.3255,0.0475,3.0402,1.4678,2.7404
2024-10-11T14:10:23.095Z,-0.0569,-0.8616,0.0439,0.8312,-1.4413,0.7021,0.0799,-0.2970,0.0526,3.0402,1.4678,2.7404
2024-10-11T14:10:23.105Z,-0.0316,-0.8682,0.0582,0.6980,-1.2394,0.3769,0.0718,-0.2840,0.0523,3.0179,1.4662,2.7530
2024-10-11T14:10:23.115Z,-0.0049,-0.8828,0.0826,0.6980,-1.2394,0.3769,0.0645,-0.2789,0.0556,3.0179,1.4662,2.7530
2024-10-11T14:10:23.125Z,0.0075,-0.8936,0.1181,0.6980,-1.2394,0.3769,0.0566,-0.2824,0.0556,3.0179,1.4662,2.7530
2024-10-11T14:10:23.135Z,0.0158,-0.9066,0.1549,0.2246,-0.8620,-0.5577,0.0442,-0.2836,0.0592,2.9965,1.4652,2.7656
2024-10-11T14:10:23.145Z,0.0322,-0.8943,0.1800,0.2246,-0.8620,-0.5577,0.0299,-0.2869,0.0623,2.9965,1.4652,2.7656
2024-10-11T14:10:23.155Z,0.0463,-0.8940,0.1876,0.2246,-0.8620,-0.5577,0.0186,-0.2909,0.0596,2.9965,1.4652,2.7656
2024-10-11T14:10:23.166Z,0.0459,-0.8903,0.1739,-0.0804,-1.0217,-0.7413,0.0091,-0.2819,0.0606,2.9780,1.4652,2.7752
2024-10-11T14:10:23.175Z,0.0146,-0.8622,0.1434,-0.0804,-1.0217,-0.7413,-0.0014,-0.2589,0.0597,2.9780,1.4652,2.7752
2024-10-11T14:10:23.185Z,-0.0082,-0.8470,0.0989,-0.0804,-1.0217,-0.7413,-0.0056,-0.2282,0.0635,2.9780,1.4652,2.7752
2024-10-11T14:10:23.195Z,-0.0307,-0.8573,0.0890,0.6602,-1.3466,0.0878,-0.0120,-0.1850,0.0667,2.9613,1.4660,2.7844
2024-10-11T14:10:23.205Z,-0.0580,-0.8772,0.0871,0.6602,-1.3466,0.0878,-0.0173,-0.1403,0.0695,2.9613,1.4660,2.7844
2024-10-11T14:10:23.215Z,-0.0674,-0.8906,0.0915,0.6602,-1.3466,0.0878,-0.0223,-0.1015,0.0721,2.9613,1.4660,2.7844
2024-10-11T14:10:23.225Z,-0.0544,-0.8898,0.0867,0.8746,-1.0282,0.1035,-0.0266,-0.0832,0.0721,2.9441,1.4674,2.7979
2024-10-11T14:10:23.235Z,-0.0492,-0.8827,0.0687,0.8746,-1.0282,0.1035,-0.0274,-0.0642,0.0701,2.9441,1.4674,2.7979
2024-10-11T14:10:23.246Z,-0.0545,-0.8823,0.0621,0.8746,-1.0282,0.1035,-0.0248,-0.0429,0.0699,2.9441,1.4674,2.7979
2024-10-11T14:10:23.255Z,-0.0609,-0.8836,0.0567,0.9197,-1.0911,0.3897,-0.0209,-0.0220,0.0683,2.9273,1.4687,2.8129
2024-10-11T14:10:23.265Z,-0.0668,-0.8777,0.0579,0.9197,-1.0911,0.3897,-0.0185,-0.0092,0.0660,2.9273,1.4687,2.8129
2024-10-11T14:10:23.275Z,-0.0703,-0.8709,0.0663,0.9197,-1.0911,0.3897,-0.0172,0.0010,0.0616,2.9273,1.4687,2.8129
2024-10-11T14:10:23.285Z,-0.0669,-0.8717,0.0700,0.9617,-1.2084,0.2543,-0.0146,0.0048,0.0556,2.9116,1.4698,2.8282
2024-10-11T14:10:23.295Z,-0.0605,-0.8777,0.0746,0.9617,-1.2084,0.2543,-0.0105,0.0112,0.0543,2.9116,1.4698,2.8282
2024-10-11T14:10:23.305Z,-0.0453,-0.8821,0.0812,0.9617,-1.2084,0.2543,-0.0107,0.0157,0.0497,2.9116,1.4698,2.8282
2024-10-11T14:10:23.316Z,-0.0229,-0.8846,0.0876,0.5142,-1.0828,0.0788,-0.0077,0.0162,0.0521,2.8967,1.4705,2.8429
2024-10-11T14:10:23.325Z,-0.0124,-0.8901,0.0911,0.5142,-1.0828,0.0788,-0.0040,0.0158,0.0540,2.8967,1.4705,2.8429
2024-10-11T14:10:23.335Z,-0.0043,-0.8987,0.0898,0.5142,-1.0828,0.0788,-0.0036,0.0015,0.0546,2.8967,1.4705,2.8429
2024-10-11T14:10:23.345Z,-0.0096,-0.9037,0.0875,0.3670,-0.8959,0.0797,0.0007,0.0022,0.0561,2.8810,1.4710,2.8584
2024-10-11T14:10:23.355Z,-0.0033,-0.9026,0.0821,0.3670,-0.8959,0.0797,0.0022,-0.0019,0.0584,2.8810,1.4710,2.8584
2024-10-11T14:10:23.368Z,0.0009,-0.8949,0.0844,0.2471,-1.0511,0.0545,0.0109,-0.0112,0.0609,2.8625,1.4713,2.8763
2024-10-11T14:10:23.375Z,0.0009,-0.8879,0.0903,0.2471,-1.0511,0.0545,0.0090,-0.0248,0.0627,2.8625,1.4713,2.8763
2024-10-11T14:10:23.385Z,0.0013,-0.8868,0.0892,0.2471,-1.0511,0.0545,0.0111,-0.0240,0.0660,2.8625,1.4713,2.8763
2024-10-11T14:10:23.396Z,-0.0127,-0.8916,0.0959,0.2471,-1.0511,0.0545,0.0122,-0.0389,0.0672,2.8625,1.4713,2.8763
2024-10-11T14:10:23.405Z,-0.0058,-0.8997,0.1066,0.2941,-0.9357,-0.1021,0.0122,-0.0389,0.0672,2.8420,1.4714,2.8954
2024-10-11T14:10:23.416Z,-0.0128,-0.9120,0.1006,0.2941,-0.9357,-0.1021,0.0137,-0.0436,0.0649,2.8420,1.4714,2.8954
2024-10-11T14:10:23.425Z,-0.0144,-0.9388,0.1043,0.2941,-0.9357,-0.1021,0.0117,-0.0451,0.0638,2.8420,1.4714,2.8954
2024-10-11T14:10:23.436Z,-0.0105,-0.9866,0.0912,0.3520,-0.3360,0.0399,0.0181,-0.0463,0.0623,2.8217,1.4715,2.9140
2024-10-11T14:10:23.445Z,-0.0105,-0.9866,0.0912,0.3520,-0.3360,0.0399,0.0179,-0.0534,0.0593,2.8217,1.4715,2.9140
2024-10-11T14:10:23.455Z,-0.0114,-1.0180,0.0905,0.3520,-0.3360,0.0399,0.0178,-0.0631,0.0581,2.8217,1.4715,2.9140
2024-10-11T14:10:23.466Z,-0.0130,-1.0464,0.0977,0.3315,0.5040,-0.0065,0.0152,-0.0744,0.0570,2.8028,1.4714,2.9307
2024-10-11T14:10:23.475Z,-0.0037,-1.0665,0.0977,0.3315,0.5040,-0.0065,0.0092,-0.0869,0.0578,2.8028,1.4714,2.9307
2024-10-11T14:10:23.485Z,0.0019,-1.0783,0.1138,0.3315,0.5040,-0.0065,0.0048,-0.0959,0.0539,2.8028,1.4714,2.9307
2024-10-11T14:10:23.496Z,-0.0104,-1.0876,0.1125,0.2921,0.9072,-0.1499,0.0021,-0.1148,0.0407,2.7859,1.4715,2.9445
2024-10-11T14:10:23.506Z,-0.0222,-1.0889,0.1170,0.2921,0.9072,-0.1499,-0.0006,-0.1125,0.0313,2.7859,1.4715,2.9445
2024-10-11T14:10:23.519Z,-0.0315,-1.1087,0.1186,0.6599,0.9551,-0.1881,0.0000,-0.1231,0.0212,2.7762,1.4716,2.9505
2024-10-11T14:10:23.524Z,-0.0485,-1.0925,0.1164,0.6599,0.9551,-0.1881,0.0000,-0.1231,0.0212,2.7762,1.4716,2.9505
2024-10-11T14:10:23.536Z,-0.0177,-1.0821,0.1231,0.6599,0.9551,-0.1881,-0.0039,-0.1489,0.0032,2.7762,1.4716,2.9505
2024-10-11T14:10:23.546Z,-0.0147,-1.0550,0.1256,0.6599,0.9551,-0.1881,-0.0022,-0.1653,-0.0042,2.7762,1.4716,2.9505
2024-10-11T14:10:23.554Z,-0.0199,-1.0254,0.1398,0.3819,0.2970,-0.4197,-0.0022,-0.1653,-0.0042,2.7739,1.4717,2.9481
2024-10-11T14:10:23.567Z,-0.0160,-0.9950,0.1458,0.3819,0.2970,-0.4197,0.0048,-0.1868,-0.0157,2.7739,1.4717,2.9481
2024-10-11T14:10:23.576Z,-0.0205,-0.9745,0.1525,0.3819,0.2970,-0.4197,0.0123,-0.2013,-0.0233,2.7739,1.4717,2.9481
2024-10-11T14:10:23.586Z,-0.0112,-0.9638,0.1528,0.3066,-0.3072,-0.5463,0.0203,-0.2145,-0.0299,2.7782,1.4715,2.9382
2024-10-11T14:10:23.596Z,-0.0148,-0.9742,0.1531,0.3066,-0.3072,-0.5463,0.0304,-0.2275,-0.0361,2.7782,1.4715,2.9382
2024-10-11T14:10:23.606Z,-0.0178,-0.9879,0.1596,0.3066,-0.3072,-0.5463,0.0391,-0.2456,-0.0375,2.7782,1.4715,2.9382
2024-10-11T14:10:23.616Z,-0.0044,-0.9974,0.1607,0.2556,0.0239,-0.6172,0.0496,-0.2694,-0.0399,2.7856,1.4704,2.9239
2024-10-11T14:10:23.625Z,0.0014,-1.0067,0.1615,0.2556,0.0239,-0.6172,0.0526,-0.2811,-0.0390,2.7856,1.4704,2.9239
2024-10-11T14:10:23.636Z,-0.0019,-1.0323,0.1539,0.2556,0.0239,-0.6172,0.0588,-0.2898,-0.0413,2.7856,1.4704,2.9239
2024-10-11T14:10:23.645Z,-0.0159,-1.0333,0.1307,0.3880,0.3779,-0.3091,0.0631,-0.3041,-0.0412,2.7933,1.4686,2.9077
2024-10-11T14:10:23.656Z,0.0002,-1.0410,0.1344,0.3880,0.3779,-0.3091,0.0618,-0.3120,-0.0392,2.7933,1.4686,2.9077
2024-10-11T14:10:23.666Z,0.0177,-1.0590,0.1324,0.3880,0.3779,-0.3091,0.0617,-0.3153,-0.0374,2.7933,1.4686,2.9077
2024-10-11T14:10:23.675Z,0.0060,-1.0574,0.1032,0.1941,0.6159,-0.0236,0.0606,-0.3291,-0.0334,2.8005,1.4665,2.8911
2024-10-11T14:10:23.686Z,0.0460,-1.0592,0.1158,0.1941,0.6159,-0.0236,0.0606,-0.3291,-0.0334,2.8005,1.4665,2.8911
2024-10-11T14:10:23.695Z,0.0460,-1.0592,0.1158,0.1941,0.6159,-0.0236,0.0534,-0.3344,-0.0304,2.8005,1.4665,2.8911
2024-10-11T14:10:23.706Z,0.0185,-1.0631,0.1116,0.0906,0.6742,-0.0915,0.0511,-0.3356,-0.0248,2.8048,1.4646,2.8766
2024-10-11T14:10:23.715Z,0.0240,-1.0677,0.1100,0.0906,0.6742,-0.0915,0.0477,-0.3319,-0.0283,2.8048,1.4646,2.8766
2024-10-11T14:10:23.725Z,0.0318,-1.0719,0.1097,0.0906,0.6742,-0.0915,0.0511,-0.3297,-0.0220,2.8048,1.4646,2.8766
2024-10-11T14:10:23.735Z,0.0275,-1.0775,0.1176,0.0202,0.8169,-0.1378,0.0487,-0.3250,-0.0190,2.8078,1.4629,2.8633
2024-10-11T14:10:23.745Z,0.0289,-1.0754,0.1225,0.0202,0.8169,-0.1378,0.0499,-0.3238,-0.0131,2.8078,1.4629,2.8633
2024-10-11T14:10:23.756Z,0.0378,-1.0756,0.1373,0.0202,0.8169,-0.1378,0.0515,-0.3284,-0.0077,2.8078,1.4629,2.8633
2024-10-11T14:10:23.765Z,0.0384,-1.0735,0.1464,-0.0721,0.7803,-0.4084,0.0588,-0.3259,-0.0064,2.8077,1.4613,2.8535
2024-10-11T14:10:23.775Z,0.0406,-1.0711,0.1501,-0.0721,0.7803,-0.4084,0.0607,-0.3297,-0.0021,2.8077,1.4613,2.8535
2024-10-11T14:10:23.784Z,0.0289,-1.0712,0.1657,-0.0721,0.7803,-0.4084,0.0607,-0.3297,-0.0021,2.8077,1.4613,2.8535
2024-10-11T14:10:23.795Z,0.0163,-1.0809,0.1774,0.1557,0.8539,-0.6972,0.0660,-0.3283,0.0044,2.8032,1.4595,2.8479
2024-10-11T14:10:23.805Z,-0.0011,-1.0786,0.1934,0.1557,0.8539,-0.6972,0.0676,-0.3288,0.0080,2.8032,1.4595,2.8479
2024-10-11T14:10:23.816Z,-0.0051,-1.0843,0.2107,0.4790,0.9119,-1.0482,0.0657,-0.3195,0.0068,2.7964,1.4577,2.8446
2024-10-11T14:10:23.825Z,-0.0158,-1.0866,0.2148,0.4790,0.9119,-1.0482,0.0632,-0.3099,0.0082,2.7964,1.4577,2.8446
2024-10-11T14:10:23.835Z,-0.0271,-1.0940,0.2165,0.4790,0.9119,-1.0482,0.0608,-0.2991,0.0098,2.7964,1.4577,2.8446
2024-10-11T14:10:23.845Z,-0.0245,-1.0921,0.2161,0.4790,0.9119,-1.0482,0.0615,-0.2877,0.0126,2.7964,1.4577,2.8446
2024-10-11T14:10:23.855Z,-0.0301,-1.0843,0.2015,0.6262,0.8919,-0.9023,0.0609,-0.2705,0.0108,2.7888,1.4559,2.8429
2024-10-11T14:10:23.865Z,-0.0298,-1.0795,0.1865,0.6262,0.8919,-0.9023,0.0584,-0.2545,0.0136,2.7888,1.4559,2.8429
2024-10-11T14:10:23.876Z,-0.0276,-1.0765,0.1724,0.6464,0.7420,-0.5390,0.0584,-0.2545,0.0136,2.7803,1.4543,2.8433
2024-10-11T14:10:23.885Z,-0.0448,-1.0624,0.1548,0.6464,0.7420,-0.5390,0.0575,-0.2376,0.0169,2.7803,1.4543,2.8433
2024-10-11T14:10:23.895Z,-0.0448,-1.0624,0.1548,0.6464,0.7420,-0.5390,0.0533,-0.1951,0.0105,2.7803,1.4543,2.8433
2024-10-11T14:10:23.905Z,-0.0621,-1.0606,0.1473,0.6464,0.7420,-0.5390,0.0543,-0.1793,0.0030,2.7803,1.4543,2.8433
2024-10-11T14:10:23.915Z,-0.0745,-1.0636,0.1385,1.0695,0.6922,-0.2545,0.0576,-0.1566,-0.0018,2.7736,1.4528,2.8437
2024-10-11T14:10:23.925Z,-0.0736,-1.0709,0.1203,1.0695,0.6922,-0.2545,0.0682,-0.1458,-0.0065,2.7736,1.4528,2.8437
2024-10-11T14:10:23.935Z,-0.0688,-1.0655,0.1141,1.0695,0.6922,-0.2545,0.0762,-0.1298,-0.0101,2.7736,1.4528,2.8437
2024-10-11T14:10:23.945Z,-0.0702,-1.0427,0.1057,0.9504,0.6288,0.1029,0.0807,-0.1078,-0.0153,2.7697,1.4508,2.8433
2024-10-11T14:10:23.955Z,-0.0702,-1.0427,0.1057,0.9504,0.6288,0.1029,0.0869,-0.0920,-0.0196,2.7697,1.4508,2.8433
2024-10-11T14:10:23.966Z,-0.0735,-1.0391,0.1006,0.9514,0.3666,0.0597,0.0903,-0.0789,-0.0229,2.7675,1.4483,2.8423
2024-10-11T14:10:23.975Z,-0.0609,-1.0299,0.1107,0.9514,0.3666,0.0597,0.0914,-0.0642,-0.0225,2.7675,1.4483,2.8423
2024-10-11T14:10:23.985Z,-0.0468,-1.0284,0.1133,0.9514,0.3666,0.0597,0.0951,-0.0587,-0.0196,2.7675,1.4483,2.8423
2024-10-11T14:10:23.996Z,-0.0361,-1.0306,0.1172,0.4892,0.3996,-0.1385,0.0958,-0.0529,-0.0133,2.7649,1.4454,2.8429
2024-10-11T14:10:24.005Z,0.0060,-1.0417,0.1453,0.4892,0.3996,-0.1385,0.0961,-0.0418,-0.0046,2.7649,1.4454,2.8429
2024-10-11T14:10:24.015Z,0.0115,-1.0533,0.1509,0.4892,0.3996,-0.1385,0.0889,-0.0336,0.0030,2.7649,1.4454,2.8429
2024-10-11T14:10:24.026Z,0.0115,-1.0533,0.1509,0.2001,0.6588,-0.4280,0.0856,-0.0216,0.0127,2.7576,1.4428,2.8488
2024-10-11T14:10:24.035Z,0.0165,-1.0590,0.1659,0.2001,0.6588,-0.4280,0.0831,-0.0113,0.0203,2.7576,1.4428,2.8488
2024-10-11T14:10:24.045Z,0.0368,-1.0640,0.1923,0.2001,0.6588,-0.4280,0.0743,-0.0038,0.0290,2.7576,1.4428,2.8488
2024-10-11T14:10:24.055Z,0.0368,-1.0640,0.1923,-0.0768,0.7257,-0.7960,0.0665,0.0009,0.0385,2.7460,1.4408,2.8598
2024-10-11T14:10:24.065Z,0.0384,-1.0692,0.2069,-0.0768,0.7257,-0.7960,0.0609,0.0120,0.0441,2.7460,1.4408,2.8598
2024-10-11T14:10:24.075Z,0.0384,-1.0692,0.2069,-0.0768,0.7257,-0.7960,0.0568,0.0148,0.0501,2.7460,1.4408,2.8598
2024-10-11T14:10:24.085Z,0.0422,-1.0735,0.2032,-0.0768,0.7257,-0.7960,0.0568,0.0148,0.0501,2.7460,1.4408,2.8598
2024-10-11T14:10:24.095Z,0.0483,-1.0828,0.1992,-0.1605,0.8321,-0.7458,0.0443,0.0175,0.0591,2.7311,1.4395,2.8747
2024-10-11T14:10:24.106Z,0.0431,-1.0857,0.1985,-0.1605,0.8321,-0.7458,0.0390,0.0188,0.0631,2.7311,1.4395,2.8747
2024-10-11T14:10:24.116Z,0.0431,-1.0857,0.1985,-0.0920,0.9397,-0.7556,0.0311,0.0181,0.0611,2.7145,1.4388,2.8914
2024-10-11T14:10:24.125Z,0.0467,-1.0918,0.2110,-0.0920,0.9397,-0.7556,0.0224,0.0133,0.0641,2.7145,1.4388,2.8914
2024-10-11T14:10:24.135Z,0.0467,-1.0918,0.2110,-0.0920,0.9397,-0.7556,0.0152,0.0145,0.0630,2.7145,1.4388,2.8914
2024-10-11T14:10:24.146Z,0.0505,-1.0994,0.2128,-0.2304,1.1173,-0.9522,0.0051,0.0095,0.0585,2.6980,1.4386,2.9079
2024-10-11T14:10:24.155Z,0.0540,-1.1052,0.2253,-0.2304,1.1173,-0.9522,-0.0066,0.0046,0.0609,2.6980,1.4386,2.9079
2024-10-11T14:10:24.165Z,0.0411,-1.0968,0.2681,-0.2304,1.1173,-0.9522,-0.0212,-0.0015,0.0574,2.6980,1.4386,2.9079
2024-10-11T14:10:24.176Z,0.0411,-1.0968,0.2681,-0.1476,1.0242,-1.4252,-0.0335,-0.0075,0.0519,2.6853,1.4393,2.9203
2024-10-11T14:10:24.185Z,0.0438,-1.0958,0.2732,-0.1476,1.0242,-1.4252,-0.0399,-0.0038,0.0495,2.6853,1.4393,2.9203
2024-10-11T14:10:24.195Z,0.0140,-1.1090,0.2493,-0.1476,1.0242,-1.4252,-0.0467,-0.0113,0.0420,2.6853,1.4393,2.9203
2024-10-11T14:10:24.205Z,0.0140,-1.1090,0.2493,0.0330,1.1832,-1.0609,-0.0497,-0.0116,0.0366,2.6773,1.4409,2.9278
2024-10-11T14:10:24.215Z,0.0128,-1.1193,0.2189,0.0330,1.1832,-1.0609,-0.0508,-0.0100,0.0304,2.6773,1.4409,2.9278
2024-10-11T14:10:24.225Z,0.0099,-1.1246,0.2038,0.0330,1.1832,-1.0609,-0.0573,-0.0036,0.0281,2.6773,1.4409,2.9278
2024-10-11T14:10:24.236Z,0.0099,-1.1246,0.2038,0.0498,1.3114,-0.6904,-0.0573,-0.0036,0.0281,2.6733,1.4426,2.9313
2024-10-11T14:10:24.245Z,0.0227,-1.1215,0.1883,0.0498,1.3114,-0.6904,-0.0608,0.0141,0.0150,2.6733,1.4426,2.9313
2024-10-11T14:10:24.254Z,0.0227,-1.1215,0.1883,0.0498,1.3114,-0.6904,-0.0660,0.0154,0.0111,2.6733,1.4426,2.9313
2024-10-11T14:10:24.265Z,0.0355,-1.1104,0.1826,-0.2673,1.0330,-0.4780,-0.0646,0.0139,0.0167,2.6726,1.4445,2.9323
2024-10-11T14:10:24.275Z,0.0607,-1.0923,0.1608,-0.2673,1.0330,-0.4780,-0.0657,0.0164,0.0202,2.6726,1.4445,2.9323
2024-10-11T14:10:24.285Z,0.0607,-1.0923,0.1608,-0.2673,1.0330,-0.4780,-0.0633,0.0164,0.0253,2.6726,1.4445,2.9323
2024-10-11T14:10:24.295Z,0.0645,-1.0763,0.1549,-0.4765,0.6142,-0.3371,-0.0600,0.0207,0.0344,2.6700,1.4466,2.9354
2024-10-11T14:10:24.305Z,0.0693,-1.0433,0.1554,-0.4765,0.6142,-0.3371,-0.0575,0.0244,0.0425,2.6700,1.4466,2.9354
2024-10-11T14:10:24.315Z,0.0638,-1.0530,0.1431,-0.4765,0.6142,-0.3371,-0.0515,0.0386,0.0482,2.6700,1.4466,2.9354
2024-10-11T14:10:24.325Z,0.0638,-1.0530,0.1431,-0.3202,0.6102,-0.0949,-0.0447,0.0537,0.0558,2.6612,1.4484,2.9450
2024-10-11T14:10:24.335Z,0.0565,-1.0547,0.1294,-0.3202,0.6102,-0.0949,-0.0402,0.0728,0.0623,2.6612,1.4484,2.9450
2024-10-11T14:10:24.345Z,0.0340,-1.0584,0.1137,-0.3202,0.6102,-0.0949,-0.0340,0.0986,0.0659,2.6612,1.4484,2.9450
2024-10-11T14:10:24.355Z,0.0340,-1.0584,0.1137,-0.0647,0.6961,0.1834,-0.0296,0.1297,0.0684,2.6471,1.4498,2.9616
2024-10-11T14:10:24.365Z,0.0133,-1.0688,0.0954,-0.0647,0.6961,0.1834,-0.0234,0.1598,0.0664,2.6471,1.4498,2.9616
2024-10-11T14:10:24.375Z,0.0031,-1.0865,0.0952,-0.0647,0.6961,0.1834,-0.0225,0.1931,0.0698,2.6471,1.4498,2.9616
2024-10-11T14:10:24.386Z,0.0031,-1.0865,0.0952,0.2286,0.8839,0.2406,-0.0225,0.1931,0.0698,2.6314,1.4507,2.9824
2024-10-11T14:10:24.395Z,-0.0003,-1.0808,0.0895,0.2286,0.8839,0.2406,-0.0238,0.2342,0.0679,2.6314,1.4507,2.9824
2024-10-11T14:10:24.405Z,-0.0127,-1.0764,0.0807,0.2286,0.8839,0.2406,-0.0261,0.2509,0.0684,2.6314,1.4507,2.9824
2024-10-11T14:10:24.415Z,-0.0127,-1.0764,0.0807,0.2197,0.7617,0.4615,-0.0269,0.2633,0.0691,2.6151,1.4518,3.0057
2024-10-11T14:10:24.425Z,-0.0145,-1.0625,0.0700,0.2197,0.7617,0.4615,-0.0317,0.2831,0.0653,2.6151,1.4518,3.0057
2024-10-11T14:10:24.435Z,-0.0145,-1.0625,0.0700,0.2197,0.7617,0.4615,-0.0359,0.3094,0.0626,2.6151,1.4518,3.0057
2024-10-11T14:10:24.445Z,-0.0318,-1.0407,0.0756,0.4403,0.4669,0.4041,-0.0407,0.3242,0.0574,2.5999,1.4530,3.0296
2024-10-11T14:10:24.454Z,-0.0318,-1.0407,0.0756,0.4403,0.4669,0.4041,-0.0436,0.3536,0.0466,2.5999,1.4530,3.0296
2024-10-11T14:10:24.465Z,-0.0809,-1.0333,0.0714,0.4403,0.4669,0.4041,-0.0485,0.3852,0.0411,2.5999,1.4530,3.0296
2024-10-11T14:10:24.475Z,-0.0809,-1.0333,0.0714,0.8408,0.4478,0.4638,-0.0501,0.4086,0.0328,2.5901,1.4545,3.0504
2024-10-11T14:10:24.485Z,-0.0751,-1.0389,0.0683,0.8408,0.4478,0.4638,-0.0505,0.4347,0.0241,2.5901,1.4545,3.0504
2024-10-11T14:10:24.495Z,-0.0903,-1.0455,0.0869,0.8408,0.4478,0.4638,-0.0531,0.4638,0.0146,2.5901,1.4545,3.0504
2024-10-11T14:10:24.506Z,-0.0903,-1.0455,0.0869,0.9236,0.4907,0.1105,-0.0539,0.4757,0.0083,2.5868,1.4562,3.0670
2024-10-11T14:10:24.515Z,-0.1015,-1.0314,0.1181,0.9236,0.4907,0.1105,-0.0623,0.5100,-0.0070,2.5868,1.4562,3.0670
2024-10-11T14:10:24.525Z,-0.0856,-1.0187,0.1362,0.9236,0.4907,0.1105,-0.0716,0.5352,-0.0145,2.5868,1.4562,3.0670
2024-10-11T14:10:24.537Z,-0.0856,-1.0187,0.1362,0.6958,0.0717,-0.1176,-0.0750,0.5515,-0.0235,2.5910,1.4582,3.0785
2024-10-11T14:10:24.545Z,-0.0551,-0.9999,0.1181,0.6958,0.0717,-0.1176,-0.0800,0.5567,-0.0279,2.5910,1.4582,3.0785
2024-10-11T14:10:24.555Z,-0.0514,-0.9957,0.1133,0.6958,0.0717,-0.1176,-0.0789,0.5606,-0.0385,2.5910,1.4582,3.0785
2024-10-11T14:10:24.565Z,-0.0514,-0.9957,0.1133,0.3938,0.1201,0.0148,-0.0740,0.5560,-0.0409,2.6012,1.4604,3.0849
2024-10-11T14:10:24.575Z,-0.0137,-1.0154,0.1022,0.3938,0.1201,0.0148,-0.0736,0.5501,-0.0432,2.6012,1.4604,3.0849
2024-10-11T14:10:24.586Z,-0.0041,-1.0293,0.0930,0.3938,0.1201,0.0148,-0.0670,0.5471,-0.0529,2.6012,1.4604,3.0849
2024-10-11T14:10:24.595Z,-0.0181,-1.0330,0.0627,0.2357,0.3815,0.4451,-0.0627,0.5454,-0.0548,2.6158,1.4624,3.0865
2024-10-11T14:10:24.605Z,-0.0103,-1.0285,0.0554,0.2357,0.3815,0.4451,-0.0539,0.5374,-0.0620,2.6158,1.4624,3.0865
2024-10-11T14:10:24.615Z,0.0035,-1.0117,0.0407,0.2357,0.3815,0.4451,-0.0508,0.5295,-0.0686,2.6158,1.4624,3.0865
2024-10-11T14:10:24.625Z,0.0035,-1.0117,0.0407,0.0738,-0.0935,0.6833,-0.0456,0.5206,-0.0747,2.6346,1.4638,3.0833
2024-10-11T14:10:24.636Z,-0.0028,-0.9654,0.0304,0.0738,-0.0935,0.6833,-0.0369,0.5117,-0.0762,2.6346,1.4638,3.0833
2024-10-11T14:10:24.645Z,0.0220,-0.9473,0.0272,0.0738,-0.0935,0.6833,-0.0295,0.4973,-0.0782,2.6346,1.4638,3.0833
2024-10-11T14:10:24.655Z,0.0220,-0.9473,0.0272,-0.3807,-0.5097,0.7717,-0.0182,0.4846,-0.0749,2.6559,1.4645,3.0769
2024-10-11T14:10:24.665Z,0.0519,-0.9398,0.0279,-0.3807,-0.5097,0.7717,-0.0039,0.4673,-0.0676,2.6559,1.4645,3.0769
2024-10-11T14:10:24.675Z,0.0616,-0.9318,0.0403,-0.3807,-0.5097,0.7717,0.0137,0.4523,-0.0621,2.6559,1.4645,3.0769
2024-10-11T14:10:24.686Z,0.0616,-0.9318,0.0403,-0.5682,-0.7452,0.4682,0.0259,0.4377,-0.0583,2.6741,1.4641,3.0723
2024-10-11T14:10:24.695Z,0.0665,-0.9163,0.0768,-0.5682,-0.7452,0.4682,0.0375,0.4218,-0.0551,2.6741,1.4641,3.0723
2024-10-11T14:10:24.704Z,0.0771,-0.9146,0.0969,-0.5682,-0.7452,0.4682,0.0485,0.4059,-0.0450,2.6741,1.4641,3.0723
2024-10-11T14:10:24.715Z,0.0774,-0.9161,0.1098,-0.6857,-0.7661,-0.0214,0.0552,0.3942,-0.0400,2.6864,1.4627,3.0721
2024-10-11T14:10:24.725Z,0.0788,-0.9192,0.1213,-0.6857,-0.7661,-0.0214,0.0593,0.3763,-0.0344,2.6864,1.4627,3.0721
2024-10-11T14:10:24.737Z,0.0780,-0.9122,0.1396,-0.6857,-0.7661,-0.0214,0.0627,0.3631,-0.0311,2.6864,1.4627,3.0721
2024-10-11T14:10:24.745Z,0.0780,-0.9122,0.1396,-0.5766,-0.8589,-0.3898,0.0605,0.3519,-0.0260,2.6933,1.4608,3.0760
2024-10-11T14:10:24.755Z,0.0610,-0.9010,0.1558,-0.5766,-0.8589,-0.3898,0.0568,0.3420,-0.0244,2.6933,1.4608,3.0760
2024-10-11T14:10:24.765Z,0.0504,-0.8947,0.1570,-0.5766,-0.8589,-0.3898,0.0524,0.3349,-0.0201,2.6933,1.4608,3.0760
2024-10-11T14:10:24.775Z,0.0448,-0.8836,0.1595,-0.3735,-1.0810,-0.4732,0.0500,0.3272,-0.0183,2.6979,1.4591,3.0812
2024-10-11T14:10:24.787Z,0.0586,-0.8776,0.1542,-0.3735,-1.0810,-0.4732,0.0483,0.3223,-0.0152,2.6979,1.4591,3.0812
2024-10-11T14:10:24.795Z,0.0418,-0.8802,0.1461,-0.3735,-1.0810,-0.4732,0.0472,0.3203,-0.0174,2.6979,1.4591,3.0812
2024-10-11T14:10:24.805Z,0.0418,-0.8802,0.1461,-0.3490,-1.0775,-0.2646,0.0401,0.3167,-0.0192,2.7018,1.4577,3.0868
2024-10-11T14:10:24.815Z,0.0486,-0.8893,0.1482,-0.3490,-1.0775,-0.2646,0.0422,0.3148,-0.0194,2.7018,1.4577,3.0868
2024-10-11T14:10:24.825Z,0.0408,-0.8959,0.1321,-0.3490,-1.0775,-0.2646,0.0388,0.3147,-0.0170,2.7018,1.4577,3.0868
2024-10-11T14:10:24.835Z,0.0408,-0.8959,0.1321,-0.4949,-0.9553,-0.0617,0.0403,0.3107,-0.0159,2.7055,1.4564,3.0924
2024-10-11T14:10:24.845Z,0.0662,-0.8980,0.1402,-0.4949,-0.9553,-0.0617,0.0342,0.3059,-0.0107,2.7055,1.4564,3.0924
2024-10-11T14:10:24.854Z,0.0569,-0.9018,0.1591,-0.4949,-0.9553,-0.0617,0.0293,0.3031,-0.0094,2.7055,1.4564,3.0924
2024-10-11T14:10:24.865Z,0.0463,-0.9082,0.1429,-0.4060,-0.8356,-0.2741,0.0259,0.2978,-0.0128,2.7077,1.4555,3.0990
2024-10-11T14:10:24.875Z,0.0384,-0.8999,0.1093,-0.4060,-0.8356,-0.2741,0.0241,0.2959,-0.0061,2.7077,1.4555,3.0990
2024-10-11T14:10:24.885Z,0.0610,-0.8820,0.1114,-0.4060,-0.8356,-0.2741,0.0188,0.2922,-0.0020,2.7077,1.4555,3.0990
2024-10-11T14:10:24.895Z,0.0718,-0.8628,0.1233,-0.6654,-1.2802,-0.0760,0.0085,0.2940,0.0033,2.7079,1.4549,3.1074
2024-10-11T14:10:24.905Z,0.0650,-0.8602,0.1129,-0.6654,-1.2802,-0.0760,0.0095,0.2916,0.0055,2.7079,1.4549,3.1074
2024-10-11T14:10:24.915Z,0.0562,-0.8670,0.0793,-0.6654,-1.2802,-0.0760,0.0080,0.2956,0.0081,2.7079,1.4549,3.1074
2024-10-11T14:10:24.925Z,0.0480,-0.8744,0.0528,-0.4442,-1.1660,0.6193,0.0118,0.2992,0.0069,2.7059,1.4546,3.1181
2024-10-11T14:10:24.936Z,0.0629,-0.8778,0.0602,-0.4442,-1.1660,0.6193,0.0125,0.2988,0.0127,2.7059,1.4546,3.1181
2024-10-11T14:10:24.945Z,0.0918,-0.8855,0.0732,-0.4442,-1.1660,0.6193,0.0130,0.3038,0.0207,2.7059,1.4546,3.1181
2024-10-11T14:10:24.955Z,0.0918,-0.8855,0.0732,-0.9260,-0.9059,0.4484,0.0119,0.3054,0.0255,2.7008,1.4542,3.1320
2024-10-11T14:10:24.965Z,0.0981,-0.9102,0.0806,-0.9260,-0.9059,0.4484,0.0090,0.3078,0.0325,2.7008,1.4542,3.1320
2024-10-11T14:10:24.975Z,0.0986,-0.9151,0.0870,-0.9260,-0.9059,0.4484,0.0089,0.3041,0.0343,2.7008,1.4542,3.1320
2024-10-11T14:10:24.985Z,0.0986,-0.9151,0.0870,-1.0026,-0.7242,0.2749,0.0043,0.2981,0.0414,2.6909,1.4538,-3.1325
2024-10-11T14:10:24.995Z,0.0993,-0.9214,0.0830,-1.0026,-0.7242,0.2749,0.0040,0.2923,0.0470,2.6909,1.4538,-3.1325
2024-10-11T14:10:25.005Z,0.1012,-0.9264,0.0873,-1.0026,-0.7242,0.2749,0.0005,0.2821,0.0512,2.6909,1.4538,-3.1325
2024-10-11T14:10:25.015Z,0.1093,-0.9263,0.0879,-1.1076,-0.6559,0.2838,-0.0022,0.2731,0.0565,2.6771,1.4537,-3.1104
2024-10-11T14:10:25.025Z,0.0923,-0.9293,0.0812,-1.1076,-0.6559,0.2838,-0.0087,0.2598,0.0609,2.6771,1.4537,-3.1104
2024-10-11T14:10:25.035Z,0.0821,-0.9273,0.0892,-1.1076,-0.6559,0.2838,-0.0156,0.2446,0.0621,2.6771,1.4537,-3.1104
2024-10-11T14:10:25.046Z,0.0862,-0.9281,0.1127,-0.9080,-0.6380,0.0363,-0.0247,0.2294,0.0640,2.6610,1.4539,-3.0873
2024-10-11T14:10:25.055Z,0.0703,-0.9341,0.1202,-0.9080,-0.6380,0.0363,-0.0346,0.2078,0.0601,2.6610,1.4539,-3.0873
2024-10-11T14:10:25.065Z,0.0448,-0.9453,0.1193,-0.9080,-0.6380,0.0363,-0.0418,0.1913,0.0564,2.6610,1.4539,-3.0873
2024-10-11T14:10:25.075Z,0.0297,-0.9554,0.1133,-0.3764,-0.3719,0.0190,-0.0487,0.1721,0.0492,2.6460,1.4550,-3.0667
2024-10-11T14:10:25.085Z,0.0290,-0.9581,0.1346,-0.3764,-0.3719,0.0190,-0.0550,0.1533,0.0435,2.6460,1.4550,-3.0667
2024-10-11T14:10:25.095Z,0.0325,-0.9576,0.1403,-0.3764,-0.3719,0.0190,-0.0620,0.1309,0.0348,2.6460,1.4550,-3.0667
2024-10-11T14:10:25.104Z,0.0325,-0.9576,0.1403,-0.2901,-0.3712,-0.2536,-0.0620,0.1309,0.0348,2.6348,1.4567,-3.0518
2024-10-11T14:10:25.114Z,0.0261,-0.9459,0.1370,-0.2901,-0.3712,-0.2536,-0.0748,0.0766,0.0243,2.6348,1.4567,-3.0518
2024-10-11T14:10:25.125Z,0.0498,-0.9274,0.1250,-0.2901,-0.3712,-0.2536,-0.0832,0.0637,0.0192,2.6348,1.4567,-3.0518
2024-10-11T14:10:25.135Z,0.0498,-0.9274,0.1250,-0.3005,-0.8957,-0.1014,-0.0855,0.0420,0.0164,2.6264,1.4590,-3.0417
2024-10-11T14:10:25.145Z,0.0257,-0.8838,0.1238,-0.3005,-0.8957,-0.1014,-0.0890,0.0125,0.0136,2.6264,1.4590,-3.0417
2024-10-11T14:10:25.155Z,0.0184,-0.8779,0.1306,-0.3005,-0.8957,-0.1014,-0.0889,-0.0030,0.0087,2.6264,1.4590,-3.0417
2024-10-11T14:10:25.165Z,0.0205,-0.8809,0.1263,-0.3134,-1.1097,-0.1755,-0.0881,-0.0266,0.0042,2.6208,1.4616,-3.0366
2024-10-11T14:10:25.175Z,0.0216,-0.8732,0.1152,-0.3134,-1.1097,-0.1755,-0.0888,-0.0383,0.0003,2.6208,1.4616,-3.0366
2024-10-11T14:10:25.185Z,0.0147,-0.8678,0.1184,-0.3134,-1.1097,-0.1755,-0.0888,-0.0445,-0.0033,2.6208,1.4616,-3.0366
2024-10-11T14:10:25.195Z,0.0099,-0.8630,0.1401,-0.2068,-1.2879,-0.3364,-0.0885,-0.0539,-0.0111,2.6188,1.4642,-3.0361
2024-10-11T14:10:25.205Z,-0.0113,-0.8680,0.1473,-0.2068,-1.2879,-0.3364,-0.0892,-0.0574,-0.0159,2.6188,1.4642,-3.0361
2024-10-11T14:10:25.215Z,-0.0043,-0.8719,0.1328,-0.2068,-1.2879,-0.3364,-0.0877,-0.0600,-0.0199,2.6188,1.4642,-3.0361
2024-10-11T14:10:25.225Z,-0.0013,-0.8833,0.1180,-0.0896,-1.0917,-0.1446,-0.0869,-0.0543,-0.0251,2.6213,1.4668,-3.0405
2024-10-11T14:10:25.237Z,-0.0163,-0.8942,0.1286,-0.0896,-1.0917,-0.1446,-0.0894,-0.0482,-0.0270,2.6213,1.4668,-3.0405
2024-10-11T14:10:25.245Z,-0.0092,-0.9037,0.1281,-0.0896,-1.0917,-0.1446,-0.0882,-0.0414,-0.0330,2.6213,1.4668,-3.0405
2024-10-11T14:10:25.255Z,-0.0109,-0.9117,0.1178,0.0144,-0.8160,-0.1678,-0.0890,-0.0297,-0.0331,2.6274,1.4695,-3.0481
2024-10-11T14:10:25.265Z,-0.0028,-0.9176,0.1006,0.0144,-0.8160,-0.1678,-0.0889,-0.0242,-0.0330,2.6274,1.4695,-3.0481
2024-10-11T14:10:25.275Z,-0.0053,-0.9213,0.0811,0.0144,-0.8160,-0.1678,-0.0869,-0.0095,-0.0353,2.6274,1.4695,-3.0481
2024-10-11T14:10:25.285Z,-0.0160,-0.9267,0.0731,0.0749,-0.6715,0.2452,-0.0886,0.0035,-0.0376,2.6352,1.4722,-3.0566
2024-10-11T14:10:25.295Z,-0.0181,-0.9268,0.0873,0.0749,-0.6715,0.2452,-0.0865,0.0160,-0.0408,2.6352,1.4722,-3.0566
2024-10-11T14:10:25.305Z,-0.0228,-0.9283,0.0893,0.0749,-0.6715,0.2452,-0.0862,0.0352,-0.0438,2.6352,1.4722,-3.0566
2024-10-11T14:10:25.315Z,-0.0262,-0.9305,0.0807,0.1864,-0.6371,0.1450,-0.0866,0.0532,-0.0432,2.6461,1.4749,-3.0667
2024-10-11T14:10:25.325Z,-0.0234,-0.9330,0.0759,0.1864,-0.6371,0.1450,-0.0848,0.0701,-0.0452,2.6461,1.4749,-3.0667
2024-10-11T14:10:25.335Z,-0.0290,-0.9337,0.0785,0.1864,-0.6371,0.1450,-0.0821,0.0924,-0.0498,2.6461,1.4749,-3.0667
2024-10-11T14:10:25.345Z,-0.0336,-0.9309,0.0752,0.2709,-0.6349,0.1755,-0.0755,0.1081,-0.0484,2.6592,1.4774,-3.0775
2024-10-11T14:10:25.355Z,-0.0278,-0.9304,0.0684,0.2709,-0.6349,0.1755,-0.0685,0.1263,-0.0525,2.6592,1.4774,-3.0775
2024-10-11T14:10:25.365Z,-0.0279,-0.9344,0.0603,0.2709,-0.6349,0.1755,-0.0600,0.1529,-0.0516,2.6592,1.4774,-3.0775
2024-10-11T14:10:25.375Z,-0.0284,-0.9411,0.0573,0.2317,-0.5366,0.3316,-0.0512,0.1740,-0.0533,2.6748,1.4794,-3.0889
2024-10-11T14:10:25.386Z,-0.0265,-0.9437,0.0584,0.2317,-0.5366,0.3316,-0.0452,0.1897,-0.0554,2.6748,1.4794,-3.0889
2024-10-11T14:10:25.395Z,-0.0320,-0.9469,0.0720,0.2317,-0.5366,0.3316,-0.0401,0.2057,-0.0553,2.6748,1.4794,-3.0889
2024-10-11T14:10:25.406Z,-0.0186,-0.9571,0.0828,0.1462,-0.3810,0.0698,-0.0334,0.2175,-0.0554,2.6923,1.4807,-3.1005
2024-10-11T14:10:25.415Z,-0.0109,-0.9638,0.1050,0.1462,-0.3810,0.0698,-0.0364,0.2291,-0.0548,2.6923,1.4807,-3.1005
2024-10-11T14:10:25.425Z,-0.0082,-0.9698,0.1252,0.1462,-0.3810,0.0698,-0.0375,0.2367,-0.0543,2.6923,1.4807,-3.1005
2024-10-11T14:10:25.436Z,-0.0089,-0.9781,0.1325,0.0610,-0.1763,-0.4295,-0.0423,0.2467,-0.0569,2.7105,1.4819,-3.1119
2024-10-11T14:10:25.444Z,-0.0087,-0.9883,0.1452,0.0610,-0.1763,-0.4295,-0.0481,0.2495,-0.0561,2.7105,1.4819,-3.1119
2024-10-11T14:10:25.455Z,-0.0010,-0.9954,0.1573,0.0610,-0.1763,-0.4295,-0.0553,0.2531,-0.0584,2.7105,1.4819,-3.1119
2024-10-11T14:10:25.465Z,-0.0020,-0.9984,0.1555,0.0039,0.0220,-0.6702,-0.0575,0.2548,-0.0591,2.7297,1.4835,-3.1238
2024-10-11T14:10:25.475Z,-0.0014,-0.9922,0.1446,0.0039,0.0220,-0.6702,-0.0576,0.2503,-0.0615,2.7297,1.4835,-3.1238
2024-10-11T14:10:25.486Z,-0.0139,-0.9869,0.1439,0.0039,0.0220,-0.6702,-0.0610,0.2480,-0.0704,2.7297,1.4835,-3.1238
2024-10-11T14:10:25.495Z,-0.0197,-0.9848,0.1411,0.1918,-0.1135,-0.5452,-0.0590,0.2450,-0.0772,2.7529,1.4852,-3.1398
2024-10-11T14:10:25.505Z,0.0071,-0.9770,0.1242,0.1918,-0.1135,-0.5452,-0.0558,0.2383,-0.0780,2.7529,1.4852,-3.1398
2024-10-11T14:10:25.515Z,0.0247,-0.9708,0.1073,0.1918,-0.1135,-0.5452,-0.0545,0.2336,-0.0782,2.7529,1.4852,-3.1398
2024-10-11T14:10:25.525Z,0.0311,-0.9649,0.0981,-0.2895,-0.3097,-0.1384,-0.0471,0.2232,-0.0792,2.7803,1.4867,3.1227
2024-10-11T14:10:25.536Z,0.0221,-0.9605,0.0902,-0.2895,-0.3097,-0.1384,-0.0426,0.2142,-0.0821,2.7803,1.4867,3.1227
2024-10-11T14:10:25.545Z,0.0203,-0.9510,0.0881,-0.2895,-0.3097,-0.1384,-0.0372,0.1986,-0.0825,2.7803,1.4867,3.1227
2024-10-11T14:10:25.555Z,0.0203,-0.9510,0.0881,-0.3792,-0.4908,0.0298,-0.0294,0.1845,-0.0797,2.8095,1.4877,3.0995
2024-10-11T14:10:25.565Z,0.0603,-0.9564,0.0767,-0.3792,-0.4908,0.0298,-0.0231,0.1698,-0.0753,2.8095,1.4877,3.0995
2024-10-11T14:10:25.575Z,0.0753,-0.9622,0.0645,-0.3792,-0.4908,0.0298,-0.0126,0.1537,-0.0697,2.8095,1.4877,3.0995
2024-10-11T14:10:25.587Z,0.0780,-0.9645,0.0532,-0.7143,-0.3151,0.2873,-0.0016,0.1340,-0.0662,2.8353,1.4880,3.0782
2024-10-11T14:10:25.595Z,0.0587,-0.9639,0.0491,-0.7143,-0.3151,0.2873,0.0078,0.1132,-0.0682,2.8353,1.4880,3.0782
2024-10-11T14:10:25.605Z,0.0560,-0.9661,0.0568,-0.7143,-0.3151,0.2873,0.0173,0.0884,-0.0630,2.8353,1.4880,3.0782
2024-10-11T14:10:25.614Z,0.0634,-0.9711,0.0529,-0.5542,-0.2497,0.2956,0.0315,0.0719,-0.0590,2.8574,1.4874,3.0588
2024-10-11T14:10:25.624Z,0.0731,-0.9731,0.0475,-0.5542,-0.2497,0.2956,0.0435,0.0521,-0.0562,2.8574,1.4874,3.0588
2024-10-11T14:10:25.636Z,0.0729,-0.9755,0.0415,-0.5542,-0.2497,0.2956,0.0557,0.0345,-0.0499,2.8574,1.4874,3.0588
2024-10-11T14:10:25.645Z,0.0736,-0.9780,0.0422,-0.6403,-0.1802,0.4161,0.0708,0.0170,-0.0430,2.8734,1.4857,3.0437
2024-10-11T14:10:25.655Z,0.0764,-0.9834,0.0441,-0.6403,-0.1802,0.4161,0.0807,0.0016,-0.0336,2.8734,1.4857,3.0437
2024-10-11T14:10:25.665Z,0.0689,-0.9918,0.0478,-0.6403,-0.1802,0.4161,0.0894,-0.0106,-0.0333,2.8734,1.4857,3.0437
2024-10-11T14:10:25.675Z,0.0490,-0.9981,0.0679,-0.3884,0.0192,0.1894,0.0985,-0.0160,-0.0327,2.8821,1.4830,3.0347
2024-10-11T14:10:25.687Z,0.0350,-1.0105,0.0760,-0.3884,0.0192,0.1894,0.1018,-0.0194,-0.0344,2.8821,1.4830,3.0347
2024-10-11T14:10:25.695Z,0.0285,-1.0270,0.0779,-0.3884,0.0192,0.1894,0.1113,-0.0214,-0.0342,2.8821,1.4830,3.0347
2024-10-11T14:10:25.705Z,0.0152,-1.0359,0.0773,-0.0465,0.3930,0.1295,0.1174,-0.0250,-0.0391,2.8895,1.4796,3.0264
2024-10-11T14:10:25.715Z,0.0058,-1.0413,0.0986,-0.0465,0.3930,0.1295,0.1204,-0.0230,-0.0451,2.8895,1.4796,3.0264
2024-10-11T14:10:25.725Z,-0.0080,-1.0508,0.1152,-0.0465,0.3930,0.1295,0.1259,-0.0231,-0.0527,2.8895,1.4796,3.0264
2024-10-11T14:10:25.736Z,-0.0220,-1.0622,0.1151,0.3334,0.6544,-0.2049,0.1262,-0.0224,-0.0578,2.9004,1.4757,3.0146
2024-10-11T14:10:25.745Z,-0.0360,-1.0822,0.1159,0.3334,0.6544,-0.2049,0.1283,-0.0187,-0.0709,2.9004,1.4757,3.0146
2024-10-11T14:10:25.755Z,-0.0479,-1.1096,0.1336,0.3334,0.6544,-0.2049,0.1250,-0.0193,-0.0815,2.9004,1.4757,3.0146
2024-10-11T14:10:25.765Z,-0.0559,-1.1311,0.1430,0.6898,1.3338,-0.4419,0.1218,-0.0154,-0.0925,2.9190,1.4717,2.9952
2024-10-11T14:10:25.775Z,-0.0533,-1.1422,0.1462,0.6898,1.3338,-0.4419,0.1202,-0.0143,-0.1013,2.9190,1.4717,2.9952
2024-10-11T14:10:25.785Z,-0.0320,-1.1469,0.1518,0.6898,1.3338,-0.4419,0.1184,-0.0172,-0.1032,2.9190,1.4717,2.9952
2024-10-11T14:10:25.795Z,-0.0096,-1.1268,0.1745,0.2665,1.2958,-0.7157,0.1141,-0.0277,-0.1038,2.9433,1.4676,2.9702
2024-10-11T14:10:25.805Z,-0.0119,-1.0957,0.1947,0.2665,1.2958,-0.7157,0.1066,-0.0390,-0.1010,2.9433,1.4676,2.9702
2024-10-11T14:10:25.815Z,-0.0056,-1.0813,0.1923,0.2665,1.2958,-0.7157,0.1018,-0.0475,-0.0943,2.9433,1.4676,2.9702
2024-10-11T14:10:25.825Z,0.0116,-1.0873,0.1781,0.0886,0.9125,-0.7208,0.1079,-0.0507,-0.0899,2.9647,1.4639,2.9473
2024-10-11T14:10:25.835Z,0.0207,-1.0979,0.1763,0.0886,0.9125,-0.7208,0.1102,-0.0423,-0.0845,2.9647,1.4639,2.9473
2024-10-11T14:10:25.845Z,0.0313,-1.0970,0.1810,0.0886,0.9125,-0.7208,0.1098,-0.0272,-0.0787,2.9647,1.4639,2.9473
2024-10-11T14:10:25.855Z,0.0201,-1.0982,0.1840,0.0291,1.0231,-0.7463,0.1105,-0.0057,-0.0761,2.9799,1.4602,2.9310
2024-10-11T14:10:25.865Z,0.0056,-1.0974,0.1888,0.0291,1.0231,-0.7463,0.1092,0.0150,-0.0772,2.9799,1.4602,2.9310
2024-10-11T14:10:25.875Z,-0.0024,-1.1105,0.1886,0.0291,1.0231,-0.7463,0.1029,0.0476,-0.0796,2.9799,1.4602,2.9310
2024-10-11T14:10:25.886Z,-0.0008,-1.1219,0.1874,0.2555,1.2597,-0.7488,0.0968,0.0807,-0.0780,2.9937,1.4566,2.9182
2024-10-11T14:10:25.895Z,-0.0023,-1.1285,0.1966,0.2555,1.2597,-0.7488,0.0890,0.1123,-0.0836,2.9937,1.4566,2.9182
2024-10-11T14:10:25.905Z,-0.0085,-1.1449,0.1959,0.2555,1.2597,-0.7488,0.0820,0.1472,-0.0857,2.9937,1.4566,2.9182
2024-10-11T14:10:25.915Z,-0.0004,-1.1566,0.1917,0.2713,1.6040,-0.7644,0.0759,0.1791,-0.0847,3.0098,1.4536,2.9061
2024-10-11T14:10:25.925Z,0.0059,-1.1521,0.1883,0.2713,1.6040,-0.7644,0.0647,0.2085,-0.0870,3.0098,1.4536,2.9061
2024-10-11T14:10:25.935Z,0.0059,-1.1442,0.1861,0.2713,1.6040,-0.7644,0.0582,0.2451,-0.0798,3.0098,1.4536,2.9061
2024-10-11T14:10:25.945Z,0.0095,-1.1205,0.1837,0.1909,1.2523,-0.6660,0.0482,0.2665,-0.0787,3.0260,1.4511,2.8967
2024-10-11T14:10:25.954Z,-0.0116,-1.1093,0.1765,0.1909,1.2523,-0.6660,0.0383,0.2927,-0.0796,3.0260,1.4511,2.8967
2024-10-11T14:10:25.965Z,-0.0263,-1.0892,0.1729,0.1909,1.2523,-0.6660,0.0271,0.3135,-0.0730,3.0260,1.4511,2.8967
2024-10-11T14:10:25.975Z,-0.0146,-1.0786,0.1678,0.4389,0.8430,-0.4981,0.0140,0.3339,-0.0681,3.0417,1.4496,2.8900
2024-10-11T14:10:25.985Z,-0.0089,-1.0749,0.1599,0.4389,0.8430,-0.4981,0.0014,0.3493,-0.0625,3.0417,1.4496,2.8900
2024-10-11T14:10:25.995Z,-0.0143,-1.0790,0.1569,0.4389,0.8430,-0.4981,-0.0047,0.3602,-0.0576,3.0417,1.4496,2.8900
2024-10-11T14:10:26.005Z,-0.0315,-1.0913,0.1414,0.6093,0.9686,-0.2343,-0.0107,0.3748,-0.0541,3.0553,1.4491,2.8870
2024-10-11T14:10:26.015Z,-0.0246,-1.1026,0.1473,0.6093,0.9686,-0.2343,-0.0199,0.3930,-0.0496,3.0553,1.4491,2.8870
2024-10-11T14:10:26.025Z,-0.0070,-1.1100,0.1464,0.6093,0.9686,-0.2343,-0.0225,0.4103,-0.0449,3.0553,1.4491,2.8870
2024-10-11T14:10:26.035Z,-0.0042,-1.1183,0.1385,0.3404,1.2332,-0.2072,-0.0279,0.4353,-0.0396,3.0670,1.4492,2.8875
2024-10-11T14:10:26.045Z,-0.0098,-1.1184,0.1463,0.3404,1.2332,-0.2072,-0.0354,0.4571,-0.0377,3.0670,1.4492,2.8875
2024-10-11T14:10:26.054Z,-0.0207,-1.1157,0.1452,0.3404,1.2332,-0.2072,-0.0419,0.4818,-0.0376,3.0670,1.4492,2.8875
2024-10-11T14:10:26.065Z,-0.0161,-1.1169,0.1390,0.4523,1.2183,-0.2193,-0.0433,0.5035,-0.0362,3.0783,1.4501,2.8902
2024-10-11T14:10:26.075Z,-0.0013,-1.1237,0.1206,0.4523,1.2183,-0.2193,-0.0421,0.5232,-0.0356,3.0783,1.4501,2.8902
2024-10-11T14:10:26.085Z,0.0016,-1.1219,0.1206,0.4523,1.2183,-0.2193,-0.0421,0.5368,-0.0348,3.0783,1.4501,2.8902
2024-10-11T14:10:26.095Z,0.0050,-1.1179,0.1356,0.2369,1.2264,-0.1941,-0.0427,0.5570,-0.0344,3.0896,1.4511,2.8949
2024-10-11T14:10:26.104Z,0.0045,-1.1133,0.1401,0.2369,1.2264,-0.1941,-0.0466,0.5722,-0.0373,3.0896,1.4511,2.8949
2024-10-11T14:10:26.114Z,0.0142,-1.1133,0.1612,0.2369,1.2264,-0.1941,-0.0484,0.5783,-0.0411,3.0896,1.4511,2.8949
2024-10-11T14:10:26.124Z,0.0355,-1.1179,0.1795,-0.0700,1.2251,-0.6341,-0.0551,0.5810,-0.0402,3.1017,1.4522,2.8998
2024-10-11T14:10:26.135Z,0.0470,-1.1276,0.1950,-0.0700,1.2251,-0.6341,-0.0591,0.5770,-0.0395,3.1017,1.4522,2.8998
2024-10-11T14:10:26.145Z,0.0483,-1.1328,0.2045,-0.0700,1.2251,-0.6341,-0.0592,0.5677,-0.0399,3.1017,1.4522,2.8998
2024-10-11T14:10:26.154Z,0.0542,-1.1396,0.1915,-0.2613,1.4363,-0.7642,-0.0594,0.5486,-0.0420,3.1148,1.4537,2.9036
2024-10-11T14:10:26.164Z,0.0675,-1.1414,0.1806,-0.2613,1.4363,-0.7642,-0.0541,0.5395,-0.0395,3.1148,1.4537,2.9036
2024-10-11T14:10:26.175Z,0.0802,-1.1407,0.1825,-0.2613,1.4363,-0.7642,-0.0520,0.5336,-0.0397,3.1148,1.4537,2.9036
2024-10-11T14:10:26.185Z,0.0976,-1.1359,0.1779,-0.6927,1.3990,-0.6430,-0.0519,0.5278,-0.0408,3.1283,1.4550,2.9062
2024-10-11T14:10:26.195Z,0.1055,-1.1337,0.1727,-0.6927,1.3990,-0.6430,-0.0466,0.5092,-0.0416,3.1283,1.4550,2.9062
2024-10-11T14:10:26.204Z,0.1037,-1.1300,0.1560,-0.6927,1.3990,-0.6430,-0.0424,0.5016,-0.0432,3.1283,1.4550,2.9062
2024-10-11T14:10:26.215Z,0.1035,-1.1298,0.1534,-0.7546,1.3381,-0.4100,-0.0389,0.4962,-0.0450,-3.1414,1.4559,2.9077
2024-10-11T14:10:26.225Z,0.1156,-1.1311,0.1479,-0.7546,1.3381,-0.4100,-0.0360,0.4831,-0.0496,-3.1414,1.4559,2.9077
2024-10-11T14:10:26.235Z,0.1169,-1.1338,0.1497,-0.7546,1.3381,-0.4100,-0.0309,0.4794,-0.0524,-3.1414,1.4559,2.9077
2024-10-11T14:10:26.245Z,0.1194,-1.1383,0.1461,-0.9114,1.4208,-0.3445,-0.0302,0.4757,-0.0584,-3.1265,1.4564,2.9070
2024-10-11T14:10:26.254Z,0.1269,-1.1373,0.1335,-0.9114,1.4208,-0.3445,-0.0249,0.4715,-0.0617,-3.1265,1.4564,2.9070
2024-10-11T14:10:26.265Z,0.1261,-1.1362,0.1235,-0.9114,1.4208,-0.3445,-0.0180,0.4609,-0.0653,-3.1265,1.4564,2.9070
2024-10-11T14:10:26.275Z,0.1190,-1.1395,0.1174,-0.9034,1.4322,-0.0653,-0.0133,0.4477,-0.0701,-3.1088,1.4566,2.9030
2024-10-11T14:10:26.285Z,0.1221,-1.1354,0.1154,-0.9034,1.4322,-0.0653,-0.0093,0.4336,-0.0759,-3.1088,1.4566,2.9030
2024-10-11T14:10:26.295Z,0.1286,-1.1340,0.1081,-0.9034,1.4322,-0.0653,-0.0019,0.4157,-0.0797,-3.1088,1.4566,2.9030
2024-10-11T14:10:26.305Z,0.1394,-1.1258,0.1167,-1.0945,1.2989,-0.0565,0.0036,0.3991,-0.0808,-3.0889,1.4561,2.8956
2024-10-11T14:10:26.315Z,0.1438,-1.1185,0.1230,-1.0945,1.2989,-0.0565,0.0059,0.3840,-0.0854,-3.0889,1.4561,2.8956
2024-10-11T14:10:26.325Z,0.1596,-1.1112,0.1334,-1.0945,1.2989,-0.0565,0.0063,0.3692,-0.0861,-3.0889,1.4561,2.8956
2024-10-11T14:10:26.334Z,0.1655,-1.1030,0.1346,-1.3375,1.0760,-0.2269,0.0060,0.3560,-0.0871,-3.0676,1.4553,2.8853
2024-10-11T14:10:26.345Z,0.1612,-1.0923,0.1332,-1.3375,1.0760,-0.2269,0.0040,0.3378,-0.0859,-3.0676,1.4553,2.8853
2024-10-11T14:10:26.355Z,0.1613,-1.0824,0.1425,-1.3375,1.0760,-0.2269,0.0022,0.3179,-0.0873,-3.0676,1.4553,2.8853
2024-10-11T14:10:26.365Z,0.1469,-1.0703,0.1525,-1.1403,0.7561,-0.3984,0.0012,0.2992,-0.0878,-3.0467,1.4545,2.8740
2024-10-11T14:10:26.375Z,0.1452,-1.0450,0.1502,-1.1403,0.7561,-0.3984,-0.0007,0.2784,-0.0866,-3.0467,1.4545,2.8740
2024-10-11T14:10:26.384Z,0.1539,-1.0198,0.1618,-1.1403,0.7561,-0.3984,-0.0052,0.2523,-0.0859,-3.0467,1.4545,2.8740
2024-10-11T14:10:26.395Z,0.1424,-1.0018,0.1576,-1.0792,0.0847,-0.4474,-0.0091,0.2258,-0.0874,-3.0254,1.4539,2.8602
2024-10-11T14:10:26.405Z,0.1442,-0.9833,0.1526,-1.0792,0.0847,-0.4474,-0.0119,0.1955,-0.0874,-3.0254,1.4539,2.8602
2024-10-11T14:10:26.415Z,0.1409,-0.9600,0.1394,-1.0792,0.0847,-0.4474,-0.0182,0.1656,-0.0885,-3.0254,1.4539,2.8602
2024-10-11T14:10:26.425Z,0.1249,-0.9364,0.1401,-0.8880,-0.5566,-0.2781,-0.0210,0.1354,-0.0832,-3.0034,1.4536,2.8432
2024-10-11T14:10:26.435Z,0.1396,-0.9080,0.1493,-0.8880,-0.5566,-0.2781,-0.0268,0.1039,-0.0817,-3.0034,1.4536,2.8432
2024-10-11T14:10:26.445Z,0.1451,-0.8945,0.1371,-0.8880,-0.5566,-0.2781,-0.0312,0.0714,-0.0746,-3.0034,1.4536,2.8432
2024-10-11T14:10:26.455Z,0.1465,-0.8861,0.1263,-1.0802,-1.0500,-0.1507,-0.0369,0.0439,-0.0711,-2.9825,1.4537,2.8246
2024-10-11T14:10:26.465Z,0.1519,-0.8818,0.1105,-1.0802,-1.0500,-0.1507,-0.0353,0.0121,-0.0633,-2.9825,1.4537,2.8246
2024-10-11T14:10:26.475Z,0.1521,-0.8846,0.1093,-1.0802,-1.0500,-0.1507,-0.0405,-0.0190,-0.0530,-2.9825,1.4537,2.8246
2024-10-11T14:10:26.485Z,0.1473,-0.8825,0.1044,-1.0713,-1.0858,0.0535,-0.0433,-0.0508,-0.0442,-2.9660,1.4543,2.8076
2024-10-11T14:10:26.495Z,0.1606,-0.8823,0.1076,-1.0713,-1.0858,0.0535,-0.0532,-0.0696,-0.0334,-2.9660,1.4543,2.8076
2024-10-11T14:10:26.505Z,0.1696,-0.8818,0.1071,-1.0713,-1.0858,0.0535,-0.0559,-0.0908,-0.0219,-2.9660,1.4543,2.8076
2024-10-11T14:10:26.515Z,0.1695,-0.8760,0.0916,-1.2789,-1.1518,0.1617,-0.0596,-0.1078,-0.0114,-2.9558,1.4556,2.7946
2024-10-11T14:10:26.525Z,0.1404,-0.8734,0.0628,-1.2789,-1.1518,0.1617,-0.0633,-0.1248,0.0010,-2.9558,1.4556,2.7946
2024-10-11T14:10:26.535Z,0.1362,-0.8720,0.0509,-1.2789,-1.1518,0.1617,-0.0662,-0.1448,0.0160,-2.9558,1.4556,2.7946
2024-10-11T14:10:26.545Z,0.1547,-0.8669,0.0280,-1.1324,-1.2432,0.7660,-0.0650,-0.1566,0.0243,-2.9526,1.4575,2.7871
2024-10-11T14:10:26.555Z,0.1446,-0.8635,0.0182,-1.1324,-1.2432,0.7660,-0.0573,-0.1696,0.0354,-2.9526,1.4575,2.7871
2024-10-11T14:10:26.565Z,0.1220,-0.8635,0.0065,-1.1324,-1.2432,0.7660,-0.0522,-0.1846,0.0434,-2.9526,1.4575,2.7871
2024-10-11T14:10:26.575Z,0.0941,-0.8601,0.0052,-0.5443,-1.3112,0.9718,-0.0418,-0.1917,0.0483,-2.9585,1.4594,2.7873
2024-10-11T14:10:26.585Z,0.0708,-0.8641,0.0141,-0.5443,-1.3112,0.9718,-0.0350,-0.1981,0.0535,-2.9585,1.4594,2.7873
2024-10-11T14:10:26.595Z,0.0710,-0.8617,0.0034,-0.5443,-1.3112,0.9718,-0.0261,-0.1986,0.0578,-2.9585,1.4594,2.7873
2024-10-11T14:10:26.605Z,0.0633,-0.8568,-0.0004,-0.2534,-1.3454,1.0167,-0.0135,-0.2007,0.0624,-2.9707,1.4607,2.7933
2024-10-11T14:10:26.615Z,0.0466,-0.8568,0.0096,-0.2534,-1.3454,1.0167,-0.0032,-0.2050,0.0629,-2.9707,1.4607,2.7933
2024-10-11T14:10:26.624Z,0.0274,-0.8506,0.0293,-0.2534,-1.3454,1.0167,0.0029,-0.2061,0.0653,-2.9707,1.4607,2.7933
2024-10-11T14:10:26.634Z,0.0130,-0.8435,0.0454,0.2287,-1.4769,0.5658,0.0081,-0.2066,0.0603,-2.9872,1.4613,2.8033
2024-10-11T14:10:26.645Z,0.0072,-0.8395,0.0478,0.2287,-1.4769,0.5658,0.0142,-0.2068,0.0572,-2.9872,1.4613,2.8033
2024-10-11T14:10:26.655Z,-0.0003,-0.8379,0.0461,0.2287,-1.4769,0.5658,0.0202,-0.2033,0.0554,-2.9872,1.4613,2.8033
2024-10-11T14:10:26.665Z,-0.0045,-0.8355,0.0336,0.3904,-1.5547,0.6848,0.0263,-0.2007,0.0493,-3.0031,1.4613,2.8127
2024-10-11T14:10:26.675Z,-0.0124,-0.8315,0.0237,0.3904,-1.5547,0.6848,0.0282,-0.1870,0.0400,-3.0031,1.4613,2.8127
2024-10-11T14:10:26.685Z,-0.0165,-0.8279,0.0337,0.3904,-1.5547,0.6848,0.0348,-0.1913,0.0372,-3.0031,1.4613,2.8127
2024-10-11T14:10:26.695Z,-0.0168,-0.8328,0.0321,0.5066,-1.5808,0.7078,0.0417,-0.2033,0.0325,-3.0163,1.4606,2.8194
2024-10-11T14:10:26.705Z,-0.0143,-0.8411,0.0382,0.5066,-1.5808,0.7078,0.0423,-0.2046,0.0246,-3.0163,1.4606,2.8194
2024-10-11T14:10:26.715Z,-0.0113,-0.8500,0.0330,0.5066,-1.5808,0.7078,0.0456,-0.2033,0.0211,-3.0163,1.4606,2.8194
2024-10-11T14:10:26.724Z,-0.0226,-0.8530,0.0314,0.5635,-1.3815,0.7262,0.0503,-0.1981,0.0162,-3.0257,1.4596,2.8227
2024-10-11T14:10:26.735Z,-0.0267,-0.8459,0.0346,0.5635,-1.3815,0.7262,0.0535,-0.1954,0.0113,-3.0257,1.4596,2.8227
2024-10-11T14:10:26.745Z,-0.0168,-0.8385,0.0387,0.5635,-1.3815,0.7262,0.0541,-0.1796,0.0052,-3.0257,1.4596,2.8227
2024-10-11T14:10:26.756Z,-0.0168,-0.8332,0.0285,0.5105,-1.5737,0.7681,0.0531,-0.1638,0.0017,-3.0316,1.4581,2.8229
2024-10-11T14:10:26.765Z,-0.0293,-0.8276,0.0226,0.5105,-1.5737,0.7681,0.0582,-0.1473,-0.0042,-3.0316,1.4581,2.8229
2024-10-11T14:10:26.775Z,-0.0408,-0.8227,0.0292,0.5105,-1.5737,0.7681,0.0608,-0.1262,-0.0128,-3.0316,1.4581,2.8229
2024-10-11T14:10:26.785Z,-0.0529,-0.8200,0.0376,0.8737,-1.7018,0.6961,0.0613,-0.1042,-0.0191,-3.0330,1.4562,2.8201
2024-10-11T14:10:26.795Z,-0.0483,-0.8215,0.0389,0.8737,-1.7018,0.6961,0.0590,-0.0852,-0.0275,-3.0330,1.4562,2.8201
2024-10-11T14:10:26.805Z,-0.0513,-0.8223,0.0492,0.8737,-1.7018,0.6961,0.0617,-0.0656,-0.0339,-3.0330,1.4562,2.8201
2024-10-11T14:10:26.815Z,-0.0503,-0.8276,0.0579,0.8594,-1.6250,0.5132,0.0583,-0.0529,-0.0411,-3.0303,1.4541,2.8150
2024-10-11T14:10:26.825Z,-0.0503,-0.8362,0.0732,0.8594,-1.6250,0.5132,0.0523,-0.0382,-0.0475,-3.0303,1.4541,2.8150
2024-10-11T14:10:26.835Z,-0.0522,-0.8439,0.0985,0.8594,-1.6250,0.5132,0.0445,-0.0264,-0.0512,-3.0303,1.4541,2.8150
2024-10-11T14:10:26.845Z,-0.0442,-0.8517,0.1071,0.8155,-1.3863,0.0445,0.0408,-0.0181,-0.0550,-3.0223,1.4523,2.8058
2024-10-11T14:10:26.855Z,-0.0316,-0.8568,0.1056,0.8155,-1.3863,0.0445,0.0341,-0.0121,-0.0619,-3.0223,1.4523,2.8058
2024-10-11T14:10:26.865Z,-0.0293,-0.8664,0.1020,0.8155,-1.3863,0.0445,0.0286,-0.0039,-0.0639,-3.0223,1.4523,2.8058
2024-10-11T14:10:26.874Z,-0.0266,-0.8740,0.1021,0.6629,-1.1657,0.1028,0.0291,0.0021,-0.0683,-3.0099,1.4507,2.7930
2024-10-11T14:10:26.885Z,-0.0239,-0.8758,0.0995,0.6629,-1.1657,0.1028,0.0244,0.0059,-0.0736,-3.0099,1.4507,2.7930
2024-10-11T14:10:26.895Z,-0.0311,-0.8604,0.0968,0.6629,-1.1657,0.1028,0.0218,0.0179,-0.0757,-3.0099,1.4507,2.7930
2024-10-11T14:10:26.905Z,-0.0423,-0.8314,0.0998,0.8378,-1.5818,0.1333,0.0229,0.0186,-0.0791,-2.9949,1.4492,2.7784
2024-10-11T14:10:26.915Z,-0.0201,-0.8734,0.1259,0.8378,-1.5818,0.1333,0.0165,0.0310,-0.0777,-2.9949,1.4492,2.7784
2024-10-11T14:10:26.924Z,-0.0096,-0.8609,0.1293,0.8378,-1.5818,0.1333,0.0104,0.0309,-0.0795,-2.9949,1.4492,2.7784
2024-10-11T14:10:26.935Z,0.0197,-0.8747,0.1473,0.2511,-1.1557,-0.3283,0.0048,0.0400,-0.0781,-2.9784,1.4480,2.7627
2024-10-11T14:10:26.945Z,0.0021,-0.8784,0.1473,0.2511,-1.1557,-0.3283,-0.0046,0.0396,-0.0760,-2.9784,1.4480,2.7627
2024-10-11T14:10:26.955Z,0.0121,-0.8922,0.1544,0.2511,-1.1557,-0.3283,-0.0084,0.0354,-0.0779,-2.9784,1.4480,2.7627
2024-10-11T14:10:26.965Z,-0.0007,-0.8937,0.1382,0.4723,-0.9679,-0.2409,-0.0108,0.0342,-0.0791,-2.9604,1.4473,2.7457
2024-10-11T14:10:26.975Z,0.0000,-0.9013,0.1310,0.4723,-0.9679,-0.2409,-0.0160,0.0332,-0.0785,-2.9604,1.4473,2.7457
2024-10-11T14:10:26.985Z,-0.0026,-0.8982,0.1227,0.4723,-0.9679,-0.2409,-0.0205,0.0339,-0.0822,-2.9604,1.4473,2.7457
2024-10-11T14:10:26.995Z,0.0029,-0.8981,0.1320,0.4597,-0.9241,-0.1859,-0.0263,0.0335,-0.0781,-2.9408,1.4469,2.7270
2024-10-11T14:10:27.005Z,0.0078,-0.8964,0.1314,0.4597,-0.9241,-0.1859,-0.0281,0.0346,-0.0768,-2.9408,1.4469,2.7270
2024-10-11T14:10:27.015Z,0.0242,-0.8996,0.1314,0.4597,-0.9241,-0.1859,-0.0339,0.0415,-0.0754,-2.9408,1.4469,2.7270
2024-10-11T14:10:27.025Z,0.0222,-0.9005,0.1297,0.2914,-0.9010,-0.1718,-0.0347,0.0460,-0.0694,-2.9213,1.4468,2.7085
2024-10-11T14:10:27.035Z,0.0287,-0.9099,0.1209,0.2914,-0.9010,-0.1718,-0.0392,0.0538,-0.0678,-2.9213,1.4468,2.7085
2024-10-11T14:10:27.045Z,0.0225,-0.9092,0.1050,0.2914,-0.9010,-0.1718,-0.0408,0.0647,-0.0673,-2.9213,1.4468,2.7085
2024-10-11T14:10:27.055Z,0.0196,-0.9111,0.0966,0.3346,-0.7969,0.1429,-0.0436,0.0716,-0.0653,-2.9025,1.4470,2.6915
2024-10-11T14:10:27.065Z,0.0172,-0.9096,0.0968,0.3346,-0.7969,0.1429,-0.0448,0.0842,-0.0642,-2.9025,1.4470,2.6915
2024-10-11T14:10:27.075Z,0.0129,-0.9113,0.0954,0.3346,-0.7969,0.1429,-0.0491,0.0875,-0.0649,-2.9025,1.4470,2.6915
2024-10-11T14:10:27.085Z,-0.0004,-0.9124,0.1021,0.5465,-0.7850,0.0764,-0.0516,0.0906,-0.0649,-2.8833,1.4475,2.6748
2024-10-11T14:10:27.095Z,0.0022,-0.9147,0.1068,0.5465,-0.7850,0.0764,-0.0561,0.0979,-0.0674,-2.8833,1.4475,2.6748
2024-10-11T14:10:27.105Z,-0.0030,-0.9165,0.1020,0.5465,-0.7850,0.0764,-0.0577,0.0994,-0.0700,-2.8833,1.4475,2.6748
2024-10-11T14:10:27.115Z,-0.0026,-0.9194,0.0886,0.5850,-0.7171,0.1934,-0.0580,0.1026,-0.0696,-2.8624,1.4480,2.6568
2024-10-11T14:10:27.124Z,0.0055,-0.9155,0.0746,0.5850,-0.7171,0.1934,-0.0564,0.1073,-0.0709,-2.8624,1.4480,2.6568
2024-10-11T14:10:27.135Z,0.0080,-0.9120,0.0608,0.5850,-0.7171,0.1934,-0.0539,0.1091,-0.0720,-2.8624,1.4480,2.6568
2024-10-11T14:10:27.144Z,-0.0002,-0.9042,0.0642,0.5791,-0.8666,0.4180,-0.0548,0.1092,-0.0751,-2.8405,1.4485,2.6380
2024-10-11T14:10:27.155Z,-0.0049,-0.8988,0.0673,0.5791,-0.8666,0.4180,-0.0568,0.1076,-0.0797,-2.8405,1.4485,2.6380
2024-10-11T14:10:27.165Z,0.0074,-0.9011,0.0611,0.5791,-0.8666,0.4180,-0.0566,0.1002,-0.0773,-2.8405,1.4485,2.6380
2024-10-11T14:10:27.175Z,0.0316,-0.9037,0.0528,0.2871,-0.8718,0.5158,-0.0553,0.0976,-0.0726,-2.8175,1.4489,2.6180
2024-10-11T14:10:27.185Z,0.0467,-0.9092,0.0492,0.2871,-0.8718,0.5158,-0.0587,0.0940,-0.0681,-2.8175,1.4489,2.6180
2024-10-11T14:10:27.195Z,0.0478,-0.9052,0.0515,0.2871,-0.8718,0.5158,-0.0578,0.0889,-0.0617,-2.8175,1.4489,2.6180
2024-10-11T14:10:27.206Z,0.0483,-0.9045,0.0514,0.1384,-0.8644,0.5137,-0.0604,0.0770,-0.0583,-2.7970,1.4494,2.6000
2024-10-11T14:10:27.215Z,0.0389,-0.9015,0.0572,0.1384,-0.8644,0.5137,-0.0615,0.0694,-0.0555,-2.7970,1.4494,2.6000
2024-10-11T14:10:27.225Z,0.0358,-0.9023,0.0519,0.1384,-0.8644,0.5137,-0.0597,0.0641,-0.0505,-2.7970,1.4494,2.6000
2024-10-11T14:10:27.235Z,0.0423,-0.9015,0.0248,0.2107,-0.8951,0.7590,-0.0594,0.0615,-0.0506,-2.7788,1.4501,2.5835
2024-10-11T14:10:27.245Z,0.0377,-0.9017,0.0073,0.2107,-0.8951,0.7590,-0.0499,0.0631,-0.0464,-2.7788,1.4501,2.5835
2024-10-11T14:10:27.255Z,0.0262,-0.8951,-0.0059,0.2107,-0.8951,0.7590,-0.0415,0.0641,-0.0479,-2.7788,1.4501,2.5835
2024-10-11T14:10:27.265Z,0.0087,-0.8933,-0.0063,0.5521,-0.9758,1.0525,-0.0358,0.0674,-0.0507,-2.7629,1.4504,2.5694
2024-10-11T14:10:27.275Z,-0.0032,-0.8935,-0.0022,0.5521,-0.9758,1.0525,-0.0249,0.0709,-0.0549,-2.7629,1.4504,2.5694
2024-10-11T14:10:27.285Z,-0.0002,-0.9042,0.0035,0.5521,-0.9758,1.0525,-0.0183,0.0772,-0.0546,-2.7629,1.4504,2.5694
2024-10-11T14:10:27.295Z,-0.0090,-0.9147,0.0092,0.7396,-0.7654,0.8967,-0.0079,0.0857,-0.0561,-2.7494,1.4500,2.5581
2024-10-11T14:10:27.305Z,-0.0242,-0.9296,0.0218,0.7396,-0.7654,0.8967,0.0009,0.0967,-0.0577,-2.7494,1.4500,2.5581
2024-10-11T14:10:27.315Z,-0.0577,-0.9300,0.0370,0.7396,-0.7654,0.8967,0.0055,0.1157,-0.0660,-2.7494,1.4500,2.5581
2024-10-11T14:10:27.325Z,-0.0756,-0.9334,0.0466,1.4083,-0.5801,0.5322,0.0085,0.1348,-0.0686,-2.7370,1.4488,2.5488
2024-10-11T14:10:27.335Z,-0.0839,-0.9725,0.0434,1.4083,-0.5801,0.5322,0.0131,0.1549,-0.0680,-2.7370,1.4488,2.5488
2024-10-11T14:10:27.345Z,-0.0835,-1.0343,0.0489,1.4083,-0.5801,0.5322,0.0186,0.1748,-0.0692,-2.7370,1.4488,2.5488
2024-10-11T14:10:27.356Z,-0.0856,-1.0856,0.0639,1.5220,0.9150,0.3712,0.0180,0.1919,-0.0731,-2.7251,1.4473,2.5419
2024-10-11T14:10:27.365Z,-0.0777,-1.1187,0.0692,1.5220,0.9150,0.3712,0.0131,0.2206,-0.0818,-2.7251,1.4473,2.5419
2024-10-11T14:10:27.375Z,-0.0739,-1.1301,0.0750,1.5220,0.9150,0.3712,0.0010,0.2419,-0.0917,-2.7251,1.4473,2.5419
2024-10-11T14:10:27.385Z,-0.0497,-1.1220,0.0792,1.1889,1.2733,0.2271,-0.0113,0.2610,-0.0998,-2.7083,1.4457,2.5319
2024-10-11T14:10:27.395Z,-0.0296,-1.1153,0.0831,1.1889,1.2733,0.2271,-0.0158,0.2739,-0.1077,-2.7083,1.4457,2.5319
2024-10-11T14:10:27.406Z,-0.0093,-1.1148,0.0862,1.1889,1.2733,0.2271,-0.0170,0.2768,-0.1100,-2.7083,1.4457,2.5319
2024-10-11T14:10:27.415Z,0.0207,-1.1026,0.0895,0.5203,1.0855,0.1280,-0.0077,0.2746,-0.1032,-2.6860,1.4441,2.5179
2024-10-11T14:10:27.426Z,0.0533,-1.0925,0.0887,0.5203,1.0855,0.1280,0.0042,0.2559,-0.0935,-2.6860,1.4441,2.5179
2024-10-11T14:10:27.435Z,0.0961,-1.0692,0.1045,0.5203,1.0855,0.1280,0.0194,0.2302,-0.0821,-2.6860,1.4441,2.5179
2024-10-11T14:10:27.445Z,0.0966,-1.0841,0.1434,-0.2070,0.9061,-0.3909,0.0312,0.2165,-0.0670,-2.6725,1.4423,2.5114
2024-10-11T14:10:27.455Z,0.0773,-1.0803,0.1598,-0.2070,0.9061,-0.3909,0.0460,0.2043,-0.0511,-2.6725,1.4423,2.5114
2024-10-11T14:10:27.465Z,0.0767,-1.0867,0.1729,-0.2070,0.9061,-0.3909,0.0585,0.1979,-0.0369,-2.6725,1.4423,2.5114
2024-10-11T14:10:27.475Z,0.0585,-1.0964,0.1776,0.1731,1.0287,-0.7070,0.0633,0.2059,-0.0297,-2.6719,1.4403,2.5167
2024-10-11T14:10:27.485Z,0.0334,-1.1105,0.1672,0.1731,1.0287,-0.7070,0.0710,0.2227,-0.0230,-2.6719,1.4403,2.5167
2024-10-11T14:10:27.495Z,0.0249,-1.1225,0.1483,0.1731,1.0287,-0.7070,0.0726,0.2383,-0.0238,-2.6719,1.4403,2.5167
2024-10-11T14:10:27.506Z,0.0286,-1.1297,0.1559,0.4661,1.3589,-0.4684,0.0686,0.2542,-0.0245,-2.6770,1.4382,2.5285
2024-10-11T14:10:27.515Z,0.0293,-1.1251,0.1620,0.4661,1.3589,-0.4684,0.0633,0.2740,-0.0251,-2.6770,1.4382,2.5285
2024-10-11T14:10:27.525Z,0.0302,-1.1242,0.1399,0.4661,1.3589,-0.4684,0.0558,0.2879,-0.0275,-2.6770,1.4382,2.5285
2024-10-11T14:10:27.535Z,0.0348,-1.1232,0.1317,0.4031,1.2969,-0.2084,0.0512,0.3015,-0.0273,-2.6799,1.4363,2.5395
2024-10-11T14:10:27.545Z,0.0406,-1.1158,0.1326,0.4031,1.2969,-0.2084,0.0467,0.3159,-0.0259,-2.6799,1.4363,2.5395
2024-10-11T14:10:27.556Z,0.0484,-1.1126,0.1335,0.4031,1.2969,-0.2084,0.0445,0.3213,-0.0252,-2.6799,1.4363,2.5395
2024-10-11T14:10:27.565Z,0.0503,-1.1083,0.1276,0.2483,1.1531,-0.1479,0.0435,0.3166,-0.0268,-2.6809,1.4348,2.5497
2024-10-11T14:10:27.575Z,0.0432,-1.1004,0.1090,0.2483,1.1531,-0.1479,0.0434,0.3185,-0.0250,-2.6809,1.4348,2.5497
2024-10-11T14:10:27.585Z,0.0476,-1.0891,0.1086,0.2483,1.1531,-0.1479,0.0465,0.3172,-0.0202,-2.6809,1.4348,2.5497
2024-10-11T14:10:27.595Z,0.0568,-1.0774,0.1194,0.1803,0.8523,-0.0466,0.0494,0.3140,-0.0138,-2.6834,1.4333,2.5613
2024-10-11T14:10:27.605Z,0.0697,-1.0765,0.1293,0.1803,0.8523,-0.0466,0.0495,0.3076,-0.0084,-2.6834,1.4333,2.5613
2024-10-11T14:10:27.615Z,0.0784,-1.0819,0.1423,0.1803,0.8523,-0.0466,0.0553,0.2996,-0.0018,-2.6834,1.4333,2.5613
2024-10-11T14:10:27.625Z,0.0747,-1.0960,0.1550,-0.0045,1.0359,-0.3734,0.0571,0.2929,0.0070,-2.6896,1.4319,2.5762
2024-10-11T14:10:27.635Z,0.0598,-1.1135,0.1669,-0.0045,1.0359,-0.3734,0.0564,0.2912,0.0128,-2.6896,1.4319,2.5762
2024-10-11T14:10:27.645Z,0.0577,-1.1236,0.1800,-0.0045,1.0359,-0.3734,0.0555,0.2864,0.0197,-2.6896,1.4319,2.5762
2024-10-11T14:10:27.657Z,0.0507,-1.1341,0.1862,0.2157,1.4120,-0.6574,0.0546,0.2831,0.0250,-2.6993,1.4307,2.5943
2024-10-11T14:10:27.665Z,0.0367,-1.1420,0.1812,0.2157,1.4120,-0.6574,0.0516,0.2846,0.0281,-2.6993,1.4307,2.5943
2024-10-11T14:10:27.675Z,0.0272,-1.1476,0.1664,0.2157,1.4120,-0.6574,0.0513,0.2898,0.0316,-2.6993,1.4307,2.5943
2024-10-11T14:10:27.685Z,0.0369,-1.1494,0.1649,0.3311,1.5626,-0.4271,0.0498,0.2973,0.0372,-2.7109,1.4299,2.6141
2024-10-11T14:10:27.694Z,0.0429,-1.1575,0.1689,0.3311,1.5626,-0.4271,0.0480,0.3145,0.0395,-2.7109,1.4299,2.6141
2024-10-11T14:10:27.708Z,0.0415,-1.1621,0.1573,0.3675,1.7269,-0.2276,0.0459,0.3291,0.0400,-2.7238,1.4293,2.6364
2024-10-11T14:10:27.715Z,0.0308,-1.1660,0.1466,0.3675,1.7269,-0.2276,0.0475,0.3422,0.0449,-2.7238,1.4293,2.6364
2024-10-11T14:10:27.725Z,0.0300,-1.1647,0.1406,0.3675,1.7269,-0.2276,0.0474,0.3494,0.0495,-2.7238,1.4293,2.6364
2024-10-11T14:10:27.735Z,0.0404,-1.1708,0.1415,0.3675,1.7269,-0.2276,0.0480,0.3592,0.0526,-2.7238,1.4293,2.6364
2024-10-11T14:10:27.745Z,0.0414,-1.1776,0.1443,0.2355,1.8411,-0.1840,0.0511,0.3699,0.0534,-2.7383,1.4288,2.6613
2024-10-11T14:10:27.756Z,0.0370,-1.1905,0.1301,0.2355,1.8411,-0.1840,0.0516,0.3725,0.0546,-2.7383,1.4288,2.6613
2024-10-11T14:10:27.765Z,0.0270,-1.1960,0.1428,0.2355,1.8411,-0.1840,0.0522,0.3772,0.0548,-2.7383,1.4288,2.6613
2024-10-11T14:10:27.775Z,0.0233,-1.1992,0.1598,0.3830,2.0539,-0.3144,0.0463,0.3821,0.0512,-2.7538,1.4282,2.6876
2024-10-11T14:10:27.785Z,0.0281,-1.2034,0.1701,0.3830,2.0539,-0.3144,0.0410,0.3814,0.0464,-2.7538,1.4282,2.6876
2024-10-11T14:10:27.795Z,0.0240,-1.1999,0.1763,0.3830,2.0539,-0.3144,0.0384,0.3861,0.0438,-2.7538,1.4282,2.6876
2024-10-11T14:10:27.806Z,0.0031,-1.1963,0.1719,0.5525,2.0261,-0.4150,0.0304,0.4060,0.0309,-2.7667,1.4278,2.7118
2024-10-11T14:10:27.815Z,-0.0155,-1.2000,0.1649,0.5525,2.0261,-0.4150,0.0274,0.4204,0.0239,-2.7667,1.4278,2.7118
2024-10-11T14:10:27.825Z,-0.0294,-1.2044,0.1479,0.5525,2.0261,-0.4150,0.0228,0.4419,0.0119,-2.7667,1.4278,2.7118
2024-10-11T14:10:27.836Z,-0.0269,-1.2077,0.1376,0.8259,2.1387,-0.0637,0.0176,0.4797,-0.0064,-2.7720,1.4273,2.7298
2024-10-11T14:10:27.846Z,-0.0112,-1.2127,0.1384,0.8259,2.1387,-0.0637,0.0090,0.4889,-0.0136,-2.7720,1.4273,2.7298
2024-10-11T14:10:27.855Z,0.0214,-1.2143,0.1495,0.8259,2.1387,-0.0637,0.0090,0.4889,-0.0136,-2.7720,1.4273,2.7298
2024-10-11T14:10:27.865Z,0.0293,-1.2173,0.1543,0.2590,2.2329,-0.2167,0.0056,0.4995,-0.0213,-2.7708,1.4268,2.7429
2024-10-11T14:10:27.874Z,0.0207,-1.2244,0.1731,0.2590,2.2329,-0.2167,-0.0063,0.5089,-0.0316,-2.7708,1.4268,2.7429
2024-10-11T14:10:27.885Z,0.0042,-1.2290,0.1755,0.2590,2.2329,-0.2167,-0.0095,0.5191,-0.0380,-2.7708,1.4268,2.7429
2024-10-11T14:10:27.895Z,0.0115,-1.2329,0.1769,0.4238,2.3869,-0.4329,-0.0177,0.5313,-0.0442,-2.7633,1.4267,2.7508
2024-10-11T14:10:27.906Z,0.0328,-1.2404,0.1676,0.4238,2.3869,-0.4329,-0.0284,0.5435,-0.0575,-2.7633,1.4267,2.7508
2024-10-11T14:10:27.915Z,0.0354,-1.2496,0.1647,0.4238,2.3869,-0.4329,-0.0284,0.5435,-0.0575,-2.7633,1.4267,2.7508
2024-10-11T14:10:27.925Z,0.0264,-1.2430,0.1566,0.2725,2.4854,-0.2324,-0.0276,0.5465,-0.0639,-2.7509,1.4268,2.7544
2024-10-11T14:10:27.935Z,0.0279,-1.2434,0.1560,0.2725,2.4854,-0.2324,-0.0390,0.5571,-0.0810,-2.7509,1.4268,2.7544
2024-10-11T14:10:27.946Z,0.0320,-1.2330,0.1642,0.2725,2.4854,-0.2324,-0.0415,0.5451,-0.0879,-2.7509,1.4268,2.7544
2024-10-11T14:10:27.956Z,0.0507,-1.2234,0.1612,0.0353,2.2931,-0.2795,-0.0433,0.5452,-0.0959,-2.7330,1.4269,2.7530
2024-10-11T14:10:27.966Z,0.0643,-1.2191,0.1429,0.0353,2.2931,-0.2795,-0.0399,0.5373,-0.1052,-2.7330,1.4269,2.7530
2024-10-11T14:10:27.976Z,0.0573,-1.2115,0.1340,0.0353,2.2931,-0.2795,-0.0420,0.5306,-0.1093,-2.7330,1.4269,2.7530
2024-10-11T14:10:27.986Z,0.0741,-1.2115,0.1506,-0.1849,2.1759,-0.1791,-0.0421,0.5164,-0.1129,-2.7102,1.4269,2.7463
2024-10-11T14:10:27.996Z,0.0909,-1.2017,0.1448,-0.1849,2.1759,-0.1791,-0.0450,0.4965,-0.1184,-2.7102,1.4269,2.7463
2024-10-11T14:10:28.006Z,0.0970,-1.1952,0.1504,-0.1849,2.1759,-0.1791,-0.0477,0.4834,-0.1287,-2.7102,1.4269,2.7463
2024-10-11T14:10:28.016Z,0.0914,-1.1871,0.1674,-0.3395,1.9368,-0.3482,-0.0495,0.4617,-0.1308,-2.6839,1.4267,2.7352
2024-10-11T14:10:28.026Z,0.0849,-1.1824,0.1872,-0.3395,1.9368,-0.3482,-0.0528,0.4326,-0.1364,-2.6839,1.4267,2.7352
2024-10-11T14:10:28.034Z,0.1097,-1.1816,0.2185,-0.3395,1.9368,-0.3482,-0.0528,0.4326,-0.1364,-2.6839,1.4267,2.7352
2024-10-11T14:10:28.045Z,0.1165,-1.1813,0.2332,-0.5641,1.8800,-1.0018,-0.0610,0.3778,-0.1480,-2.6540,1.4266,2.7184
2024-10-11T14:10:28.055Z,0.1241,-1.1746,0.2361,-0.5641,1.8800,-1.0018,-0.0635,0.3479,-0.1529,-2.6540,1.4266,2.7184
2024-10-11T14:10:28.065Z,0.1363,-1.1687,0.2496,-0.5641,1.8800,-1.0018,-0.0659,0.3252,-0.1544,-2.6540,1.4266,2.7184
2024-10-11T14:10:28.075Z,0.1520,-1.1604,0.2482,-0.8818,1.6756,-1.1609,-0.0659,0.3252,-0.1544,-2.6202,1.4263,2.6954
2024-10-11T14:10:28.085Z,0.1624,-1.1568,0.2327,-0.8818,1.6756,-1.1609,-0.0729,0.2780,-0.1509,-2.6202,1.4263,2.6954
2024-10-11T14:10:28.096Z,0.1877,-1.1517,0.2285,-0.8818,1.6756,-1.1609,-0.0760,0.2547,-0.1480,-2.6202,1.4263,2.6954
2024-10-11T14:10:28.105Z,0.2183,-1.1471,0.2256,-1.4988,1.5457,-0.9542,-0.0798,0.2399,-0.1385,-2.5858,1.4262,2.6696
2024-10-11T14:10:28.115Z,0.2284,-1.1378,0.2251,-1.4988,1.5457,-0.9542,-0.0830,0.2130,-0.1331,-2.5858,1.4262,2.6696
2024-10-11T14:10:28.124Z,0.2216,-1.1363,0.2224,-1.4988,1.5457,-0.9542,-0.0830,0.2130,-0.1331,-2.5858,1.4262,2.6696
2024-10-11T14:10:28.135Z,0.2323,-1.1222,0.2247,-1.6045,1.3010,-0.9646,-0.0934,0.1654,-0.1205,-2.5531,1.4265,2.6435
2024-10-11T14:10:28.146Z,0.2205,-1.1175,0.2288,-1.6045,1.3010,-0.9646,-0.0962,0.1320,-0.1157,-2.5531,1.4265,2.6435
2024-10-11T14:10:28.155Z,0.2215,-1.0961,0.2083,-1.6045,1.3010,-0.9646,-0.1083,0.1109,-0.1098,-2.5531,1.4265,2.6435
2024-10-11T14:10:28.165Z,0.2125,-1.0755,0.2014,-1.3818,0.8415,-0.7615,-0.1173,0.0810,-0.0994,-2.5222,1.4273,2.6169
2024-10-11T14:10:28.174Z,0.2007,-1.0524,0.1992,-1.3818,0.8415,-0.7615,-0.1173,0.0810,-0.0994,-2.5222,1.4273,2.6169
2024-10-11T14:10:28.185Z,0.2184,-1.0254,0.1783,-1.3818,0.8415,-0.7615,-0.1347,0.0320,-0.0815,-2.5222,1.4273,2.6169
2024-10-11T14:10:28.195Z,0.1944,-1.0183,0.1632,-1.1787,0.2779,-0.4215,-0.1400,0.0091,-0.0759,-2.4920,1.4290,2.5885
2024-10-11T14:10:28.205Z,0.2015,-0.9990,0.1519,-1.1787,0.2779,-0.4215,-0.1471,-0.0069,-0.0649,-2.4920,1.4290,2.5885
2024-10-11T14:10:28.215Z,0.1909,-0.9910,0.1396,-1.1787,0.2779,-0.4215,-0.1537,-0.0319,-0.0575,-2.4920,1.4290,2.5885
2024-10-11T14:10:28.225Z,0.1731,-0.9642,0.1312,-0.9500,-0.2560,-0.1498,-0.1617,-0.0432,-0.0495,-2.4632,1.4316,2.5596
2024-10-11T14:10:28.235Z,0.1652,-0.9468,0.1224,-0.9500,-0.2560,-0.1498,-0.1624,-0.0561,-0.0388,-2.4632,1.4316,2.5596
2024-10-11T14:10:28.245Z,0.1443,-0.9274,0.1058,-0.9500,-0.2560,-0.1498,-0.1609,-0.0617,-0.0279,-2.4632,1.4316,2.5596
2024-10-11T14:10:28.255Z,0.1521,-0.9005,0.0899,-0.7306,-0.8857,0.2069,-0.1597,-0.0670,-0.0156,-2.4363,1.4349,2.5312
2024-10-11T14:10:28.265Z,0.1588,-0.8548,0.0469,-0.7306,-0.8857,0.2069,-0.1559,-0.0777,0.0002,-2.4363,1.4349,2.5312
2024-10-11T14:10:28.274Z,0.1588,-0.8548,0.0469,-0.7306,-0.8857,0.2069,-0.1559,-0.0777,0.0002,-2.4363,1.4349,2.5312
2024-10-11T14:10:28.285Z,0.1503,-0.8512,0.0322,-0.7091,-1.3739,0.7256,-0.1406,-0.0914,0.0298,-2.4153,1.4386,2.5079
2024-10-11T14:10:28.295Z,0.1548,-0.8436,0.0162,-0.7091,-1.3739,0.7256,-0.1308,-0.0954,0.0453,-2.4153,1.4386,2.5079
2024-10-11T14:10:28.305Z,0.1387,-0.8466,-0.0017,-0.7091,-1.3739,0.7256,-0.1243,-0.0979,0.0530,-2.4153,1.4386,2.5079
2024-10-11T14:10:28.315Z,0.0908,-0.8119,-0.0058,-0.3215,-1.5217,1.0458,-0.1164,-0.1017,0.0603,-2.4043,1.4425,2.4938
2024-10-11T14:10:28.325Z,0.0908,-0.8119,-0.0058,-0.3215,-1.5217,1.0458,-0.1144,-0.0957,0.0658,-2.4043,1.4425,2.4938
2024-10-11T14:10:28.335Z,0.0805,-0.7976,0.0060,-0.3215,-1.5217,1.0458,-0.1076,-0.0891,0.0701,-2.4043,1.4425,2.4938
2024-10-11T14:10:28.345Z,0.0535,-0.7926,0.0002,0.2165,-1.9591,0.9631,-0.1025,-0.0817,0.0696,-2.3999,1.4464,2.4864
2024-10-11T14:10:28.355Z,0.0598,-0.7986,-0.0002,0.2165,-1.9591,0.9631,-0.0966,-0.0673,0.0705,-2.3999,1.4464,2.4864
2024-10-11T14:10:28.365Z,0.0492,-0.8062,-0.0081,0.2165,-1.9591,0.9631,-0.0887,-0.0626,0.0730,-2.3999,1.4464,2.4864
2024-10-11T14:10:28.375Z,0.0418,-0.8028,-0.0086,0.3130,-1.8627,1.0191,-0.0813,-0.0589,0.0755,-2.3990,1.4500,2.4830
2024-10-11T14:10:28.386Z,0.0269,-0.8073,-0.0127,0.3130,-1.8627,1.0191,-0.0719,-0.0541,0.0740,-2.3990,1.4500,2.4830
2024-10-11T14:10:28.395Z,0.0269,-0.8073,-0.0127,0.3130,-1.8627,1.0191,-0.0639,-0.0476,0.0781,-2.3990,1.4500,2.4830
2024-10-11T14:10:28.406Z,0.0150,-0.7959,-0.0114,0.4974,-1.8344,0.9831,-0.0562,-0.0386,0.0808,-2.4025,1.4532,2.4846
2024-10-11T14:10:28.416Z,0.0068,-0.7862,-0.0085,0.4974,-1.8344,0.9831,-0.0371,-0.0680,0.0828,-2.4025,1.4532,2.4846
2024-10-11T14:10:28.425Z,0.0068,-0.7862,-0.0085,0.4974,-1.8344,0.9831,-0.0334,-0.0403,0.0818,-2.4025,1.4532,2.4846
2024-10-11T14:10:28.436Z,-0.0141,-0.7599,-0.0088,0.4973,-2.1479,1.0120,-0.0312,-0.0088,0.0811,-2.4112,1.4559,2.4924
2024-10-11T14:10:28.445Z,-0.0141,-0.7599,-0.0088,0.4973,-2.1479,1.0120,-0.0240,0.0091,0.0789,-2.4112,1.4559,2.4924
2024-10-11T14:10:28.456Z,-0.0202,-0.7573,-0.0082,0.7847,-2.3578,1.0307,-0.0149,0.0225,0.0790,-2.4247,1.4579,2.5057
2024-10-11T14:10:28.466Z,-0.0156,-0.7597,-0.0165,0.7847,-2.3578,1.0307,-0.0040,0.0353,0.0758,-2.4247,1.4579,2.5057
2024-10-11T14:10:28.475Z,-0.0156,-0.7597,-0.0165,0.7847,-2.3578,1.0307,0.0032,0.0370,0.0710,-2.4247,1.4579,2.5057
2024-10-11T14:10:28.486Z,-0.0192,-0.7561,-0.0150,0.9311,-2.3603,1.0299,0.0117,0.0428,0.0669,-2.4412,1.4592,2.5228
2024-10-11T14:10:28.495Z,-0.0303,-0.7532,-0.0143,0.9311,-2.3603,1.0299,0.0195,0.0424,0.0667,-2.4412,1.4592,2.5228
2024-10-11T14:10:28.505Z,-0.0169,-0.7591,-0.0063,0.9311,-2.3603,1.0299,0.0287,0.0480,0.0662,-2.4412,1.4592,2.5228
2024-10-11T14:10:28.516Z,-0.0169,-0.7591,-0.0063,0.5818,-2.2428,1.0299,0.0444,0.0466,0.0677,-2.4610,1.4596,2.5436
2024-10-11T14:10:28.525Z,0.0032,-0.7652,-0.0133,0.5818,-2.2428,1.0299,0.0510,0.0548,0.0674,-2.4610,1.4596,2.5436
2024-10-11T14:10:28.535Z,0.0061,-0.7670,-0.0001,0.5818,-2.2428,1.0299,0.0585,0.0601,0.0699,-2.4610,1.4596,2.5436
2024-10-11T14:10:28.545Z,0.0061,-0.7670,-0.0001,0.5818,-2.2428,1.0299,0.0656,0.0650,0.0694,-2.4610,1.4596,2.5436
2024-10-11T14:10:28.555Z,-0.0001,-0.7715,0.0239,0.5552,-2.1993,0.7322,0.0691,0.0706,0.0712,-2.4853,1.4593,2.5691
2024-10-11T14:10:28.565Z,0.0088,-0.7750,0.0267,0.5552,-2.1993,0.7322,0.0722,0.0758,0.0673,-2.4853,1.4593,2.5691
2024-10-11T14:10:28.575Z,0.0088,-0.7750,0.0267,0.3957,-2.1098,0.5507,0.0722,0.0758,0.0673,-2.5112,1.4587,2.5968
2024-10-11T14:10:28.585Z,0.0204,-0.7830,0.0473,0.3957,-2.1098,0.5507,0.0721,0.0889,0.0696,-2.5112,1.4587,2.5968
2024-10-11T14:10:28.595Z,0.0322,-0.7858,0.0520,0.3957,-2.1098,0.5507,0.0688,0.0903,0.0681,-2.5112,1.4587,2.5968
2024-10-11T14:10:28.606Z,0.0322,-0.7858,0.0520,0.1471,-2.0242,0.3124,0.0650,0.0933,0.0635,-2.5362,1.4580,2.6241
2024-10-11T14:10:28.615Z,0.0351,-0.7889,0.0658,0.1471,-2.0242,0.3124,0.0605,0.0902,0.0633,-2.5362,1.4580,2.6241
2024-10-11T14:10:28.625Z,0.0351,-0.7889,0.0658,0.1471,-2.0242,0.3124,0.0574,0.0890,0.0585,-2.5362,1.4580,2.6241
2024-10-11T14:10:28.636Z,0.0376,-0.7965,0.0690,0.0801,-1.8812,0.2385,0.0576,0.0820,0.0564,-2.5581,1.4575,2.6482
2024-10-11T14:10:28.644Z,0.0454,-0.8018,0.0753,0.0801,-1.8812,0.2385,0.0581,0.0841,0.0531,-2.5581,1.4575,2.6482
2024-10-11T14:10:28.655Z,0.0524,-0.8128,0.0646,0.0801,-1.8812,0.2385,0.0601,0.0770,0.0493,-2.5581,1.4575,2.6482
2024-10-11T14:10:28.666Z,0.0524,-0.8128,0.0646,-0.0170,-1.7396,0.2847,0.0653,0.0710,0.0454,-2.5775,1.4565,2.6698
2024-10-11T14:10:28.676Z,0.0535,-0.8161,0.0725,-0.0170,-1.7396,0.2847,0.0687,0.0657,0.0420,-2.5775,1.4565,2.6698
2024-10-11T14:10:28.685Z,0.0756,-0.8104,0.0822,-0.0170,-1.7396,0.2847,0.0699,0.0562,0.0409,-2.5775,1.4565,2.6698
2024-10-11T14:10:28.696Z,0.0756,-0.8104,0.0822,-0.3246,-1.9075,0.0899,0.0650,0.0398,0.0405,-2.5951,1.4553,2.6887
2024-10-11T14:10:28.705Z,0.0949,-0.7923,0.1005,-0.3246,-1.9075,0.0899,0.0583,0.0251,0.0392,-2.5951,1.4553,2.6887
2024-10-11T14:10:28.715Z,0.0911,-0.7856,0.1063,-0.3246,-1.9075,0.0899,0.0524,0.0080,0.0422,-2.5951,1.4553,2.6887
2024-10-11T14:10:28.726Z,0.0911,-0.7856,0.1063,-0.4256,-1.9915,0.0263,0.0524,0.0080,0.0422,-2.6107,1.4544,2.7042
2024-10-11T14:10:28.735Z,0.0899,-0.8014,0.1145,-0.4256,-1.9915,0.0263,0.0427,-0.0398,0.0422,-2.6107,1.4544,2.7042
2024-10-11T14:10:28.744Z,0.0899,-0.8014,0.1145,-0.4256,-1.9915,0.0263,0.0387,-0.0604,0.0428,-2.6107,1.4544,2.7042
2024-10-11T14:10:28.756Z,0.0965,-0.8141,0.1122,-0.5836,-1.6332,-0.0987,0.0380,-0.0901,0.0439,-2.6249,1.4538,2.7165
2024-10-11T14:10:28.765Z,0.1189,-0.8360,0.1233,-0.5836,-1.6332,-0.0987,0.0359,-0.1172,0.0474,-2.6249,1.4538,2.7165
2024-10-11T14:10:28.775Z,0.1189,-0.8360,0.1233,-0.5836,-1.6332,-0.0987,0.0360,-0.1373,0.0559,-2.6249,1.4538,2.7165
2024-10-11T14:10:28.785Z,0.1322,-0.8359,0.1209,-1.0282,-1.5031,-0.1093,0.0352,-0.1601,0.0658,-2.6414,1.4535,2.7289
2024-10-11T14:10:28.795Z,0.1582,-0.8320,0.1302,-1.0282,-1.5031,-0.1093,0.0340,-0.1787,0.0750,-2.6414,1.4535,2.7289
2024-10-11T14:10:28.805Z,0.1598,-0.8316,0.1282,-1.0282,-1.5031,-0.1093,0.0298,-0.2016,0.0874,-2.6414,1.4535,2.7289
2024-10-11T14:10:28.815Z,0.1598,-0.8316,0.1282,-1.0751,-1.7143,-0.2680,0.0273,-0.2188,0.1015,-2.6647,1.4536,2.7458
2024-10-11T14:10:28.825Z,0.1547,-0.8184,0.1352,-1.0751,-1.7143,-0.2680,0.0225,-0.2390,0.1105,-2.6647,1.4536,2.7458
2024-10-11T14:10:28.835Z,0.1314,-0.7948,0.1420,-1.0751,-1.7143,-0.2680,0.0189,-0.2553,0.1191,-2.6647,1.4536,2.7458
2024-10-11T14:10:28.844Z,0.1314,-0.7948,0.1420,-1.0751,-1.7143,-0.2680,0.0108,-0.2701,0.1265,-2.6647,1.4536,2.7458
2024-10-11T14:10:28.855Z,0.0908,-0.7964,0.1325,-0.6830,-1.9664,-0.3144,0.0072,-0.2816,0.1295,-2.6949,1.4544,2.7680
2024-10-11T14:10:28.865Z,0.0717,-0.8031,0.1214,-0.6830,-1.9664,-0.3144,0.0012,-0.2893,0.1332,-2.6949,1.4544,2.7680
2024-10-11T14:10:28.876Z,0.0717,-0.8031,0.1214,-0.2567,-1.8302,-0.0434,-0.0000,-0.2983,0.1376,-2.7277,1.4557,2.7916
2024-10-11T14:10:28.885Z,0.0508,-0.8106,0.1242,-0.2567,-1.8302,-0.0434,-0.0024,-0.3044,0.1398,-2.7277,1.4557,2.7916
