time,gFx,gFy,gFz,ax,ay,az,wx,wy,wz,yaw,pitch,roll
2024-10-11T13:40:10.582Z,0.0172,-0.9867,0.1300,-0.0771,-0.0460,0.0918,-0.0125,-0.0110,-0.0019,3.1348,1.4266,3.0765
2024-10-11T13:40:10.590Z,0.0151,-0.9867,0.1376,-0.0771,-0.0460,0.0918,-0.0117,-0.0095,-0.0001,3.1348,1.4266,3.0765
2024-10-11T13:40:10.600Z,0.0152,-0.9854,0.1389,-0.0562,-0.0407,0.0341,-0.0099,-0.0101,0.0004,3.1347,1.4269,3.0760
2024-10-11T13:40:10.610Z,0.0138,-0.9858,0.1392,-0.0562,-0.0407,0.0341,-0.0089,-0.0130,-0.0001,3.1347,1.4269,3.0760
2024-10-11T13:40:10.620Z,0.0137,-0.9872,0.1377,-0.0562,-0.0407,0.0341,-0.0078,-0.0133,0.0015,3.1347,1.4269,3.0760
2024-10-11T13:40:10.630Z,0.0124,-0.9870,0.1366,-0.0307,-0.0271,0.0625,-0.0079,-0.0116,-0.0010,3.1346,1.4272,3.0755
2024-10-11T13:40:10.640Z,0.0126,-0.9868,0.1353,-0.0307,-0.0271,0.0625,-0.0081,-0.0101,-0.0023,3.1346,1.4272,3.0755
2024-10-11T13:40:10.650Z,0.0102,-0.9876,0.1351,-0.0307,-0.0271,0.0625,-0.0073,-0.0131,0.0017,3.1346,1.4272,3.0755
2024-10-11T13:40:10.660Z,0.0087,-0.9882,0.1369,0.0127,-0.0148,0.0529,-0.0044,-0.0120,-0.0010,3.1347,1.4274,3.0748
2024-10-11T13:40:10.670Z,0.0077,-0.9875,0.1348,0.0127,-0.0148,0.0529,-0.0060,-0.0120,-0.0021,3.1347,1.4274,3.0748
2024-10-11T13:40:10.680Z,0.0081,-0.9890,0.1350,0.0127,-0.0148,0.0529,-0.0024,-0.0119,-0.0025,3.1347,1.4274,3.0748
2024-10-11T13:40:10.690Z,0.0085,-0.9892,0.1364,0.0156,-0.0108,0.0649,-0.0025,-0.0138,-0.0004,3.1348,1.4275,3.0740
2024-10-11T13:40:10.700Z,0.0109,-0.9871,0.1355,0.0156,-0.0108,0.0649,-0.0012,-0.0123,-0.0011,3.1348,1.4275,3.0740
2024-10-11T13:40:10.710Z,0.0114,-0.9866,0.1355,0.0156,-0.0108,0.0649,0.0016,-0.0127,0.0007,3.1348,1.4275,3.0740
2024-10-11T13:40:10.720Z,0.0147,-0.9854,0.1362,-0.0493,-0.0457,0.0635,-0.0002,-0.0097,-0.0001,3.1349,1.4275,3.0733
2024-10-11T13:40:10.729Z,0.0147,-0.9865,0.1370,-0.0493,-0.0457,0.0635,0.0012,-0.0105,0.0002,3.1349,1.4275,3.0733
2024-10-11T13:40:10.740Z,0.0147,-0.9870,0.1350,-0.0493,-0.0457,0.0635,-0.0004,-0.0077,0.0038,3.1349,1.4275,3.0733
2024-10-11T13:40:10.750Z,0.0166,-0.9881,0.1368,-0.0716,-0.0156,0.0542,0.0009,-0.0071,0.0056,3.1342,1.4276,3.0735
2024-10-11T13:40:10.760Z,0.0155,-0.9895,0.1366,-0.0716,-0.0156,0.0542,-0.0016,-0.0068,0.0078,3.1342,1.4276,3.0735
2024-10-11T13:40:10.770Z,0.0159,-0.9900,0.1361,-0.0716,-0.0156,0.0542,0.0025,-0.0071,0.0059,3.1342,1.4276,3.0735
2024-10-11T13:40:10.779Z,0.0141,-0.9918,0.1382,-0.0460,0.0169,0.0407,0.0033,-0.0049,0.0068,3.1326,1.4276,3.0747
2024-10-11T13:40:10.789Z,0.0135,-0.9919,0.1374,-0.0460,0.0169,0.0407,0.0040,-0.0039,0.0088,3.1326,1.4276,3.0747
2024-10-11T13:40:10.800Z,0.0126,-0.9944,0.1398,-0.0460,0.0169,0.0407,0.0053,-0.0040,0.0084,3.1326,1.4276,3.0747
2024-10-11T13:40:10.810Z,0.0126,-0.9927,0.1423,-0.0333,0.0264,0.0036,0.0039,-0.0030,0.0104,3.1312,1.4276,3.0757
2024-10-11T13:40:10.820Z,0.0122,-0.9918,0.1450,-0.0333,0.0264,0.0036,0.0058,-0.0011,0.0097,3.1312,1.4276,3.0757
2024-10-11T13:40:10.830Z,0.0094,-0.9922,0.1443,-0.0333,0.0264,0.0036,0.0042,-0.0002,0.0081,3.1312,1.4276,3.0757
2024-10-11T13:40:10.840Z,0.0076,-0.9897,0.1458,0.0151,-0.0005,-0.0402,0.0038,-0.0001,0.0087,3.1295,1.4275,3.0770
2024-10-11T13:40:10.850Z,0.0061,-0.9866,0.1471,0.0151,-0.0005,-0.0402,-0.0016,0.0005,0.0072,3.1295,1.4275,3.0770
2024-10-11T13:40:10.860Z,0.0048,-0.9849,0.1470,0.0151,-0.0005,-0.0402,-0.0022,0.0002,0.0071,3.1295,1.4275,3.0770
2024-10-11T13:40:10.870Z,0.0048,-0.9849,0.1470,0.0543,-0.0453,-0.0261,0.0004,-0.0015,0.0081,3.1275,1.4275,3.0787
2024-10-11T13:40:10.881Z,0.0040,-0.9848,0.1468,0.0543,-0.0453,-0.0261,0.0036,-0.0028,0.0082,3.1275,1.4275,3.0787
2024-10-11T13:40:10.890Z,0.0030,-0.9839,0.1453,0.0543,-0.0453,-0.0261,-0.0015,-0.0007,0.0045,3.1275,1.4275,3.0787
2024-10-11T13:40:10.900Z,0.0037,-0.9829,0.1423,0.0409,-0.0654,0.0047,-0.0013,-0.0010,0.0044,3.1261,1.4275,3.0798
2024-10-11T13:40:10.910Z,0.0051,-0.9818,0.1407,0.0409,-0.0654,0.0047,0.0012,-0.0022,0.0058,3.1261,1.4275,3.0798
2024-10-11T13:40:10.919Z,0.0033,-0.9842,0.1397,0.0409,-0.0654,0.0047,0.0027,-0.0010,0.0036,3.1261,1.4275,3.0798
2024-10-11T13:40:10.930Z,0.0041,-0.9862,0.1382,0.0416,-0.0315,0.0451,0.0032,-0.0012,0.0017,3.1247,1.4274,3.0808
2024-10-11T13:40:10.940Z,0.0055,-0.9861,0.1389,0.0416,-0.0315,0.0451,0.0047,-0.0031,0.0038,3.1247,1.4274,3.0808
2024-10-11T13:40:10.950Z,0.0070,-0.9869,0.1387,0.0416,-0.0315,0.0451,0.0024,-0.0003,0.0023,3.1247,1.4274,3.0808
2024-10-11T13:40:10.960Z,0.0067,-0.9871,0.1401,0.0143,-0.0193,0.0304,0.0014,-0.0025,0.0057,3.1233,1.4273,3.0819
2024-10-11T13:40:10.970Z,0.0080,-0.9868,0.1398,0.0143,-0.0193,0.0304,0.0039,-0.0007,0.0041,3.1233,1.4273,3.0819
2024-10-11T13:40:10.980Z,0.0087,-0.9902,0.1399,0.0143,-0.0193,0.0304,0.0058,-0.0008,0.0048,3.1233,1.4273,3.0819
2024-10-11T13:40:10.990Z,0.0087,-0.9902,0.1399,0.0186,0.0221,0.0597,0.0056,0.0025,0.0025,3.1221,1.4271,3.0829
2024-10-11T13:40:11.000Z,0.0094,-0.9898,0.1391,0.0186,0.0221,0.0597,0.0055,0.0016,0.0051,3.1221,1.4271,3.0829
2024-10-11T13:40:11.010Z,0.0077,-0.9899,0.1398,0.0186,0.0221,0.0597,0.0052,0.0015,0.0012,3.1221,1.4271,3.0829
2024-10-11T13:40:11.020Z,0.0077,-0.9899,0.1398,0.0264,-0.0020,0.0220,0.0053,0.0023,0.0024,3.1208,1.4270,3.0840
2024-10-11T13:40:11.030Z,0.0045,-0.9886,0.1416,0.0264,-0.0020,0.0220,0.0041,0.0042,0.0022,3.1208,1.4270,3.0840
2024-10-11T13:40:11.040Z,0.0039,-0.9875,0.1434,0.0264,-0.0020,0.0220,0.0054,0.0043,0.0014,3.1208,1.4270,3.0840
2024-10-11T13:40:11.050Z,0.0061,-0.9901,0.1428,0.0153,-0.0006,0.0065,0.0070,0.0033,0.0005,3.1200,1.4268,3.0847
2024-10-11T13:40:11.060Z,0.0077,-0.9908,0.1430,0.0153,-0.0006,0.0065,0.0089,0.0031,0.0010,3.1200,1.4268,3.0847
2024-10-11T13:40:11.070Z,0.0079,-0.9918,0.1428,0.0153,-0.0006,0.0065,0.0071,0.0032,0.0002,3.1200,1.4268,3.0847
2024-10-11T13:40:11.080Z,0.0093,-0.9921,0.1451,-0.0163,0.0219,-0.0257,0.0084,0.0037,0.0016,3.1193,1.4267,3.0852
2024-10-11T13:40:11.089Z,0.0099,-0.9922,0.1468,-0.0163,0.0219,-0.0257,0.0071,0.0061,-0.0000,3.1193,1.4267,3.0852
2024-10-11T13:40:11.101Z,0.0093,-0.9929,0.1471,-0.0163,0.0219,-0.0257,0.0060,0.0078,0.0009,3.1193,1.4267,3.0852
2024-10-11T13:40:11.110Z,0.0071,-0.9901,0.1492,0.0003,-0.0033,-0.0606,0.0053,0.0080,0.0017,3.1183,1.4265,3.0862
2024-10-11T13:40:11.120Z,0.0084,-0.9885,0.1515,0.0003,-0.0033,-0.0606,0.0057,0.0064,0.0018,3.1183,1.4265,3.0862
2024-10-11T13:40:11.130Z,0.0064,-0.9904,0.1522,0.0003,-0.0033,-0.0606,0.0063,0.0055,-0.0004,3.1183,1.4265,3.0862
2024-10-11T13:40:11.141Z,0.0070,-0.9901,0.1529,0.0019,0.0015,-0.0921,0.0034,0.0072,0.0022,3.1173,1.4263,3.0870
2024-10-11T13:40:11.150Z,0.0068,-0.9926,0.1560,0.0019,0.0015,-0.0921,0.0056,0.0066,-0.0011,3.1173,1.4263,3.0870
2024-10-11T13:40:11.160Z,0.0075,-0.9935,0.1571,0.0019,0.0015,-0.0921,0.0063,0.0049,0.0021,3.1173,1.4263,3.0870
2024-10-11T13:40:11.170Z,0.0077,-0.9966,0.1614,0.0088,0.0716,-0.1709,0.0006,0.0067,0.0021,3.1167,1.4262,3.0876
2024-10-11T13:40:11.180Z,0.0040,-1.0018,0.1620,0.0088,0.0716,-0.1709,-0.0003,0.0053,0.0003,3.1167,1.4262,3.0876
2024-10-11T13:40:11.189Z,0.0063,-1.0047,0.1604,0.0088,0.0716,-0.1709,-0.0015,0.0033,-0.0011,3.1167,1.4262,3.0876
2024-10-11T13:40:11.200Z,0.0039,-1.0098,0.1732,0.0379,0.2076,-0.2981,-0.0063,0.0043,-0.0016,3.1167,1.4262,3.0875
2024-10-11T13:40:11.210Z,0.0170,-1.0087,0.1782,0.0379,0.2076,-0.2981,-0.0087,0.0058,-0.0021,3.1167,1.4262,3.0875
2024-10-11T13:40:11.220Z,0.0035,-1.0069,0.1756,0.0379,0.2076,-0.2981,-0.0103,0.0041,-0.0007,3.1167,1.4262,3.0875
2024-10-11T13:40:11.230Z,0.0123,-1.0057,0.1749,-0.0381,0.1547,-0.3059,-0.0138,0.0019,-0.0027,3.1166,1.4265,3.0875
2024-10-11T13:40:11.239Z,0.0110,-1.0030,0.1707,-0.0381,0.1547,-0.3059,-0.0183,0.0025,-0.0017,3.1166,1.4265,3.0875
2024-10-11T13:40:11.250Z,0.0099,-1.0015,0.1667,-0.0381,0.1547,-0.3059,-0.0197,0.0007,0.0006,3.1166,1.4265,3.0875
2024-10-11T13:40:11.260Z,0.0108,-1.0009,0.1634,-0.0268,0.1176,-0.1933,-0.0201,0.0003,0.0006,3.1166,1.4270,3.0872
2024-10-11T13:40:11.270Z,0.0118,-1.0015,0.1576,-0.0268,0.1176,-0.1933,-0.0251,0.0002,0.0024,3.1166,1.4270,3.0872
2024-10-11T13:40:11.280Z,0.0095,-0.9984,0.1532,-0.0268,0.1176,-0.1933,-0.0245,0.0034,-0.0019,3.1166,1.4270,3.0872
2024-10-11T13:40:11.289Z,0.0110,-0.9962,0.1480,-0.0281,0.0555,-0.0506,-0.0247,0.0025,-0.0010,3.1165,1.4277,3.0871
2024-10-11T13:40:11.300Z,0.0108,-0.9931,0.1424,-0.0281,0.0555,-0.0506,-0.0237,0.0017,0.0022,3.1165,1.4277,3.0871
2024-10-11T13:40:11.310Z,0.0108,-0.9897,0.1368,-0.0281,0.0555,-0.0506,-0.0241,0.0027,-0.0005,3.1165,1.4277,3.0871
2024-10-11T13:40:11.321Z,0.0092,-0.9887,0.1329,-0.0107,-0.0087,0.1000,-0.0218,0.0019,0.0030,3.1163,1.4283,3.0871
2024-10-11T13:40:11.330Z,0.0117,-0.9867,0.1260,-0.0107,-0.0087,0.1000,-0.0218,0.0016,0.0037,3.1163,1.4283,3.0871
2024-10-11T13:40:11.340Z,0.0102,-0.9867,0.1225,-0.0107,-0.0087,0.1000,-0.0210,0.0023,0.0018,3.1163,1.4283,3.0871
2024-10-11T13:40:11.350Z,0.0119,-0.9848,0.1225,-0.0383,-0.0520,0.1963,-0.0196,0.0024,0.0015,3.1159,1.4289,3.0874
2024-10-11T13:40:11.360Z,0.0111,-0.9831,0.1201,-0.0383,-0.0520,0.1963,-0.0175,0.0036,0.0038,3.1159,1.4289,3.0874
2024-10-11T13:40:11.370Z,0.0087,-0.9803,0.1210,-0.0383,-0.0520,0.1963,-0.0184,0.0031,0.0038,3.1159,1.4289,3.0874
2024-10-11T13:40:11.380Z,0.0101,-0.9772,0.1217,-0.0293,-0.1300,0.1912,-0.0152,0.0054,0.0044,3.1155,1.4295,3.0876
2024-10-11T13:40:11.390Z,0.0098,-0.9745,0.1218,-0.0293,-0.1300,0.1912,-0.0154,0.0042,0.0045,3.1155,1.4295,3.0876
2024-10-11T13:40:11.400Z,0.0078,-0.9720,0.1239,-0.0293,-0.1300,0.1912,-0.0118,0.0037,0.0047,3.1155,1.4295,3.0876
2024-10-11T13:40:11.410Z,0.0090,-0.9718,0.1259,-0.0075,-0.1845,0.1441,-0.0102,0.0073,0.0041,3.1147,1.4299,3.0884
2024-10-11T13:40:11.420Z,0.0077,-0.9683,0.1268,-0.0075,-0.1845,0.1441,-0.0077,0.0073,0.0062,3.1147,1.4299,3.0884
2024-10-11T13:40:11.429Z,0.0092,-0.9685,0.1252,-0.0075,-0.1845,0.1441,-0.0054,0.0086,0.0042,3.1147,1.4299,3.0884
2024-10-11T13:40:11.440Z,0.0087,-0.9710,0.1248,-0.0169,-0.1846,0.1493,-0.0036,0.0086,0.0067,3.1137,1.4301,3.0894
2024-10-11T13:40:11.450Z,0.0077,-0.9727,0.1242,-0.0169,-0.1846,0.1493,-0.0003,0.0081,0.0046,3.1137,1.4301,3.0894
2024-10-11T13:40:11.460Z,0.0068,-0.9743,0.1227,-0.0169,-0.1846,0.1493,0.0043,0.0111,0.0057,3.1137,1.4301,3.0894
2024-10-11T13:40:11.470Z,0.0096,-0.9772,0.1215,-0.0139,-0.1178,0.1756,0.0053,0.0085,0.0058,3.1125,1.4301,3.0906
2024-10-11T13:40:11.480Z,0.0056,-0.9799,0.1215,-0.0139,-0.1178,0.1756,0.0070,0.0071,0.0018,3.1125,1.4301,3.0906
2024-10-11T13:40:11.490Z,0.0067,-0.9803,0.1217,-0.0139,-0.1178,0.1756,0.0120,0.0041,0.0033,3.1125,1.4301,3.0906
2024-10-11T13:40:11.500Z,0.0034,-0.9825,0.1233,0.0336,-0.0636,0.1657,0.0095,0.0058,0.0024,3.1114,1.4298,3.0917
2024-10-11T13:40:11.510Z,0.0031,-0.9850,0.1258,0.0336,-0.0636,0.1657,0.0097,0.0061,0.0009,3.1114,1.4298,3.0917
2024-10-11T13:40:11.521Z,0.0029,-0.9861,0.1284,0.0336,-0.0636,0.1657,0.0140,0.0045,0.0033,3.1114,1.4298,3.0917
2024-10-11T13:40:11.530Z,0.0035,-0.9898,0.1301,0.0318,-0.0024,0.0978,0.0115,0.0068,-0.0004,3.1108,1.4295,3.0921
2024-10-11T13:40:11.541Z,0.0061,-0.9890,0.1316,0.0318,-0.0024,0.0978,0.0093,0.0079,-0.0010,3.1108,1.4295,3.0921
2024-10-11T13:40:11.550Z,0.0071,-0.9927,0.1341,0.0318,-0.0024,0.0978,0.0121,0.0042,-0.0009,3.1108,1.4295,3.0921
2024-10-11T13:40:11.560Z,0.0085,-0.9921,0.1356,-0.0139,0.0160,0.0578,0.0134,0.0060,-0.0006,3.1106,1.4292,3.0923
2024-10-11T13:40:11.571Z,0.0079,-0.9921,0.1370,-0.0139,0.0160,0.0578,0.0133,0.0064,-0.0021,3.1106,1.4292,3.0923
2024-10-11T13:40:11.580Z,0.0089,-0.9926,0.1420,-0.0139,0.0160,0.0578,0.0122,0.0060,0.0016,3.1106,1.4292,3.0923
2024-10-11T13:40:11.590Z,0.0091,-0.9939,0.1422,-0.0179,0.0348,-0.0087,0.0106,0.0057,-0.0001,3.1105,1.4288,3.0922
2024-10-11T13:40:11.600Z,0.0088,-0.9920,0.1451,-0.0179,0.0348,-0.0087,0.0101,0.0053,-0.0019,3.1105,1.4288,3.0922
2024-10-11T13:40:11.610Z,0.0096,-0.9928,0.1486,-0.0179,0.0348,-0.0087,0.0090,0.0070,-0.0010,3.1105,1.4288,3.0922
2024-10-11T13:40:11.620Z,0.0065,-0.9920,0.1513,0.0032,0.0185,-0.0973,0.0063,0.0070,0.0016,3.1102,1.4286,3.0925
2024-10-11T13:40:11.629Z,0.0069,-0.9901,0.1531,0.0032,0.0185,-0.0973,0.0079,0.0078,-0.0013,3.1102,1.4286,3.0925
2024-10-11T13:40:11.640Z,0.0087,-0.9915,0.1541,0.0032,0.0185,-0.0973,0.0052,0.0067,-0.0003,3.1102,1.4286,3.0925
2024-10-11T13:40:11.650Z,0.0085,-0.9934,0.1574,-0.0129,0.0359,-0.1490,0.0022,0.0084,0.0012,3.1100,1.4284,3.0927
2024-10-11T13:40:11.660Z,0.0090,-0.9944,0.1553,-0.0129,0.0359,-0.1490,0.0017,0.0079,0.0012,3.1100,1.4284,3.0927
2024-10-11T13:40:11.670Z,0.0093,-0.9953,0.1560,-0.0129,0.0359,-0.1490,0.0050,0.0075,0.0012,3.1100,1.4284,3.0927
2024-10-11T13:40:11.680Z,0.0088,-0.9950,0.1548,-0.0238,0.0527,-0.1313,-0.0004,0.0054,0.0001,3.1099,1.4283,3.0928
2024-10-11T13:40:11.690Z,0.0080,-0.9953,0.1540,-0.0238,0.0527,-0.1313,-0.0015,0.0053,0.0004,3.1099,1.4283,3.0928
2024-10-11T13:40:11.700Z,0.0072,-0.9956,0.1539,-0.0238,0.0527,-0.1313,-0.0040,0.0042,-0.0015,3.1099,1.4283,3.0928
2024-10-11T13:40:11.710Z,0.0068,-0.9966,0.1521,0.0003,0.0625,-0.0966,-0.0019,0.0046,-0.0012,3.1099,1.4284,3.0926
2024-10-11T13:40:11.720Z,0.0077,-0.9951,0.1495,0.0003,0.0625,-0.0966,-0.0006,0.0006,-0.0027,3.1099,1.4284,3.0926
2024-10-11T13:40:11.730Z,0.0064,-0.9946,0.1492,0.0003,0.0625,-0.0966,-0.0024,-0.0005,-0.0018,3.1099,1.4284,3.0926
2024-10-11T13:40:11.740Z,0.0052,-0.9938,0.1485,0.0219,0.0355,-0.0601,-0.0030,-0.0029,-0.0004,3.1103,1.4284,3.0920
2024-10-11T13:40:11.750Z,0.0035,-0.9949,0.1473,0.0219,0.0355,-0.0601,-0.0086,-0.0028,-0.0058,3.1103,1.4284,3.0920
2024-10-11T13:40:11.761Z,0.0039,-0.9956,0.1479,0.0219,0.0355,-0.0601,-0.0067,-0.0022,-0.0045,3.1103,1.4284,3.0920
2024-10-11T13:40:11.772Z,0.0032,-0.9951,0.1468,0.0394,0.0545,-0.0536,-0.0097,-0.0056,-0.0059,3.1112,1.4284,3.0908
2024-10-11T13:40:11.780Z,0.0033,-0.9954,0.1479,0.0394,0.0545,-0.0536,-0.0104,-0.0049,-0.0074,3.1112,1.4284,3.0908
2024-10-11T13:40:11.789Z,0.0071,-0.9965,0.1476,0.0394,0.0545,-0.0536,-0.0091,-0.0063,-0.0051,3.1112,1.4284,3.0908
2024-10-11T13:40:11.800Z,0.0075,-0.9981,0.1451,-0.0013,0.0728,-0.0308,-0.0113,-0.0076,-0.0056,3.1121,1.4286,3.0894
2024-10-11T13:40:11.810Z,0.0076,-0.9960,0.1448,-0.0013,0.0728,-0.0308,-0.0102,-0.0087,-0.0053,3.1121,1.4286,3.0894
2024-10-11T13:40:11.820Z,0.0068,-0.9966,0.1452,-0.0013,0.0728,-0.0308,-0.0137,-0.0063,-0.0052,3.1121,1.4286,3.0894
2024-10-11T13:40:11.829Z,0.0062,-0.9960,0.1430,0.0052,0.0636,-0.0187,-0.0118,-0.0075,-0.0068,3.1128,1.4289,3.0882
2024-10-11T13:40:11.840Z,0.0091,-0.9955,0.1426,0.0052,0.0636,-0.0187,-0.0122,-0.0066,-0.0055,3.1128,1.4289,3.0882
2024-10-11T13:40:11.850Z,0.0105,-0.9941,0.1403,0.0052,0.0636,-0.0187,-0.0133,-0.0034,-0.0076,3.1128,1.4289,3.0882
2024-10-11T13:40:11.860Z,0.0101,-0.9940,0.1401,-0.0182,0.0357,0.0065,-0.0134,-0.0065,-0.0057,3.1135,1.4292,3.0872
2024-10-11T13:40:11.871Z,0.0092,-0.9938,0.1381,-0.0182,0.0357,0.0065,-0.0139,-0.0027,-0.0060,3.1135,1.4292,3.0872
2024-10-11T13:40:11.880Z,0.0079,-0.9923,0.1374,-0.0182,0.0357,0.0065,-0.0126,-0.0039,-0.0018,3.1135,1.4292,3.0872
2024-10-11T13:40:11.890Z,0.0082,-0.9898,0.1373,-0.0059,-0.0058,0.0256,-0.0128,-0.0040,-0.0050,3.1143,1.4295,3.0859
2024-10-11T13:40:11.900Z,0.0121,-0.9905,0.1369,-0.0059,-0.0058,0.0256,-0.0107,-0.0038,-0.0011,3.1143,1.4295,3.0859
2024-10-11T13:40:11.910Z,0.0137,-0.9903,0.1370,-0.0059,-0.0058,0.0256,-0.0126,-0.0043,-0.0039,3.1143,1.4295,3.0859
2024-10-11T13:40:11.921Z,0.0126,-0.9922,0.1377,-0.0497,0.0151,0.0194,-0.0107,0.0011,-0.0014,3.1149,1.4298,3.0851
2024-10-11T13:40:11.930Z,0.0129,-0.9895,0.1390,-0.0497,0.0151,0.0194,-0.0104,0.0009,-0.0013,3.1149,1.4298,3.0851
2024-10-11T13:40:11.939Z,0.0115,-0.9876,0.1429,-0.0497,0.0151,0.0194,-0.0129,-0.0001,-0.0004,3.1149,1.4298,3.0851
2024-10-11T13:40:11.950Z,0.0107,-0.9873,0.1455,-0.0248,-0.0311,-0.0532,-0.0106,-0.0013,-0.0005,3.1150,1.4301,3.0847
2024-10-11T13:40:11.960Z,0.0098,-0.9879,0.1461,-0.0248,-0.0311,-0.0532,-0.0164,0.0001,0.0012,3.1150,1.4301,3.0847
2024-10-11T13:40:11.972Z,0.0069,-0.9879,0.1469,-0.0248,-0.0311,-0.0532,-0.0128,0.0012,-0.0003,3.1150,1.4301,3.0847
2024-10-11T13:40:11.980Z,0.0060,-0.9896,0.1466,0.0221,-0.0041,-0.0681,-0.0166,-0.0010,-0.0004,3.1152,1.4305,3.0842
2024-10-11T13:40:11.989Z,0.0052,-0.9903,0.1478,0.0221,-0.0041,-0.0681,-0.0150,0.0011,-0.0009,3.1152,1.4305,3.0842
2024-10-11T13:40:12.000Z,0.0070,-0.9930,0.1473,0.0221,-0.0041,-0.0681,-0.0172,0.0002,-0.0019,3.1152,1.4305,3.0842
2024-10-11T13:40:12.010Z,0.0064,-0.9919,0.1463,0.0145,0.0089,-0.0788,-0.0159,0.0022,-0.0012,3.1157,1.4310,3.0834
2024-10-11T13:40:12.021Z,0.0098,-0.9918,0.1475,0.0145,0.0089,-0.0788,-0.0180,0.0016,-0.0004,3.1157,1.4310,3.0834
2024-10-11T13:40:12.030Z,0.0099,-0.9930,0.1493,0.0145,0.0089,-0.0788,-0.0196,0.0013,-0.0004,3.1157,1.4310,3.0834
2024-10-11T13:40:12.040Z,0.0092,-0.9934,0.1507,-0.0049,0.0281,-0.1101,-0.0208,0.0042,-0.0023,3.1162,1.4315,3.0827
2024-10-11T13:40:12.050Z,0.0089,-0.9911,0.1488,-0.0049,0.0281,-0.1101,-0.0228,0.0030,-0.0029,3.1162,1.4315,3.0827
2024-10-11T13:40:12.060Z,0.0080,-0.9904,0.1507,-0.0049,0.0281,-0.1101,-0.0251,0.0039,0.0005,3.1162,1.4315,3.0827
2024-10-11T13:40:12.071Z,0.0088,-0.9885,0.1525,-0.0092,-0.0223,-0.1458,-0.0245,0.0058,-0.0011,3.1163,1.4321,3.0825
2024-10-11T13:40:12.080Z,0.0084,-0.9889,0.1506,-0.0092,-0.0223,-0.1458,-0.0226,0.0046,0.0002,3.1163,1.4321,3.0825
2024-10-11T13:40:12.090Z,0.0101,-0.9922,0.1477,-0.0092,-0.0223,-0.1458,-0.0252,0.0051,0.0003,3.1163,1.4321,3.0825
2024-10-11T13:40:12.100Z,0.0088,-0.9913,0.1472,-0.0088,0.0067,-0.0866,-0.0259,0.0064,-0.0001,3.1165,1.4326,3.0823
2024-10-11T13:40:12.110Z,0.0103,-0.9913,0.1427,-0.0088,0.0067,-0.0866,-0.0272,0.0079,0.0001,3.1165,1.4326,3.0823
2024-10-11T13:40:12.121Z,0.0087,-0.9911,0.1407,-0.0088,0.0067,-0.0866,-0.0264,0.0075,-0.0002,3.1165,1.4326,3.0823
2024-10-11T13:40:12.130Z,0.0084,-0.9903,0.1361,0.0006,-0.0009,0.0193,-0.0239,0.0111,0.0007,3.1166,1.4331,3.0822
2024-10-11T13:40:12.139Z,0.0096,-0.9890,0.1323,0.0006,-0.0009,0.0193,-0.0234,0.0114,-0.0007,3.1166,1.4331,3.0822
2024-10-11T13:40:12.150Z,0.0092,-0.9894,0.1313,0.0006,-0.0009,0.0193,-0.0241,0.0117,-0.0016,3.1166,1.4331,3.0822
2024-10-11T13:40:12.160Z,0.0084,-0.9890,0.1290,-0.0101,-0.0164,0.0819,-0.0205,0.0107,0.0031,3.1164,1.4338,3.0824
2024-10-11T13:40:12.170Z,0.0096,-0.9878,0.1268,-0.0101,-0.0164,0.0819,-0.0212,0.0097,0.0009,3.1164,1.4338,3.0824
2024-10-11T13:40:12.180Z,0.0079,-0.9863,0.1247,-0.0101,-0.0164,0.0819,-0.0175,0.0119,0.0010,3.1164,1.4338,3.0824
2024-10-11T13:40:12.191Z,0.0081,-0.9869,0.1220,-0.0075,-0.0420,0.1442,-0.0159,0.0122,0.0012,3.1162,1.4342,3.0828
2024-10-11T13:40:12.201Z,0.0081,-0.9848,0.1174,-0.0075,-0.0420,0.1442,-0.0147,0.0123,0.0009,3.1162,1.4342,3.0828
2024-10-11T13:40:12.210Z,0.0076,-0.9870,0.1151,-0.0075,-0.0420,0.1442,-0.0106,0.0113,-0.0002,3.1162,1.4342,3.0828
2024-10-11T13:40:12.220Z,0.0106,-0.9867,0.1129,-0.0289,-0.0479,0.2228,-0.0074,0.0128,0.0031,3.1161,1.4346,3.0829
2024-10-11T13:40:12.230Z,0.0091,-0.9857,0.1102,-0.0289,-0.0479,0.2228,-0.0057,0.0141,-0.0005,3.1161,1.4346,3.0829
2024-10-11T13:40:12.240Z,0.0099,-0.9837,0.1104,-0.0289,-0.0479,0.2228,-0.0033,0.0112,0.0001,3.1161,1.4346,3.0829
2024-10-11T13:40:12.250Z,0.0075,-0.9824,0.1082,-0.0038,-0.0870,0.2640,-0.0004,0.0126,-0.0006,3.1158,1.4347,3.0834
2024-10-11T13:40:12.260Z,0.0090,-0.9801,0.1073,-0.0038,-0.0870,0.2640,0.0046,0.0092,0.0007,3.1158,1.4347,3.0834
2024-10-11T13:40:12.270Z,0.0097,-0.9773,0.1068,-0.0038,-0.0870,0.2640,0.0060,0.0096,-0.0013,3.1158,1.4347,3.0834
2024-10-11T13:40:12.280Z,0.0106,-0.9772,0.1049,-0.0212,-0.1359,0.3037,0.0075,0.0107,-0.0020,3.1156,1.4346,3.0836
2024-10-11T13:40:12.290Z,0.0116,-0.9768,0.1056,-0.0212,-0.1359,0.3037,0.0095,0.0109,0.0007,3.1156,1.4346,3.0836
2024-10-11T13:40:12.300Z,0.0118,-0.9764,0.1064,-0.0212,-0.1359,0.3037,0.0117,0.0115,-0.0009,3.1156,1.4346,3.0836
2024-10-11T13:40:12.309Z,0.0109,-0.9771,0.1076,-0.0334,-0.1364,0.2765,0.0136,0.0091,-0.0029,3.1153,1.4343,3.0839
2024-10-11T13:40:12.320Z,0.0083,-0.9766,0.1105,-0.0334,-0.1364,0.2765,0.0170,0.0096,-0.0014,3.1153,1.4343,3.0839
2024-10-11T13:40:12.330Z,0.0074,-0.9769,0.1146,-0.0334,-0.1364,0.2765,0.0176,0.0095,-0.0044,3.1153,1.4343,3.0839
2024-10-11T13:40:12.339Z,0.0066,-0.9774,0.1163,0.0186,-0.1218,0.1938,0.0220,0.0075,0.0004,3.1152,1.4338,3.0841
2024-10-11T13:40:12.350Z,0.0058,-0.9773,0.1194,0.0186,-0.1218,0.1938,0.0220,0.0075,-0.0033,3.1152,1.4338,3.0841
2024-10-11T13:40:12.360Z,0.0074,-0.9784,0.1210,0.0186,-0.1218,0.1938,0.0193,0.0088,-0.0049,3.1152,1.4338,3.0841
2024-10-11T13:40:12.370Z,0.0078,-0.9812,0.1232,0.0078,-0.0926,0.1409,0.0225,0.0076,-0.0051,3.1154,1.4332,3.0838
2024-10-11T13:40:12.380Z,0.0074,-0.9822,0.1255,0.0078,-0.0926,0.1409,0.0220,0.0072,-0.0052,3.1154,1.4332,3.0838
2024-10-11T13:40:12.390Z,0.0087,-0.9841,0.1266,0.0078,-0.0926,0.1409,0.0241,0.0072,-0.0036,3.1154,1.4332,3.0838
2024-10-11T13:40:12.400Z,0.0093,-0.9858,0.1293,-0.0137,-0.0465,0.0805,0.0256,0.0058,-0.0024,3.1157,1.4325,3.0835
2024-10-11T13:40:12.411Z,0.0099,-0.9881,0.1290,-0.0137,-0.0465,0.0805,0.0236,0.0057,-0.0027,3.1157,1.4325,3.0835
2024-10-11T13:40:12.421Z,0.0114,-0.9904,0.1299,-0.0137,-0.0465,0.0805,0.0259,0.0062,-0.0029,3.1157,1.4325,3.0835
2024-10-11T13:40:12.430Z,0.0111,-0.9915,0.1309,-0.0320,0.0149,0.0783,0.0280,0.0073,-0.0044,3.1157,1.4317,3.0834
2024-10-11T13:40:12.439Z,0.0107,-0.9928,0.1342,-0.0320,0.0149,0.0783,0.0261,0.0049,-0.0036,3.1157,1.4317,3.0834
2024-10-11T13:40:12.450Z,0.0095,-0.9930,0.1392,-0.0320,0.0149,0.0783,0.0255,0.0086,-0.0027,3.1157,1.4317,3.0834
2024-10-11T13:40:12.460Z,0.0092,-0.9935,0.1412,-0.0070,0.0332,-0.0216,0.0244,0.0064,-0.0029,3.1158,1.4310,3.0832
2024-10-11T13:40:12.470Z,0.0095,-0.9932,0.1433,-0.0070,0.0332,-0.0216,0.0229,0.0079,-0.0030,3.1158,1.4310,3.0832
2024-10-11T13:40:12.480Z,0.0097,-0.9946,0.1458,-0.0070,0.0332,-0.0216,0.0212,0.0072,-0.0032,3.1158,1.4310,3.0832
2024-10-11T13:40:12.489Z,0.0083,-0.9967,0.1470,-0.0061,0.0681,-0.0716,0.0233,0.0071,-0.0049,3.1160,1.4303,3.0830
2024-10-11T13:40:12.500Z,0.0115,-0.9988,0.1491,-0.0061,0.0681,-0.0716,0.0215,0.0076,-0.0021,3.1160,1.4303,3.0830
2024-10-11T13:40:12.510Z,0.0124,-0.9984,0.1496,-0.0061,0.0681,-0.0716,0.0202,0.0104,-0.0024,3.1160,1.4303,3.0830
2024-10-11T13:40:12.520Z,0.0135,-0.9967,0.1525,-0.0547,0.0688,-0.1266,0.0171,0.0087,-0.0040,3.1161,1.4296,3.0828
2024-10-11T13:40:12.530Z,0.0135,-0.9976,0.1539,-0.0547,0.0688,-0.1266,0.0171,0.0115,-0.0019,3.1161,1.4296,3.0828
2024-10-11T13:40:12.539Z,0.0126,-0.9962,0.1536,-0.0547,0.0688,-0.1266,0.0142,0.0122,-0.0022,3.1161,1.4296,3.0828
2024-10-11T13:40:12.550Z,0.0114,-0.9946,0.1546,-0.0307,0.0434,-0.1321,0.0127,0.0148,-0.0017,3.1161,1.4292,3.0829
2024-10-11T13:40:12.560Z,0.0115,-0.9964,0.1570,-0.0307,0.0434,-0.1321,0.0104,0.0127,-0.0015,3.1161,1.4292,3.0829
2024-10-11T13:40:12.570Z,0.0134,-0.9937,0.1556,-0.0307,0.0434,-0.1321,0.0120,0.0130,-0.0003,3.1161,1.4292,3.0829
2024-10-11T13:40:12.580Z,0.0114,-0.9930,0.1530,-0.0321,0.0250,-0.1159,0.0047,0.0146,0.0022,3.1158,1.4289,3.0834
2024-10-11T13:40:12.590Z,0.0115,-0.9943,0.1520,-0.0321,0.0250,-0.1159,0.0078,0.0138,0.0011,3.1158,1.4289,3.0834
2024-10-11T13:40:12.600Z,0.0113,-0.9957,0.1521,-0.0321,0.0250,-0.1159,0.0042,0.0147,-0.0014,3.1158,1.4289,3.0834
2024-10-11T13:40:12.610Z,0.0117,-0.9956,0.1518,-0.0311,0.0532,-0.0983,0.0019,0.0133,0.0011,3.1155,1.4287,3.0839
2024-10-11T13:40:12.620Z,0.0103,-0.9966,0.1512,-0.0311,0.0532,-0.0983,0.0034,0.0142,-0.0020,3.1155,1.4287,3.0839
2024-10-11T13:40:12.630Z,0.0076,-0.9974,0.1506,-0.0311,0.0532,-0.0983,0.0022,0.0153,0.0003,3.1155,1.4287,3.0839
2024-10-11T13:40:12.639Z,0.0072,-0.9966,0.1479,0.0055,0.0636,-0.0562,-0.0010,0.0132,-0.0015,3.1157,1.4284,3.0838
2024-10-11T13:40:12.650Z,0.0098,-0.9961,0.1466,0.0055,0.0636,-0.0562,-0.0035,0.0108,-0.0009,3.1157,1.4284,3.0838
2024-10-11T13:40:12.660Z,0.0125,-0.9966,0.1447,0.0055,0.0636,-0.0562,-0.0016,0.0099,-0.0017,3.1157,1.4284,3.0838
2024-10-11T13:40:12.670Z,0.0105,-0.9984,0.1417,-0.0244,0.0787,0.0056,-0.0040,0.0107,-0.0037,3.1163,1.4283,3.0834
2024-10-11T13:40:12.680Z,0.0126,-0.9967,0.1387,-0.0244,0.0787,0.0056,-0.0045,0.0100,-0.0004,3.1163,1.4283,3.0834
2024-10-11T13:40:12.690Z,0.0122,-0.9991,0.1364,-0.0244,0.0787,0.0056,-0.0016,0.0100,-0.0025,3.1163,1.4283,3.0834
2024-10-11T13:40:12.700Z,0.0132,-1.0010,0.1368,-0.0530,0.1073,0.0508,-0.0034,0.0088,-0.0017,3.1164,1.4284,3.0833
2024-10-11T13:40:12.710Z,0.0124,-0.9999,0.1325,-0.0530,0.1073,0.0508,-0.0029,0.0099,-0.0029,3.1164,1.4284,3.0833
2024-10-11T13:40:12.720Z,0.0113,-0.9989,0.1343,-0.0530,0.1073,0.0508,-0.0036,0.0083,-0.0009,3.1164,1.4284,3.0833
2024-10-11T13:40:12.730Z,0.0132,-0.9977,0.1367,-0.0500,0.0796,0.0487,-0.0012,0.0107,0.0002,3.1164,1.4284,3.0833
2024-10-11T13:40:12.740Z,0.0140,-0.9975,0.1367,-0.0500,0.0796,0.0487,-0.0016,0.0062,0.0034,3.1164,1.4284,3.0833
2024-10-11T13:40:12.750Z,0.0144,-0.9956,0.1393,-0.0500,0.0796,0.0487,-0.0013,0.0091,0.0011,3.1164,1.4284,3.0833
2024-10-11T13:40:12.760Z,0.0166,-0.9933,0.1407,-0.0772,0.0299,0.0130,-0.0021,0.0091,0.0046,3.1160,1.4285,3.0836
2024-10-11T13:40:12.770Z,0.0157,-0.9913,0.1385,-0.0772,0.0299,0.0130,-0.0056,0.0121,0.0036,3.1160,1.4285,3.0836
2024-10-11T13:40:12.780Z,0.0137,-0.9902,0.1392,-0.0772,0.0299,0.0130,-0.0032,0.0101,0.0057,3.1160,1.4285,3.0836
2024-10-11T13:40:12.790Z,0.0143,-0.9894,0.1378,-0.0639,-0.0046,0.0350,-0.0023,0.0127,0.0075,3.1151,1.4286,3.0846
2024-10-11T13:40:12.800Z,0.0128,-0.9888,0.1367,-0.0639,-0.0046,0.0350,-0.0027,0.0125,0.0055,3.1151,1.4286,3.0846
2024-10-11T13:40:12.809Z,0.0107,-0.9877,0.1367,-0.0639,-0.0046,0.0350,-0.0040,0.0103,0.0041,3.1151,1.4286,3.0846
2024-10-11T13:40:12.820Z,0.0095,-0.9881,0.1340,-0.0196,-0.0230,0.0744,-0.0029,0.0104,0.0059,3.1140,1.4287,3.0857
2024-10-11T13:40:12.829Z,0.0100,-0.9864,0.1344,-0.0196,-0.0230,0.0744,-0.0035,0.0101,0.0054,3.1140,1.4287,3.0857
2024-10-11T13:40:12.840Z,0.0081,-0.9854,0.1355,-0.0196,-0.0230,0.0744,-0.0035,0.0055,0.0064,3.1140,1.4287,3.0857
2024-10-11T13:40:12.850Z,0.0092,-0.9849,0.1348,-0.0191,-0.0440,0.0675,-0.0028,0.0080,0.0036,3.1130,1.4288,3.0867
2024-10-11T13:40:12.859Z,0.0099,-0.9873,0.1360,-0.0191,-0.0440,0.0675,-0.0025,0.0044,0.0040,3.1130,1.4288,3.0867
2024-10-11T13:40:12.870Z,0.0079,-0.9873,0.1366,-0.0191,-0.0440,0.0675,-0.0017,0.0038,0.0051,3.1130,1.4288,3.0867
2024-10-11T13:40:12.880Z,0.0076,-0.9859,0.1378,0.0053,-0.0398,0.0394,-0.0020,0.0052,0.0042,3.1120,1.4289,3.0876
2024-10-11T13:40:12.890Z,0.0071,-0.9848,0.1396,0.0053,-0.0398,0.0394,-0.0038,0.0048,0.0037,3.1120,1.4289,3.0876
2024-10-11T13:40:12.900Z,0.0052,-0.9848,0.1396,0.0053,-0.0398,0.0394,-0.0031,0.0044,0.0043,3.1120,1.4289,3.0876
2024-10-11T13:40:12.910Z,0.0081,-0.9843,0.1400,-0.0056,-0.0589,0.0069,-0.0044,0.0019,0.0013,3.1114,1.4291,3.0880
2024-10-11T13:40:12.920Z,0.0068,-0.9856,0.1395,-0.0056,-0.0589,0.0069,-0.0061,0.0015,0.0011,3.1114,1.4291,3.0880
2024-10-11T13:40:12.930Z,0.0071,-0.9878,0.1410,-0.0056,-0.0589,0.0069,-0.0054,0.0029,-0.0008,3.1114,1.4291,3.0880
2024-10-11T13:40:12.940Z,0.0092,-0.9887,0.1401,-0.0266,-0.0163,0.0065,-0.0054,0.0014,0.0020,3.1114,1.4294,3.0878
2024-10-11T13:40:12.950Z,0.0099,-0.9893,0.1361,-0.0266,-0.0163,0.0065,-0.0033,0.0022,0.0037,3.1114,1.4294,3.0878
2024-10-11T13:40:12.960Z,0.0116,-0.9899,0.1337,-0.0266,-0.0163,0.0065,-0.0051,0.0011,0.0029,3.1114,1.4294,3.0878
2024-10-11T13:40:12.970Z,0.0112,-0.9894,0.1326,-0.0263,-0.0047,0.0835,-0.0050,0.0036,0.0022,3.1107,1.4296,3.0883
2024-10-11T13:40:12.980Z,0.0093,-0.9898,0.1328,-0.0263,-0.0047,0.0835,-0.0026,0.0036,0.0057,3.1107,1.4296,3.0883
2024-10-11T13:40:12.990Z,0.0087,-0.9870,0.1318,-0.0263,-0.0047,0.0835,-0.0020,0.0010,0.0014,3.1107,1.4296,3.0883
2024-10-11T13:40:13.000Z,0.0083,-0.9872,0.1337,-0.0131,-0.0282,0.0644,-0.0007,0.0010,0.0024,3.1098,1.4297,3.0890
2024-10-11T13:40:13.010Z,0.0089,-0.9868,0.1341,-0.0131,-0.0282,0.0644,0.0003,0.0030,0.0010,3.1098,1.4297,3.0890
2024-10-11T13:40:13.020Z,0.0103,-0.9863,0.1346,-0.0131,-0.0282,0.0644,-0.0022,0.0019,0.0035,3.1098,1.4297,3.0890
2024-10-11T13:40:13.030Z,0.0101,-0.9840,0.1343,-0.0172,-0.0544,0.0538,0.0008,0.0021,0.0010,3.1093,1.4297,3.0894
2024-10-11T13:40:13.040Z,0.0098,-0.9861,0.1334,-0.0172,-0.0544,0.0538,0.0013,-0.0018,0.0032,3.1093,1.4297,3.0894
2024-10-11T13:40:13.050Z,0.0098,-0.9861,0.1325,-0.0172,-0.0544,0.0538,0.0013,0.0000,0.0022,3.1093,1.4297,3.0894
2024-10-11T13:40:13.061Z,0.0097,-0.9862,0.1337,-0.0116,-0.0414,0.0733,0.0045,0.0013,0.0024,3.1087,1.4297,3.0896
2024-10-11T13:40:13.070Z,0.0077,-0.9844,0.1315,-0.0116,-0.0414,0.0733,0.0036,0.0025,0.0005,3.1087,1.4297,3.0896
2024-10-11T13:40:13.081Z,0.0069,-0.9840,0.1311,-0.0116,-0.0414,0.0733,0.0037,0.0007,0.0021,3.1087,1.4297,3.0896
2024-10-11T13:40:13.090Z,0.0063,-0.9837,0.1316,0.0143,-0.0645,0.0803,0.0053,-0.0000,0.0003,3.1086,1.4297,3.0895
2024-10-11T13:40:13.100Z,0.0058,-0.9821,0.1326,0.0143,-0.0645,0.0803,0.0070,-0.0003,-0.0031,3.1086,1.4297,3.0895
2024-10-11T13:40:13.110Z,0.0048,-0.9835,0.1320,0.0143,-0.0645,0.0803,0.0072,-0.0003,-0.0014,3.1086,1.4297,3.0895
2024-10-11T13:40:13.120Z,0.0062,-0.9840,0.1332,0.0083,-0.0553,0.0696,0.0057,0.0007,-0.0007,3.1093,1.4296,3.0886
2024-10-11T13:40:13.130Z,0.0074,-0.9859,0.1306,0.0083,-0.0553,0.0696,0.0095,-0.0026,-0.0017,3.1093,1.4296,3.0886
2024-10-11T13:40:13.140Z,0.0085,-0.9873,0.1311,0.0083,-0.0553,0.0696,0.0114,-0.0024,-0.0018,3.1093,1.4296,3.0886
2024-10-11T13:40:13.150Z,0.0087,-0.9892,0.1333,-0.0076,-0.0093,0.0632,0.0121,-0.0022,-0.0033,3.1101,1.4300,3.0875
2024-10-11T13:40:13.160Z,0.0077,-0.9883,0.1362,-0.0076,-0.0093,0.0632,0.0117,0.0004,-0.0007,3.1101,1.4300,3.0875
2024-10-11T13:40:13.170Z,0.0067,-0.9881,0.1362,-0.0076,-0.0093,0.0632,0.0150,-0.0024,-0.0023,3.1101,1.4300,3.0875
2024-10-11T13:40:13.180Z,0.0075,-0.9869,0.1366,-0.0020,-0.0259,0.0355,0.0131,0.0003,-0.0027,3.1095,1.4300,3.0877
2024-10-11T13:40:13.190Z,0.0077,-0.9883,0.1368,-0.0020,-0.0259,0.0355,0.0146,-0.0006,-0.0016,3.1095,1.4300,3.0877
2024-10-11T13:40:13.200Z,0.0062,-0.9887,0.1366,-0.0020,-0.0259,0.0355,0.0149,0.0002,-0.0046,3.1095,1.4300,3.0877
2024-10-11T13:40:13.209Z,0.0084,-0.9918,0.1393,0.0002,0.0242,0.0100,0.0183,-0.0013,-0.0020,3.1094,1.4297,3.0876
2024-10-11T13:40:13.220Z,0.0073,-0.9956,0.1404,0.0002,0.0242,0.0100,0.0170,-0.0023,-0.0048,3.1094,1.4297,3.0876
2024-10-11T13:40:13.230Z,0.0085,-0.9974,0.1413,0.0002,0.0242,0.0100,0.0156,-0.0019,-0.0026,3.1094,1.4297,3.0876
2024-10-11T13:40:13.240Z,0.0096,-0.9967,0.1414,-0.0225,0.0637,-0.0065,0.0146,-0.0020,-0.0025,3.1094,1.4293,3.0872
2024-10-11T13:40:13.250Z,0.0139,-0.9971,0.1432,-0.0225,0.0637,-0.0065,0.0155,-0.0033,-0.0051,3.1094,1.4293,3.0872
2024-10-11T13:40:13.259Z,0.0114,-0.9976,0.1433,-0.0225,0.0637,-0.0065,0.0148,-0.0013,-0.0014,3.1094,1.4293,3.0872
2024-10-11T13:40:13.271Z,0.0102,-0.9984,0.1460,-0.0311,0.0809,-0.0511,0.0144,-0.0015,-0.0021,3.1093,1.4288,3.0871
2024-10-11T13:40:13.280Z,0.0106,-1.0000,0.1492,-0.0311,0.0809,-0.0511,0.0144,-0.0015,-0.0021,3.1093,1.4288,3.0871
2024-10-11T13:40:13.290Z,0.0082,-0.9995,0.1498,-0.0311,0.0809,-0.0511,0.0092,0.0005,-0.0012,3.1093,1.4288,3.0871
2024-10-11T13:40:13.300Z,0.0089,-0.9996,0.1524,-0.0031,0.0948,-0.1145,0.0080,0.0004,-0.0002,3.1091,1.4285,3.0870
2024-10-11T13:40:13.310Z,0.0083,-0.9989,0.1556,-0.0031,0.0948,-0.1145,0.0079,-0.0014,-0.0033,3.1091,1.4285,3.0870
2024-10-11T13:40:13.321Z,0.0066,-0.9986,0.1569,-0.0031,0.0948,-0.1145,0.0016,-0.0019,0.0001,3.1091,1.4285,3.0870
2024-10-11T13:40:13.329Z,0.0080,-0.9979,0.1595,-0.0068,0.0828,-0.1816,0.0016,-0.0019,0.0001,3.1090,1.4283,3.0868
2024-10-11T13:40:13.341Z,0.0086,-0.9966,0.1598,-0.0068,0.0828,-0.1816,-0.0019,0.0005,-0.0043,3.1090,1.4283,3.0868
2024-10-11T13:40:13.351Z,0.0082,-0.9933,0.1589,-0.0068,0.0828,-0.1816,-0.0039,0.0007,0.0001,3.1090,1.4283,3.0868
2024-10-11T13:40:13.360Z,0.0090,-0.9907,0.1584,-0.0139,0.0025,-0.1576,-0.0039,0.0007,0.0001,3.1088,1.4284,3.0868
2024-10-11T13:40:13.371Z,0.0086,-0.9911,0.1582,-0.0139,0.0025,-0.1576,-0.0101,0.0042,0.0003,3.1088,1.4284,3.0868
2024-10-11T13:40:13.381Z,0.0088,-0.9890,0.1586,-0.0139,0.0025,-0.1576,-0.0117,0.0044,0.0001,3.1088,1.4284,3.0868
2024-10-11T13:40:13.391Z,0.0124,-0.9886,0.1581,-0.0439,-0.0077,-0.1592,-0.0132,0.0040,0.0023,3.1086,1.4286,3.0868
2024-10-11T13:40:13.401Z,0.0124,-0.9908,0.1557,-0.0439,-0.0077,-0.1592,-0.0130,0.0046,0.0031,3.1086,1.4286,3.0868
2024-10-11T13:40:13.411Z,0.0123,-0.9906,0.1563,-0.0439,-0.0077,-0.1592,-0.0125,0.0032,0.0043,3.1086,1.4286,3.0868
2024-10-11T13:40:13.421Z,0.0128,-0.9911,0.1558,-0.0483,0.0142,-0.1381,-0.0159,0.0048,0.0035,3.1080,1.4289,3.0872
2024-10-11T13:40:13.431Z,0.0115,-0.9935,0.1536,-0.0483,0.0142,-0.1381,-0.0158,0.0063,0.0043,3.1080,1.4289,3.0872
2024-10-11T13:40:13.441Z,0.0098,-0.9923,0.1521,-0.0483,0.0142,-0.1381,-0.0197,0.0059,0.0030,3.1080,1.4289,3.0872
2024-10-11T13:40:13.451Z,0.0098,-0.9906,0.1517,-0.0244,0.0051,-0.1126,-0.0178,0.0039,0.0043,3.1072,1.4293,3.0879
2024-10-11T13:40:13.460Z,0.0096,-0.9913,0.1512,-0.0244,0.0051,-0.1126,-0.0178,0.0039,0.0043,3.1072,1.4293,3.0879
2024-10-11T13:40:13.471Z,0.0071,-0.9900,0.1496,-0.0244,0.0051,-0.1126,-0.0210,0.0020,0.0016,3.1072,1.4293,3.0879
2024-10-11T13:40:13.480Z,0.0064,-0.9884,0.1481,0.0120,-0.0134,-0.0760,-0.0210,0.0020,0.0016,3.1069,1.4297,3.0882
2024-10-11T13:40:13.490Z,0.0063,-0.9884,0.1455,0.0120,-0.0134,-0.0760,-0.0203,0.0029,0.0034,3.1069,1.4297,3.0882
2024-10-11T13:40:13.501Z,0.0071,-0.9893,0.1458,-0.0072,-0.0066,-0.0285,-0.0197,0.0006,0.0015,3.1066,1.4302,3.0883
2024-10-11T13:40:13.510Z,0.0077,-0.9892,0.1434,-0.0072,-0.0066,-0.0285,-0.0198,-0.0017,0.0018,3.1066,1.4302,3.0883
2024-10-11T13:40:13.521Z,0.0079,-0.9915,0.1426,-0.0072,-0.0066,-0.0285,-0.0186,0.0036,-0.0003,3.1066,1.4302,3.0883
2024-10-11T13:40:13.531Z,0.0038,-0.9904,0.1401,-0.0072,-0.0066,-0.0285,-0.0158,0.0015,-0.0004,3.1066,1.4302,3.0883
2024-10-11T13:40:13.540Z,0.0040,-0.9910,0.1413,0.0286,0.0112,-0.0194,-0.0158,0.0015,-0.0004,3.1063,1.4307,3.0884
2024-10-11T13:40:13.551Z,0.0052,-0.9910,0.1403,0.0286,0.0112,-0.0194,-0.0139,0.0046,-0.0023,3.1063,1.4307,3.0884
2024-10-11T13:40:13.560Z,0.0051,-0.9892,0.1404,0.0286,0.0112,-0.0194,-0.0145,0.0043,-0.0011,3.1063,1.4307,3.0884
2024-10-11T13:40:13.570Z,0.0068,-0.9881,0.1397,-0.0012,-0.0276,-0.0022,-0.0113,0.0025,-0.0001,3.1063,1.4310,3.0882
2024-10-11T13:40:13.581Z,0.0082,-0.9871,0.1405,-0.0012,-0.0276,-0.0022,-0.0102,0.0054,-0.0012,3.1063,1.4310,3.0882
2024-10-11T13:40:13.592Z,0.0094,-0.9859,0.1410,-0.0318,-0.0529,0.0055,-0.0102,0.0054,-0.0012,3.1063,1.4313,3.0880
2024-10-11T13:40:13.600Z,0.0106,-0.9851,0.1386,-0.0318,-0.0529,0.0055,-0.0051,0.0039,-0.0015,3.1063,1.4313,3.0880
2024-10-11T13:40:13.611Z,0.0102,-0.9843,0.1381,-0.0318,-0.0529,0.0055,-0.0030,0.0058,0.0009,3.1063,1.4313,3.0880
2024-10-11T13:40:13.621Z,0.0134,-0.9875,0.1366,-0.0318,-0.0529,0.0055,-0.0063,0.0087,-0.0009,3.1063,1.4313,3.0880
2024-10-11T13:40:13.630Z,0.0130,-0.9878,0.1357,-0.0551,-0.0260,0.0400,-0.0019,0.0072,-0.0028,3.1059,1.4314,3.0883
2024-10-11T13:40:13.640Z,0.0131,-0.9893,0.1325,-0.0551,-0.0260,0.0400,-0.0019,0.0072,-0.0028,3.1059,1.4314,3.0883
2024-10-11T13:40:13.650Z,0.0111,-0.9885,0.1329,-0.0551,-0.0260,0.0400,-0.0026,0.0055,-0.0023,3.1059,1.4314,3.0883
2024-10-11T13:40:13.661Z,0.0099,-0.9879,0.1337,-0.0306,-0.0250,0.0505,-0.0060,0.0049,-0.0032,3.1058,1.4315,3.0884
2024-10-11T13:40:13.670Z,0.0092,-0.9885,0.1326,-0.0306,-0.0250,0.0505,-0.0040,0.0067,-0.0025,3.1058,1.4315,3.0884
2024-10-11T13:40:13.680Z,0.0102,-0.9883,0.1345,-0.0306,-0.0250,0.0505,-0.0030,0.0042,-0.0009,3.1058,1.4315,3.0884
2024-10-11T13:40:13.691Z,0.0088,-0.9883,0.1329,-0.0150,-0.0139,0.0577,-0.0039,0.0010,-0.0016,3.1061,1.4316,3.0880
2024-10-11T13:40:13.700Z,0.0090,-0.9875,0.1332,-0.0150,-0.0139,0.0577,-0.0007,0.0000,-0.0014,3.1061,1.4316,3.0880
2024-10-11T13:40:13.711Z,0.0090,-0.9875,0.1332,0.0071,-0.0143,0.0615,-0.0007,0.0000,-0.0014,3.1068,1.4316,3.0871
2024-10-11T13:40:13.721Z,0.0075,-0.9881,0.1322,0.0071,-0.0143,0.0615,-0.0001,0.0026,-0.0031,3.1068,1.4316,3.0871
2024-10-11T13:40:13.731Z,0.0060,-0.9876,0.1330,0.0071,-0.0143,0.0615,-0.0019,-0.0000,-0.0038,3.1068,1.4316,3.0871
2024-10-11T13:40:13.743Z,0.0050,-0.9879,0.1333,0.0219,-0.0274,0.0482,-0.0014,-0.0008,-0.0042,3.1077,1.4317,3.0859
2024-10-11T13:40:13.750Z,0.0047,-0.9882,0.1329,0.0219,-0.0274,0.0482,0.0007,-0.0002,-0.0037,3.1077,1.4317,3.0859
2024-10-11T13:40:13.761Z,0.0054,-0.9865,0.1330,0.0219,-0.0274,0.0482,0.0006,0.0002,-0.0056,3.1077,1.4317,3.0859
2024-10-11T13:40:13.770Z,0.0068,-0.9873,0.1312,0.0219,-0.0274,0.0482,0.0056,-0.0017,-0.0048,3.1077,1.4317,3.0859
2024-10-11T13:40:13.780Z,0.0113,-0.9866,0.1298,-0.0308,-0.0383,0.0862,0.0065,0.0007,-0.0056,3.1087,1.4317,3.0846
2024-10-11T13:40:13.791Z,0.0108,-0.9852,0.1302,-0.0308,-0.0383,0.0862,0.0079,-0.0014,-0.0045,3.1087,1.4317,3.0846
2024-10-11T13:40:13.800Z,0.0096,-0.9837,0.1296,-0.0308,-0.0383,0.0862,0.0075,0.0001,-0.0056,3.1087,1.4317,3.0846
2024-10-11T13:40:13.811Z,0.0105,-0.9849,0.1299,-0.0254,-0.0543,0.0768,0.0072,-0.0004,-0.0046,3.1091,1.4317,3.0840
2024-10-11T13:40:13.820Z,0.0101,-0.9836,0.1305,-0.0254,-0.0543,0.0768,0.0090,-0.0013,-0.0054,3.1091,1.4317,3.0840
2024-10-11T13:40:13.830Z,0.0081,-0.9822,0.1333,-0.0254,-0.0543,0.0768,0.0101,0.0011,-0.0029,3.1091,1.4317,3.0840
2024-10-11T13:40:13.841Z,0.0097,-0.9836,0.1335,-0.0134,-0.0642,0.0475,0.0076,0.0009,-0.0037,3.1087,1.4316,3.0841
2024-10-11T13:40:13.850Z,0.0106,-0.9838,0.1345,-0.0134,-0.0642,0.0475,0.0083,-0.0005,-0.0055,3.1087,1.4316,3.0841
2024-10-11T13:40:13.860Z,0.0105,-0.9857,0.1359,-0.0134,-0.0642,0.0475,0.0094,-0.0004,-0.0029,3.1087,1.4316,3.0841
2024-10-11T13:40:13.870Z,0.0117,-0.9872,0.1369,-0.0216,-0.0552,0.0199,0.0079,-0.0007,-0.0035,3.1098,1.4316,3.0828
2024-10-11T13:40:13.880Z,0.0121,-0.9883,0.1368,-0.0216,-0.0552,0.0199,0.0107,-0.0007,-0.0027,3.1098,1.4316,3.0828
2024-10-11T13:40:13.892Z,0.0121,-0.9883,0.1368,-0.0400,-0.0198,0.0171,0.0069,0.0001,-0.0024,3.1102,1.4315,3.0822
2024-10-11T13:40:13.900Z,0.0125,-0.9892,0.1373,-0.0400,-0.0198,0.0171,0.0098,0.0014,-0.0010,3.1102,1.4315,3.0822
2024-10-11T13:40:13.910Z,0.0107,-0.9885,0.1374,-0.0400,-0.0198,0.0171,0.0090,0.0025,-0.0026,3.1102,1.4315,3.0822
2024-10-11T13:40:13.921Z,0.0107,-0.9885,0.1374,-0.0133,-0.0109,0.0162,0.0090,0.0025,-0.0026,3.1102,1.4312,3.0819
2024-10-11T13:40:13.930Z,0.0089,-0.9892,0.1364,-0.0133,-0.0109,0.0162,0.0078,0.0026,0.0001,3.1102,1.4312,3.0819
2024-10-11T13:40:13.941Z,0.0096,-0.9877,0.1366,-0.0133,-0.0109,0.0162,0.0061,0.0036,0.0013,3.1102,1.4312,3.0819
2024-10-11T13:40:13.951Z,0.0087,-0.9870,0.1363,-0.0017,-0.0167,0.0131,0.0091,0.0020,0.0014,3.1105,1.4310,3.0814
2024-10-11T13:40:13.960Z,0.0090,-0.9886,0.1381,-0.0017,-0.0167,0.0131,0.0061,0.0006,-0.0015,3.1105,1.4310,3.0814
2024-10-11T13:40:13.970Z,0.0085,-0.9900,0.1399,-0.0017,-0.0167,0.0131,0.0089,0.0047,0.0004,3.1105,1.4310,3.0814
2024-10-11T13:40:13.980Z,0.0085,-0.9900,0.1399,-0.0017,-0.0167,0.0131,0.0061,0.0069,-0.0004,3.1105,1.4310,3.0814
2024-10-11T13:40:13.992Z,0.0093,-0.9914,0.1416,-0.0089,0.0021,-0.0231,0.0081,0.0065,-0.0015,3.1108,1.4308,3.0810
2024-10-11T13:40:14.000Z,0.0093,-0.9914,0.1416,-0.0089,0.0021,-0.0231,0.0069,0.0067,0.0011,3.1108,1.4308,3.0810
2024-10-11T13:40:14.011Z,0.0079,-0.9903,0.1439,0.0076,-0.0072,-0.0482,0.0083,0.0065,0.0011,3.1107,1.4306,3.0811
2024-10-11T13:40:14.021Z,0.0075,-0.9899,0.1448,0.0076,-0.0072,-0.0482,0.0070,0.0084,-0.0017,3.1107,1.4306,3.0811
2024-10-11T13:40:14.030Z,0.0063,-0.9921,0.1456,0.0076,-0.0072,-0.0482,0.0070,0.0084,-0.0017,3.1107,1.4306,3.0811
2024-10-11T13:40:14.043Z,0.0063,-0.9921,0.1456,0.0252,0.0396,-0.0438,0.0077,0.0048,0.0003,3.1103,1.4304,3.0814
2024-10-11T13:40:14.050Z,0.0077,-0.9947,0.1443,0.0252,0.0396,-0.0438,0.0098,0.0045,0.0007,3.1103,1.4304,3.0814
2024-10-11T13:40:14.060Z,0.0077,-0.9947,0.1443,0.0252,0.0396,-0.0438,0.0093,0.0056,0.0014,3.1103,1.4304,3.0814
2024-10-11T13:40:14.071Z,0.0087,-0.9964,0.1483,-0.0011,0.0403,-0.0887,0.0089,0.0045,-0.0013,3.1100,1.4301,3.0816
2024-10-11T13:40:14.080Z,0.0104,-0.9944,0.1512,-0.0011,0.0403,-0.0887,0.0075,0.0064,0.0006,3.1100,1.4301,3.0816
2024-10-11T13:40:14.092Z,0.0112,-0.9931,0.1529,-0.0011,0.0403,-0.0887,0.0040,0.0072,0.0002,3.1100,1.4301,3.0816
2024-10-11T13:40:14.101Z,0.0112,-0.9931,0.1529,-0.0465,0.0294,-0.1394,0.0024,0.0104,0.0027,3.1094,1.4299,3.0822
2024-10-11T13:40:14.111Z,0.0125,-0.9930,0.1558,-0.0465,0.0294,-0.1394,0.0026,0.0093,0.0025,3.1094,1.4299,3.0822
2024-10-11T13:40:14.120Z,0.0106,-0.9926,0.1572,-0.0465,0.0294,-0.1394,0.0016,0.0135,0.0034,3.1094,1.4299,3.0822
2024-10-11T13:40:14.131Z,0.0106,-0.9926,0.1572,-0.0271,0.0196,-0.1742,0.0016,0.0135,0.0034,3.1087,1.4298,3.0829
2024-10-11T13:40:14.141Z,0.0110,-0.9927,0.1578,-0.0271,0.0196,-0.1742,-0.0007,0.0161,0.0019,3.1087,1.4298,3.0829
2024-10-11T13:40:14.150Z,0.0096,-0.9933,0.1586,-0.0271,0.0196,-0.1742,-0.0023,0.0135,0.0006,3.1087,1.4298,3.0829
2024-10-11T13:40:14.161Z,0.0099,-0.9948,0.1595,-0.0215,0.0548,-0.1697,-0.0016,0.0127,0.0007,3.1081,1.4299,3.0836
2024-10-11T13:40:14.170Z,0.0077,-0.9955,0.1576,-0.0215,0.0548,-0.1697,-0.0037,0.0137,0.0035,3.1081,1.4299,3.0836
2024-10-11T13:40:14.181Z,0.0109,-0.9931,0.1552,-0.0215,0.0548,-0.1697,-0.0063,0.0152,0.0007,3.1081,1.4299,3.0836
2024-10-11T13:40:14.192Z,0.0109,-0.9931,0.1552,-0.0163,0.0204,-0.1608,-0.0063,0.0162,-0.0005,3.1077,1.4299,3.0842
2024-10-11T13:40:14.200Z,0.0087,-0.9916,0.1552,-0.0163,0.0204,-0.1608,-0.0051,0.0158,0.0024,3.1077,1.4299,3.0842
2024-10-11T13:40:14.210Z,0.0098,-0.9903,0.1533,-0.0163,0.0204,-0.1608,-0.0090,0.0133,0.0019,3.1077,1.4299,3.0842
2024-10-11T13:40:14.220Z,0.0098,-0.9903,0.1533,-0.0146,0.0141,-0.1097,-0.0094,0.0146,0.0024,3.1072,1.4300,3.0849
2024-10-11T13:40:14.230Z,0.0112,-0.9913,0.1497,-0.0146,0.0141,-0.1097,-0.0098,0.0115,0.0015,3.1072,1.4300,3.0849
2024-10-11T13:40:14.240Z,0.0102,-0.9910,0.1481,-0.0146,0.0141,-0.1097,-0.0119,0.0150,0.0031,3.1072,1.4300,3.0849
2024-10-11T13:40:14.249Z,0.0102,-0.9910,0.1481,-0.0146,0.0141,-0.1097,-0.0133,0.0157,0.0023,3.1072,1.4300,3.0849
2024-10-11T13:40:14.260Z,0.0073,-0.9936,0.1448,-0.0035,0.0327,-0.0629,-0.0113,0.0168,0.0030,3.1067,1.4302,3.0856
2024-10-11T13:40:14.270Z,0.0074,-0.9931,0.1422,-0.0035,0.0327,-0.0629,-0.0139,0.0148,0.0009,3.1067,1.4302,3.0856
2024-10-11T13:40:14.281Z,0.0074,-0.9931,0.1422,-0.0132,0.0381,-0.0288,-0.0109,0.0152,-0.0004,3.1060,1.4305,3.0864
2024-10-11T13:40:14.290Z,0.0081,-0.9940,0.1417,-0.0132,0.0381,-0.0288,-0.0123,0.0168,0.0012,3.1060,1.4305,3.0864
2024-10-11T13:40:14.300Z,0.0076,-0.9924,0.1406,-0.0132,0.0381,-0.0288,-0.0131,0.0142,-0.0009,3.1060,1.4305,3.0864
2024-10-11T13:40:14.310Z,0.0076,-0.9924,0.1406,0.0156,0.0003,-0.0013,-0.0092,0.0156,-0.0006,3.1056,1.4308,3.0870
2024-10-11T13:40:14.320Z,0.0073,-0.9902,0.1379,0.0156,0.0003,-0.0013,-0.0097,0.0152,-0.0007,3.1056,1.4308,3.0870
2024-10-11T13:40:14.330Z,0.0075,-0.9877,0.1362,0.0156,0.0003,-0.0013,-0.0070,0.0158,-0.0004,3.1056,1.4308,3.0870
2024-10-11T13:40:14.340Z,0.0075,-0.9877,0.1362,-0.0090,-0.0438,0.0400,-0.0090,0.0122,-0.0018,3.1055,1.4310,3.0873
2024-10-11T13:40:14.349Z,0.0074,-0.9868,0.1348,-0.0090,-0.0438,0.0400,-0.0090,0.0122,-0.0018,3.1055,1.4310,3.0873
2024-10-11T13:40:14.360Z,0.0071,-0.9863,0.1345,-0.0090,-0.0438,0.0400,-0.0047,0.0151,-0.0013,3.1055,1.4310,3.0873
2024-10-11T13:40:14.370Z,0.0071,-0.9863,0.1345,0.0026,-0.0443,0.0389,-0.0038,0.0136,-0.0036,3.1054,1.4311,3.0875
2024-10-11T13:40:14.380Z,0.0086,-0.9870,0.1346,0.0026,-0.0443,0.0389,-0.0038,0.0126,-0.0020,3.1054,1.4311,3.0875
2024-10-11T13:40:14.390Z,0.0072,-0.9873,0.1352,0.0026,-0.0443,0.0389,-0.0027,0.0105,0.0002,3.1054,1.4311,3.0875
2024-10-11T13:40:14.400Z,0.0072,-0.9873,0.1352,-0.0130,-0.0255,0.0255,-0.0065,0.0134,-0.0057,3.1056,1.4312,3.0875
2024-10-11T13:40:14.410Z,0.0078,-0.9869,0.1376,-0.0130,-0.0255,0.0255,-0.0013,0.0134,-0.0017,3.1056,1.4312,3.0875
2024-10-11T13:40:14.420Z,0.0074,-0.9874,0.1377,-0.0130,-0.0255,0.0255,-0.0037,0.0111,-0.0027,3.1056,1.4312,3.0875
2024-10-11T13:40:14.430Z,0.0074,-0.9874,0.1377,-0.0240,-0.0354,0.0054,-0.0006,0.0100,-0.0028,3.1059,1.4313,3.0873
2024-10-11T13:40:14.440Z,0.0086,-0.9859,0.1367,-0.0240,-0.0354,0.0054,-0.0007,0.0106,-0.0044,3.1059,1.4313,3.0873
2024-10-11T13:40:14.449Z,0.0080,-0.9854,0.1365,-0.0240,-0.0354,0.0054,-0.0013,0.0099,-0.0028,3.1059,1.4313,3.0873
2024-10-11T13:40:14.460Z,0.0080,-0.9854,0.1365,-0.0190,-0.0575,0.0156,-0.0015,0.0116,-0.0039,3.1068,1.4316,3.0864
2024-10-11T13:40:14.469Z,0.0091,-0.9844,0.1356,-0.0190,-0.0575,0.0156,0.0009,0.0117,-0.0022,3.1068,1.4316,3.0864
2024-10-11T13:40:14.480Z,0.0101,-0.9829,0.1352,-0.0190,-0.0575,0.0156,0.0006,0.0109,-0.0010,3.1068,1.4316,3.0864
2024-10-11T13:40:14.491Z,0.0101,-0.9830,0.1342,-0.0177,-0.0676,0.0450,-0.0006,0.0119,-0.0048,3.1082,1.4317,3.0851
2024-10-11T13:40:14.500Z,0.0083,-0.9861,0.1365,-0.0177,-0.0676,0.0450,0.0026,0.0107,-0.0046,3.1082,1.4317,3.0851
2024-10-11T13:40:14.509Z,0.0083,-0.9861,0.1365,-0.0177,-0.0676,0.0450,0.0038,0.0107,-0.0031,3.1082,1.4317,3.0851
2024-10-11T13:40:14.520Z,0.0099,-0.9875,0.1360,-0.0174,-0.0246,0.0265,0.0048,0.0127,-0.0036,3.1092,1.4316,3.0841
2024-10-11T13:40:14.530Z,0.0081,-0.9886,0.1367,-0.0174,-0.0246,0.0265,0.0046,0.0087,-0.0046,3.1092,1.4316,3.0841
2024-10-11T13:40:14.540Z,0.0086,-0.9889,0.1384,-0.0174,-0.0246,0.0265,0.0051,0.0110,-0.0033,3.1092,1.4316,3.0841
2024-10-11T13:40:14.550Z,0.0086,-0.9889,0.1384,-0.0136,-0.0186,-0.0014,0.0051,0.0100,-0.0038,3.1098,1.4315,3.0836
2024-10-11T13:40:14.560Z,0.0095,-0.9887,0.1387,-0.0136,-0.0186,-0.0014,0.0055,0.0092,-0.0041,3.1098,1.4315,3.0836
2024-10-11T13:40:14.570Z,0.0121,-0.9900,0.1381,-0.0136,-0.0186,-0.0014,0.0052,0.0109,-0.0021,3.1098,1.4315,3.0836
2024-10-11T13:40:14.581Z,0.0098,-0.9906,0.1392,-0.0177,0.0039,-0.0022,0.0053,0.0121,-0.0025,3.1103,1.4314,3.0832
2024-10-11T13:40:14.590Z,0.0126,-0.9893,0.1386,-0.0177,0.0039,-0.0022,0.0055,0.0121,-0.0020,3.1103,1.4314,3.0832
2024-10-11T13:40:14.600Z,0.0128,-0.9878,0.1400,-0.0177,0.0039,-0.0022,0.0051,0.0119,-0.0035,3.1103,1.4314,3.0832
2024-10-11T13:40:14.611Z,0.0128,-0.9878,0.1400,-0.0445,-0.0363,-0.0151,0.0061,0.0097,0.0018,3.1104,1.4312,3.0832
2024-10-11T13:40:14.620Z,0.0128,-0.9858,0.1417,-0.0445,-0.0363,-0.0151,0.0052,0.0090,-0.0006,3.1104,1.4312,3.0832
2024-10-11T13:40:14.629Z,0.0138,-0.9863,0.1415,-0.0445,-0.0363,-0.0151,0.0062,0.0106,-0.0009,3.1104,1.4312,3.0832
2024-10-11T13:40:14.640Z,0.0140,-0.9873,0.1422,-0.0492,-0.0291,-0.0386,0.0073,0.0108,-0.0016,3.1105,1.4310,3.0831
2024-10-11T13:40:14.650Z,0.0122,-0.9870,0.1443,-0.0492,-0.0291,-0.0386,0.0057,0.0084,-0.0026,3.1105,1.4310,3.0831
2024-10-11T13:40:14.660Z,0.0094,-0.9961,0.1479,-0.0492,-0.0291,-0.0386,0.0056,0.0102,-0.0009,3.1105,1.4310,3.0831
2024-10-11T13:40:14.671Z,0.0089,-1.0201,0.1407,-0.0107,0.3175,-0.0008,0.0072,0.0068,0.0001,3.1104,1.4308,3.0832
2024-10-11T13:40:14.681Z,0.0107,-1.0340,0.1373,-0.0107,0.3175,-0.0008,0.0078,0.0072,-0.0015,3.1104,1.4308,3.0832
2024-10-11T13:40:14.690Z,0.0100,-1.0262,0.1406,-0.0107,0.3175,-0.0008,0.0110,0.0078,-0.0009,3.1104,1.4308,3.0832
2024-10-11T13:40:14.700Z,0.0100,-1.0262,0.1406,-0.0232,0.2837,-0.1000,0.0068,0.0083,0.0016,3.1099,1.4305,3.0836
2024-10-11T13:40:14.710Z,0.0108,-1.0193,0.1498,-0.0232,0.2837,-0.1000,0.0048,0.0067,-0.0001,3.1099,1.4305,3.0836
2024-10-11T13:40:14.720Z,0.0099,-1.0093,0.1500,-0.0232,0.2837,-0.1000,0.0003,0.0081,-0.0004,3.1099,1.4305,3.0836
2024-10-11T13:40:14.730Z,0.0099,-1.0093,0.1500,-0.0366,0.1213,-0.2151,-0.0015,0.0090,0.0025,3.1097,1.4304,3.0838
2024-10-11T13:40:14.739Z,0.0107,-0.9975,0.1718,-0.0366,0.1213,-0.2151,-0.0077,0.0101,-0.0009,3.1097,1.4304,3.0838
2024-10-11T13:40:14.749Z,0.0087,-0.9916,0.1729,-0.0366,0.1213,-0.2151,-0.0099,0.0094,0.0003,3.1097,1.4304,3.0838
2024-10-11T13:40:14.761Z,0.0087,-0.9916,0.1729,0.0041,-0.0227,-0.1432,-0.0154,0.0110,-0.0020,3.1096,1.4307,3.0839
2024-10-11T13:40:14.769Z,0.0124,-0.9839,0.1472,0.0041,-0.0227,-0.1432,-0.0148,0.0092,0.0025,3.1096,1.4307,3.0839
2024-10-11T13:40:14.780Z,0.0147,-0.9837,0.1469,0.0041,-0.0227,-0.1432,-0.0190,0.0130,0.0001,3.1096,1.4307,3.0839
2024-10-11T13:40:14.791Z,0.0074,-1.0001,0.1540,0.0061,0.1270,-0.1313,-0.0166,0.0114,-0.0004,3.1092,1.4311,3.0844
2024-10-11T13:40:14.800Z,0.0095,-1.0131,0.1425,0.0061,0.1270,-0.1313,-0.0163,0.0110,0.0008,3.1092,1.4311,3.0844
2024-10-11T13:40:14.810Z,0.0102,-0.9979,0.1527,0.0061,0.1270,-0.1313,-0.0221,0.0168,0.0018,3.1092,1.4311,3.0844
2024-10-11T13:40:14.820Z,0.0154,-0.9778,0.1651,-0.0681,-0.1286,-0.2683,-0.0227,0.0164,0.0012,3.1086,1.4317,3.0851
2024-10-11T13:40:14.830Z,0.0059,-0.9800,0.1475,-0.0681,-0.1286,-0.2683,-0.0238,0.0152,0.0010,3.1086,1.4317,3.0851
2024-10-11T13:40:14.840Z,0.0007,-0.9841,0.1355,-0.0681,-0.1286,-0.2683,-0.0260,0.0128,0.0004,3.1086,1.4317,3.0851
2024-10-11T13:40:14.850Z,0.0018,-0.9798,0.1349,0.0581,-0.1158,0.0104,-0.0241,0.0129,-0.0006,3.1086,1.4324,3.0853
2024-10-11T13:40:14.860Z,0.0064,-0.9796,0.1463,0.0581,-0.1158,0.0104,-0.0308,0.0132,-0.0027,3.1086,1.4324,3.0853
2024-10-11T13:40:14.870Z,0.0100,-0.9808,0.1538,0.0581,-0.1158,0.0104,-0.0287,0.0141,0.0003,3.1086,1.4324,3.0853
2024-10-11T13:40:14.880Z,0.0100,-0.9808,0.1538,-0.0366,-0.0657,-0.1566,-0.0332,0.0175,-0.0009,3.1089,1.4332,3.0852
2024-10-11T13:40:14.890Z,0.0099,-0.9840,0.1504,-0.0366,-0.0657,-0.1566,-0.0324,0.0153,-0.0011,3.1089,1.4332,3.0852
2024-10-11T13:40:14.900Z,0.0061,-0.9927,0.1521,-0.0366,-0.0657,-0.1566,-0.0331,0.0133,-0.0019,3.1089,1.4332,3.0852
2024-10-11T13:40:14.910Z,0.0061,-0.9927,0.1521,0.0017,0.1019,-0.0576,-0.0299,0.0125,-0.0008,3.1095,1.4342,3.0848
2024-10-11T13:40:14.920Z,0.0094,-1.0120,0.1190,0.0017,0.1019,-0.0576,-0.0304,0.0117,-0.0021,3.1095,1.4342,3.0848
2024-10-11T13:40:14.930Z,0.0143,-1.0092,0.1174,0.0017,0.1019,-0.0576,-0.0295,0.0139,-0.0018,3.1095,1.4342,3.0848
2024-10-11T13:40:14.940Z,0.0036,-0.9964,0.1384,0.0483,0.0358,-0.0472,-0.0283,0.0115,-0.0038,3.1101,1.4350,3.0842
2024-10-11T13:40:14.950Z,0.0036,-0.9906,0.1490,0.0483,0.0358,-0.0472,-0.0287,0.0109,-0.0023,3.1101,1.4350,3.0842
2024-10-11T13:40:14.960Z,0.0073,-0.9895,0.1394,0.0483,0.0358,-0.0472,-0.0298,0.0106,-0.0030,3.1101,1.4350,3.0842
2024-10-11T13:40:14.971Z,0.0119,-0.9842,0.1451,-0.0409,-0.0741,-0.0998,-0.0326,0.0127,-0.0042,3.1111,1.4358,3.0833
2024-10-11T13:40:14.980Z,0.0149,-0.9780,0.1388,-0.0409,-0.0741,-0.0998,-0.0301,0.0096,-0.0033,3.1111,1.4358,3.0833
2024-10-11T13:40:14.990Z,0.0160,-0.9817,0.1287,-0.0409,-0.0741,-0.0998,-0.0297,0.0105,-0.0015,3.1111,1.4358,3.0833
2024-10-11T13:40:15.000Z,0.0135,-0.9827,0.1262,-0.0444,-0.0731,0.0670,-0.0283,0.0090,-0.0026,3.1118,1.4367,3.0827
2024-10-11T13:40:15.010Z,0.0028,-0.9867,0.1313,-0.0444,-0.0731,0.0670,-0.0271,0.0111,-0.0006,3.1118,1.4367,3.0827
2024-10-11T13:40:15.020Z,0.0039,-0.9872,0.1383,-0.0444,-0.0731,0.0670,-0.0255,0.0088,-0.0010,3.1118,1.4367,3.0827
2024-10-11T13:40:15.031Z,0.0079,-0.9885,0.1373,0.0017,-0.0239,-0.0306,-0.0249,0.0099,-0.0023,3.1126,1.4374,3.0820
2024-10-11T13:40:15.040Z,0.0102,-0.9874,0.1312,0.0017,-0.0239,-0.0306,-0.0228,0.0083,-0.0013,3.1126,1.4374,3.0820
2024-10-11T13:40:15.050Z,0.0196,-0.9950,0.1248,0.0017,-0.0239,-0.0306,-0.0221,0.0119,-0.0014,3.1126,1.4374,3.0820
2024-10-11T13:40:15.061Z,0.0131,-0.9937,0.1454,-0.0482,0.0230,-0.1409,-0.0232,0.0136,-0.0008,3.1130,1.4380,3.0816
2024-10-11T13:40:15.070Z,0.0116,-0.9901,0.1409,-0.0482,0.0230,-0.1409,-0.0211,0.0121,-0.0008,3.1130,1.4380,3.0816
2024-10-11T13:40:15.080Z,0.0054,-0.9939,0.1320,-0.0482,0.0230,-0.1409,-0.0208,0.0112,-0.0020,3.1130,1.4380,3.0816
2024-10-11T13:40:15.090Z,0.0018,-1.0023,0.1239,0.0566,0.1180,0.0650,-0.0202,0.0086,-0.0019,3.1136,1.4387,3.0811
2024-10-11T13:40:15.100Z,0.0094,-1.0077,0.1268,0.0566,0.1180,0.0650,-0.0160,0.0057,-0.0049,3.1136,1.4387,3.0811
2024-10-11T13:40:15.110Z,0.0121,-1.0065,0.1281,0.0566,0.1180,0.0650,-0.0170,0.0044,-0.0026,3.1136,1.4387,3.0811
2024-10-11T13:40:15.120Z,0.0059,-1.0006,0.1314,0.0164,0.0861,-0.0131,-0.0156,0.0008,-0.0044,3.1142,1.4391,3.0805
2024-10-11T13:40:15.130Z,0.0133,-0.9935,0.1357,0.0164,0.0861,-0.0131,-0.0147,0.0012,-0.0046,3.1142,1.4391,3.0805
2024-10-11T13:40:15.140Z,0.0094,-0.9865,0.1269,0.0164,0.0861,-0.0131,-0.0137,0.0004,-0.0035,3.1142,1.4391,3.0805
2024-10-11T13:40:15.150Z,0.0083,-0.9808,0.1183,-0.0075,-0.1087,0.1370,-0.0108,-0.0038,-0.0052,3.1155,1.4395,3.0789
2024-10-11T13:40:15.160Z,0.0094,-0.9738,0.1139,-0.0075,-0.1087,0.1370,-0.0147,-0.0041,-0.0089,3.1155,1.4395,3.0789
2024-10-11T13:40:15.170Z,0.0122,-0.9748,0.1123,-0.0075,-0.1087,0.1370,-0.0117,-0.0069,-0.0063,3.1155,1.4395,3.0789
2024-10-11T13:40:15.180Z,0.0122,-0.9748,0.1123,-0.0719,-0.0824,0.0860,-0.0124,-0.0066,-0.0072,3.1169,1.4399,3.0771
2024-10-11T13:40:15.190Z,0.0152,-0.9867,0.1228,-0.0719,-0.0824,0.0860,-0.0092,-0.0086,-0.0072,3.1169,1.4399,3.0771
2024-10-11T13:40:15.200Z,0.0128,-0.9883,0.1147,-0.0719,-0.0824,0.0860,-0.0090,-0.0101,-0.0076,3.1169,1.4399,3.0771
2024-10-11T13:40:15.211Z,0.0079,-0.9896,0.1107,0.0034,-0.0140,0.1909,-0.0067,-0.0065,-0.0075,3.1183,1.4401,3.0752
2024-10-11T13:40:15.220Z,0.0125,-0.9871,0.1072,0.0034,-0.0140,0.1909,-0.0041,-0.0093,-0.0060,3.1183,1.4401,3.0752
2024-10-11T13:40:15.230Z,0.0179,-0.9687,0.1116,0.0034,-0.0140,0.1909,-0.0027,-0.0056,-0.0040,3.1183,1.4401,3.0752
2024-10-11T13:40:15.240Z,0.0196,-0.9581,0.1144,-0.1148,-0.3359,0.1396,-0.0007,-0.0074,-0.0017,3.1191,1.4402,3.0739
2024-10-11T13:40:15.250Z,0.0244,-0.9588,0.1140,-0.1148,-0.3359,0.1396,-0.0006,-0.0042,-0.0019,3.1191,1.4402,3.0739
2024-10-11T13:40:15.260Z,0.0196,-0.9626,0.1135,-0.1148,-0.3359,0.1396,0.0015,-0.0082,-0.0004,3.1191,1.4402,3.0739
2024-10-11T13:40:15.270Z,0.0139,-0.9629,0.1143,-0.0446,-0.2779,0.1415,0.0016,-0.0090,-0.0024,3.1191,1.4402,3.0734
2024-10-11T13:40:15.279Z,0.0089,-0.9658,0.1195,-0.0446,-0.2779,0.1415,0.0045,-0.0048,-0.0015,3.1191,1.4402,3.0734
2024-10-11T13:40:15.290Z,0.0161,-0.9667,0.1258,-0.0446,-0.2779,0.1415,0.0071,-0.0073,-0.0012,3.1191,1.4402,3.0734
2024-10-11T13:40:15.300Z,0.0194,-0.9752,0.1181,-0.0938,-0.1480,0.1311,0.0096,-0.0061,0.0008,3.1188,1.4401,3.0732
2024-10-11T13:40:15.310Z,0.0120,-0.9885,0.1193,-0.0938,-0.1480,0.1311,0.0125,-0.0067,0.0015,3.1188,1.4401,3.0732
2024-10-11T13:40:15.320Z,0.0179,-0.9989,0.1127,-0.0938,-0.1480,0.1311,0.0164,-0.0051,0.0016,3.1188,1.4401,3.0732
2024-10-11T13:40:15.330Z,0.0152,-1.0024,0.1154,-0.0620,0.1023,0.1595,0.0171,-0.0070,0.0006,3.1181,1.4396,3.0736
2024-10-11T13:40:15.340Z,0.0151,-0.9967,0.1243,-0.0620,0.1023,0.1595,0.0197,-0.0092,-0.0005,3.1181,1.4396,3.0736
2024-10-11T13:40:15.349Z,0.0083,-0.9912,0.1317,-0.0620,0.1023,0.1595,0.0175,-0.0100,0.0012,3.1181,1.4396,3.0736
2024-10-11T13:40:15.360Z,0.0118,-0.9901,0.1468,-0.0296,-0.0000,-0.1444,0.0160,-0.0086,0.0018,3.1173,1.4391,3.0738
2024-10-11T13:40:15.370Z,0.0137,-0.9982,0.1402,-0.0296,-0.0000,-0.1444,0.0136,-0.0063,0.0039,3.1173,1.4391,3.0738
2024-10-11T13:40:15.379Z,0.0108,-1.0018,0.1342,-0.0296,-0.0000,-0.1444,0.0096,-0.0071,0.0033,3.1173,1.4391,3.0738
2024-10-11T13:40:15.390Z,0.0142,-0.9962,0.1330,-0.0477,0.0485,-0.0091,0.0116,-0.0044,0.0008,3.1165,1.4387,3.0741
2024-10-11T13:40:15.399Z,0.0147,-0.9943,0.1382,-0.0477,0.0485,-0.0091,0.0082,-0.0058,0.0025,3.1165,1.4387,3.0741
2024-10-11T13:40:15.410Z,0.0090,-0.9923,0.1398,-0.0477,0.0485,-0.0091,0.0078,-0.0068,0.0033,3.1165,1.4387,3.0741
2024-10-11T13:40:15.420Z,0.0067,-0.9958,0.1399,0.0190,0.0598,-0.0654,0.0079,-0.0065,0.0031,3.1156,1.4384,3.0745
2024-10-11T13:40:15.430Z,0.0116,-1.0015,0.1365,0.0190,0.0598,-0.0654,0.0060,-0.0050,0.0035,3.1156,1.4384,3.0745
2024-10-11T13:40:15.440Z,0.0138,-1.0066,0.1438,0.0190,0.0598,-0.0654,0.0031,-0.0021,0.0057,3.1156,1.4384,3.0745
2024-10-11T13:40:15.451Z,0.0168,-1.0019,0.1362,-0.0738,0.0940,-0.0501,0.0036,-0.0016,0.0038,3.1145,1.4382,3.0753
2024-10-11T13:40:15.460Z,0.0106,-0.9957,0.1299,-0.0738,0.0940,-0.0501,0.0058,-0.0025,0.0047,3.1145,1.4382,3.0753
2024-10-11T13:40:15.470Z,0.0085,-0.9853,0.1395,-0.0738,0.0940,-0.0501,0.0047,-0.0036,0.0038,3.1145,1.4382,3.0753
2024-10-11T13:40:15.481Z,0.0000,-0.9847,0.1425,0.0818,-0.0644,-0.1238,0.0034,-0.0049,0.0011,3.1132,1.4381,3.0763
2024-10-11T13:40:15.490Z,0.0054,-0.9913,0.1534,0.0818,-0.0644,-0.1238,0.0037,-0.0083,0.0013,3.1132,1.4381,3.0763
2024-10-11T13:40:15.499Z,0.0084,-0.9940,0.1531,0.0818,-0.0644,-0.1238,0.0004,-0.0086,-0.0001,3.1132,1.4381,3.0763
2024-10-11T13:40:15.510Z,0.0076,-0.9974,0.1525,0.0074,0.0642,-0.2032,0.0006,-0.0084,0.0003,3.1127,1.4380,3.0762
2024-10-11T13:40:15.520Z,0.0123,-1.0025,0.1465,0.0074,0.0642,-0.2032,-0.0012,-0.0093,-0.0003,3.1127,1.4380,3.0762
2024-10-11T13:40:15.529Z,0.0083,-1.0056,0.1470,0.0074,0.0642,-0.2032,0.0031,-0.0112,-0.0009,3.1127,1.4380,3.0762
2024-10-11T13:40:15.540Z,0.0048,-1.0041,0.1439,0.0482,0.1295,-0.1129,0.0024,-0.0117,-0.0022,3.1127,1.4380,3.0756
2024-10-11T13:40:15.550Z,0.0090,-1.0071,0.1449,0.0482,0.1295,-0.1129,0.0012,-0.0165,-0.0022,3.1127,1.4380,3.0756
2024-10-11T13:40:15.560Z,0.0172,-1.0101,0.1586,0.0482,0.1295,-0.1129,-0.0019,-0.0146,-0.0004,3.1127,1.4380,3.0756
2024-10-11T13:40:15.570Z,0.0178,-1.0153,0.1581,-0.0897,0.2363,-0.2363,-0.0088,-0.0132,-0.0016,3.1127,1.4380,3.0749
2024-10-11T13:40:15.579Z,0.0168,-1.0115,0.1500,-0.0897,0.2363,-0.2363,-0.0117,-0.0102,-0.0031,3.1127,1.4380,3.0749
2024-10-11T13:40:15.590Z,0.0164,-1.0079,0.1382,-0.0897,0.2363,-0.2363,-0.0134,-0.0122,0.0026,3.1127,1.4380,3.0749
2024-10-11T13:40:15.600Z,0.0164,-1.0069,0.1493,-0.0624,0.1517,-0.1678,-0.0159,-0.0164,-0.0000,3.1128,1.4383,3.0742
2024-10-11T13:40:15.610Z,0.0132,-1.0088,0.1431,-0.0624,0.1517,-0.1678,-0.0181,-0.0185,0.0004,3.1128,1.4383,3.0742
2024-10-11T13:40:15.620Z,0.0199,-1.0128,0.1235,-0.0624,0.1517,-0.1678,-0.0186,-0.0166,-0.0007,3.1128,1.4383,3.0742
2024-10-11T13:40:15.631Z,0.0237,-1.0086,0.1248,-0.1455,0.1658,0.0522,-0.0192,-0.0164,0.0005,3.1125,1.4388,3.0737
2024-10-11T13:40:15.640Z,0.0198,-1.0019,0.1359,-0.1455,0.1658,0.0522,-0.0230,-0.0165,0.0035,3.1125,1.4388,3.0737
2024-10-11T13:40:15.650Z,0.0137,-0.9926,0.1348,-0.1455,0.1658,0.0522,-0.0271,-0.0177,0.0029,3.1125,1.4388,3.0737
2024-10-11T13:40:15.661Z,0.0105,-0.9842,0.1350,-0.0138,-0.0855,-0.0404,-0.0284,-0.0184,0.0022,3.1121,1.4396,3.0734
2024-10-11T13:40:15.670Z,0.0085,-0.9809,0.1341,-0.0138,-0.0855,-0.0404,-0.0296,-0.0189,0.0012,3.1121,1.4396,3.0734
2024-10-11T13:40:15.680Z,0.0072,-0.9870,0.1311,-0.0138,-0.0855,-0.0404,-0.0302,-0.0162,0.0027,3.1121,1.4396,3.0734
2024-10-11T13:40:15.690Z,0.0119,-0.9894,0.1280,-0.0390,-0.0163,0.0214,-0.0294,-0.0151,0.0015,3.1117,1.4404,3.0730
2024-10-11T13:40:15.700Z,0.0163,-0.9930,0.1199,-0.0390,-0.0163,0.0214,-0.0277,-0.0145,0.0029,3.1117,1.4404,3.0730
2024-10-11T13:40:15.711Z,0.0173,-0.9927,0.1218,-0.0390,-0.0163,0.0214,-0.0259,-0.0132,0.0061,3.1117,1.4404,3.0730
2024-10-11T13:40:15.720Z,0.0143,-0.9897,0.1275,-0.0524,-0.0228,-0.0058,-0.0285,-0.0072,0.0052,3.1110,1.4412,3.0731
2024-10-11T13:40:15.730Z,0.0052,-0.9880,0.1295,-0.0524,-0.0228,-0.0058,-0.0246,-0.0083,0.0047,3.1110,1.4412,3.0731
2024-10-11T13:40:15.740Z,0.0025,-0.9876,0.1210,-0.0524,-0.0228,-0.0058,-0.0254,-0.0070,0.0046,3.1110,1.4412,3.0731
2024-10-11T13:40:15.750Z,0.0011,-0.9830,0.1121,0.0685,-0.0920,0.1353,-0.0210,-0.0104,0.0056,3.1102,1.4419,3.0734
2024-10-11T13:40:15.761Z,0.0078,-0.9744,0.1257,0.0685,-0.0920,0.1353,-0.0199,-0.0104,0.0054,3.1102,1.4419,3.0734
2024-10-11T13:40:15.770Z,0.0076,-0.9672,0.1285,0.0685,-0.0920,0.1353,-0.0238,-0.0118,0.0056,3.1102,1.4419,3.0734
2024-10-11T13:40:15.781Z,0.0006,-0.9716,0.1200,0.0873,-0.1911,0.0819,-0.0206,-0.0070,0.0043,3.1093,1.4425,3.0738
2024-10-11T13:40:15.790Z,0.0045,-0.9799,0.1101,0.0873,-0.1911,0.0819,-0.0198,-0.0063,0.0039,3.1093,1.4425,3.0738
2024-10-11T13:40:15.800Z,0.0065,-0.9888,0.1062,0.0873,-0.1911,0.0819,-0.0183,-0.0033,0.0041,3.1093,1.4425,3.0738
2024-10-11T13:40:15.810Z,0.0028,-0.9881,0.1018,0.0573,-0.0464,0.2484,-0.0169,-0.0058,0.0054,3.1084,1.4431,3.0743
2024-10-11T13:40:15.820Z,0.0023,-0.9889,0.1027,0.0573,-0.0464,0.2484,-0.0146,-0.0022,0.0043,3.1084,1.4431,3.0743
2024-10-11T13:40:15.830Z,0.0032,-0.9902,0.0992,0.0573,-0.0464,0.2484,-0.0108,-0.0021,0.0043,3.1084,1.4431,3.0743
2024-10-11T13:40:15.840Z,0.0028,-0.9938,0.0883,0.0468,0.0149,0.3793,-0.0094,0.0010,0.0033,3.1072,1.4434,3.0752
2024-10-11T13:40:15.850Z,0.0056,-0.9891,0.0972,0.0468,0.0149,0.3793,-0.0054,0.0015,0.0019,3.1072,1.4434,3.0752
2024-10-11T13:40:15.860Z,0.0006,-0.9834,0.1051,0.0468,0.0149,0.3793,-0.0059,0.0020,0.0015,3.1072,1.4434,3.0752
2024-10-11T13:40:15.870Z,0.0001,-0.9834,0.1135,0.0740,-0.0913,0.1307,-0.0074,0.0068,0.0015,3.1065,1.4436,3.0757
2024-10-11T13:40:15.880Z,0.0042,-0.9751,0.1284,0.0740,-0.0913,0.1307,-0.0086,0.0061,0.0006,3.1065,1.4436,3.0757
2024-10-11T13:40:15.890Z,-0.0015,-0.9706,0.1282,0.0740,-0.0913,0.1307,-0.0071,0.0057,-0.0018,3.1065,1.4436,3.0757
2024-10-11T13:40:15.900Z,0.0009,-0.9790,0.1181,0.0697,-0.1150,0.0977,-0.0045,0.0064,-0.0004,3.1063,1.4438,3.0758
2024-10-11T13:40:15.910Z,0.0021,-0.9873,0.1102,0.0697,-0.1150,0.0977,-0.0039,0.0064,-0.0008,3.1063,1.4438,3.0758
2024-10-11T13:40:15.920Z,0.0079,-0.9890,0.1161,0.0697,-0.1150,0.0977,0.0013,0.0075,-0.0008,3.1063,1.4438,3.0758
2024-10-11T13:40:15.929Z,0.0034,-0.9914,0.1259,0.0682,-0.0006,-0.0195,-0.0001,0.0077,-0.0047,3.1062,1.4439,3.0759
2024-10-11T13:40:15.940Z,-0.0047,-0.9971,0.1349,0.0682,-0.0006,-0.0195,0.0003,0.0097,-0.0041,3.1062,1.4439,3.0759
2024-10-11T13:40:15.950Z,-0.0037,-1.0008,0.1334,0.0682,-0.0006,-0.0195,0.0038,0.0071,-0.0021,3.1062,1.4439,3.0759
2024-10-11T13:40:15.960Z,0.0061,-1.0093,0.1270,0.0115,0.1892,0.0085,0.0001,0.0087,-0.0031,3.1067,1.4439,3.0754
2024-10-11T13:40:15.970Z,0.0103,-1.0104,0.1206,0.0115,0.1892,0.0085,0.0015,0.0087,-0.0048,3.1067,1.4439,3.0754
2024-10-11T13:40:15.980Z,0.0056,-1.0018,0.1358,0.0115,0.1892,0.0085,-0.0021,0.0107,-0.0061,3.1067,1.4439,3.0754
2024-10-11T13:40:15.989Z,0.0091,-0.9921,0.1431,-0.0050,-0.0043,-0.1682,-0.0016,0.0098,-0.0058,3.1074,1.4439,3.0747
2024-10-11T13:40:16.000Z,0.0070,-0.9902,0.1308,-0.0050,-0.0043,-0.1682,-0.0038,0.0131,-0.0056,3.1074,1.4439,3.0747
2024-10-11T13:40:16.010Z,0.0051,-0.9859,0.1313,-0.0050,-0.0043,-0.1682,-0.0065,0.0103,-0.0050,3.1074,1.4439,3.0747
2024-10-11T13:40:16.020Z,0.0047,-0.9877,0.1283,0.0344,-0.0389,-0.0206,-0.0077,0.0124,-0.0071,3.1083,1.4440,3.0739
2024-10-11T13:40:16.030Z,0.0085,-0.9940,0.1239,0.0344,-0.0389,-0.0206,-0.0062,0.0163,-0.0072,3.1083,1.4440,3.0739
2024-10-11T13:40:16.040Z,0.0177,-0.9929,0.1250,0.0344,-0.0389,-0.0206,-0.0058,0.0168,-0.0034,3.1083,1.4440,3.0739
2024-10-11T13:40:16.050Z,0.0170,-0.9911,0.1260,-0.0731,-0.0070,-0.0041,-0.0073,0.0197,-0.0033,3.1088,1.4442,3.0735
2024-10-11T13:40:16.060Z,0.0116,-0.9860,0.1268,-0.0731,-0.0070,-0.0041,-0.0075,0.0175,-0.0013,3.1088,1.4442,3.0735
2024-10-11T13:40:16.070Z,0.0077,-0.9779,0.1263,-0.0731,-0.0070,-0.0041,-0.0073,0.0203,0.0007,3.1088,1.4442,3.0735
2024-10-11T13:40:16.080Z,0.0034,-0.9774,0.1255,0.0324,-0.1375,0.0120,-0.0068,0.0243,0.0002,3.1089,1.4444,3.0738
2024-10-11T13:40:16.090Z,0.0137,-0.9819,0.1256,0.0324,-0.1375,0.0120,-0.0089,0.0241,-0.0002,3.1089,1.4444,3.0738
2024-10-11T13:40:16.100Z,0.0185,-0.9872,0.1302,0.0324,-0.1375,0.0120,-0.0078,0.0274,0.0024,3.1089,1.4444,3.0738
2024-10-11T13:40:16.110Z,0.0143,-0.9812,0.1267,-0.0632,-0.1056,0.0032,-0.0038,0.0292,0.0033,3.1084,1.4446,3.0749
2024-10-11T13:40:16.120Z,0.0194,-0.9848,0.1181,-0.0632,-0.1056,0.0032,-0.0045,0.0323,0.0039,3.1084,1.4446,3.0749
2024-10-11T13:40:16.130Z,0.0185,-0.9888,0.1099,-0.0632,-0.1056,0.0032,0.0001,0.0312,0.0090,3.1084,1.4446,3.0749
2024-10-11T13:40:16.140Z,0.0128,-0.9916,0.1152,-0.0380,-0.0054,0.0970,0.0022,0.0323,0.0093,3.1067,1.4446,3.0772
2024-10-11T13:40:16.150Z,0.0077,-0.9925,0.1194,-0.0380,-0.0054,0.0970,0.0027,0.0291,0.0080,3.1067,1.4446,3.0772
2024-10-11T13:40:16.162Z,0.0054,-0.9944,0.1247,-0.0380,-0.0054,0.0970,0.0034,0.0319,0.0048,3.1067,1.4446,3.0772
2024-10-11T13:40:16.170Z,0.0089,-0.9909,0.1314,-0.0208,-0.0147,-0.0816,0.0046,0.0292,0.0061,3.1047,1.4445,3.0799
2024-10-11T13:40:16.180Z,0.0109,-0.9896,0.1391,-0.0208,-0.0147,-0.0816,0.0032,0.0287,0.0057,3.1047,1.4445,3.0799
2024-10-11T13:40:16.190Z,0.0103,-0.9886,0.1458,-0.0208,-0.0147,-0.0816,0.0021,0.0249,0.0046,3.1047,1.4445,3.0799
2024-10-11T13:40:16.200Z,0.0043,-0.9908,0.1442,0.0365,0.0008,-0.1743,0.0009,0.0238,0.0030,3.1032,1.4444,3.0819
2024-10-11T13:40:16.211Z,0.0061,-1.0037,0.1387,0.0365,0.0008,-0.1743,0.0018,0.0210,0.0048,3.1032,1.4444,3.0819
2024-10-11T13:40:16.220Z,0.0048,-1.0124,0.1303,0.0365,0.0008,-0.1743,0.0016,0.0229,0.0021,3.1032,1.4444,3.0819
2024-10-11T13:40:16.230Z,0.0048,-1.0066,0.1381,0.0159,0.1305,-0.1275,-0.0031,0.0258,0.0014,3.1023,1.4444,3.0833
2024-10-11T13:40:16.240Z,0.0115,-0.9971,0.1432,0.0159,0.1305,-0.1275,-0.0039,0.0245,0.0008,3.1023,1.4444,3.0833
2024-10-11T13:40:16.250Z,0.0089,-0.9955,0.1432,0.0159,0.1305,-0.1275,-0.0061,0.0262,0.0014,3.1023,1.4444,3.0833
2024-10-11T13:40:16.261Z,0.0060,-0.9978,0.1472,0.0225,0.0650,-0.1963,-0.0085,0.0261,0.0025,3.1018,1.4446,3.0843
2024-10-11T13:40:16.270Z,-0.0002,-0.9966,0.1428,0.0225,0.0650,-0.1963,-0.0121,0.0239,-0.0033,3.1018,1.4446,3.0843
2024-10-11T13:40:16.280Z,-0.0021,-0.9943,0.1359,0.0225,0.0650,-0.1963,-0.0115,0.0229,-0.0018,3.1018,1.4446,3.0843
2024-10-11T13:40:16.290Z,0.0044,-0.9963,0.1348,0.0140,0.0396,-0.0848,-0.0150,0.0245,-0.0018,3.1019,1.4449,3.0846
2024-10-11T13:40:16.300Z,0.0051,-0.9919,0.1352,0.0140,0.0396,-0.0848,-0.0160,0.0249,-0.0030,3.1019,1.4449,3.0846
2024-10-11T13:40:16.311Z,-0.0030,-0.9951,0.1342,0.0140,0.0396,-0.0848,-0.0185,0.0268,-0.0053,3.1019,1.4449,3.0846
2024-10-11T13:40:16.320Z,-0.0014,-1.0021,0.1299,0.0820,0.1007,-0.0554,-0.0182,0.0219,-0.0058,3.1028,1.4454,3.0842
2024-10-11T13:40:16.330Z,-0.0062,-1.0101,0.1283,0.0820,0.1007,-0.0554,-0.0177,0.0202,-0.0083,3.1028,1.4454,3.0842
2024-10-11T13:40:16.339Z,-0.0019,-1.0134,0.1287,0.0820,0.1007,-0.0554,-0.0199,0.0195,-0.0117,3.1028,1.4454,3.0842
2024-10-11T13:40:16.350Z,0.0047,-1.0087,0.1358,0.0250,0.1507,-0.1311,-0.0245,0.0196,-0.0120,3.1051,1.4459,3.0823
2024-10-11T13:40:16.361Z,0.0040,-1.0061,0.1412,0.0250,0.1507,-0.1311,-0.0248,0.0175,-0.0115,3.1051,1.4459,3.0823
2024-10-11T13:40:16.370Z,0.0115,-1.0040,0.1389,0.0250,0.1507,-0.1311,-0.0258,0.0175,-0.0082,3.1051,1.4459,3.0823
2024-10-11T13:40:16.380Z,0.0127,-1.0065,0.1356,-0.0499,0.1384,-0.1307,-0.0308,0.0212,-0.0102,3.1078,1.4466,3.0799
2024-10-11T13:40:16.390Z,0.0096,-1.0046,0.1413,-0.0499,0.1384,-0.1307,-0.0335,0.0181,-0.0086,3.1078,1.4466,3.0799
2024-10-11T13:40:16.400Z,0.0089,-0.9983,0.1471,-0.0499,0.1384,-0.1307,-0.0365,0.0176,-0.0109,3.1078,1.4466,3.0799
2024-10-11T13:40:16.412Z,0.0094,-0.9962,0.1426,-0.0183,0.0397,-0.1965,-0.0406,0.0174,-0.0095,3.1102,1.4476,3.0779
2024-10-11T13:40:16.420Z,0.0156,-0.9962,0.1390,-0.0183,0.0397,-0.1965,-0.0402,0.0163,-0.0089,3.1102,1.4476,3.0779
2024-10-11T13:40:16.430Z,0.0165,-1.0009,0.1337,-0.0183,0.0397,-0.1965,-0.0387,0.0205,-0.0069,3.1102,1.4476,3.0779
2024-10-11T13:40:16.440Z,0.0184,-1.0061,0.1213,-0.1065,0.1306,0.0155,-0.0371,0.0215,-0.0047,3.1121,1.4487,3.0762
2024-10-11T13:40:16.449Z,0.0180,-1.0023,0.1189,-0.1065,0.1306,0.0155,-0.0375,0.0183,-0.0031,3.1121,1.4487,3.0762
2024-10-11T13:40:16.461Z,0.0163,-0.9982,0.1226,-0.1065,0.1306,0.0155,-0.0403,0.0215,-0.0030,3.1121,1.4487,3.0762
2024-10-11T13:40:16.470Z,0.0086,-0.9931,0.1234,0.0014,-0.0037,-0.0325,-0.0384,0.0196,-0.0065,3.1137,1.4498,3.0750
2024-10-11T13:40:16.480Z,0.0045,-0.9891,0.1224,0.0014,-0.0037,-0.0325,-0.0387,0.0196,-0.0057,3.1137,1.4498,3.0750
2024-10-11T13:40:16.490Z,0.0106,-0.9867,0.1120,0.0014,-0.0037,-0.0325,-0.0358,0.0219,-0.0057,3.1137,1.4498,3.0750
2024-10-11T13:40:16.500Z,0.0209,-0.9808,0.1025,-0.1180,-0.1219,0.1673,-0.0362,0.0207,-0.0054,3.1152,1.4508,3.0739
2024-10-11T13:40:16.510Z,0.0204,-0.9745,0.1087,-0.1180,-0.1219,0.1673,-0.0329,0.0199,0.0003,3.1152,1.4508,3.0739
2024-10-11T13:40:16.520Z,0.0183,-0.9713,0.1068,-0.1180,-0.1219,0.1673,-0.0309,0.0223,-0.0033,3.1152,1.4508,3.0739
2024-10-11T13:40:16.529Z,0.0166,-0.9728,0.1061,-0.1006,-0.1994,0.1318,-0.0289,0.0193,0.0002,3.1160,1.4518,3.0734
2024-10-11T13:40:16.540Z,0.0220,-0.9768,0.1001,-0.1006,-0.1994,0.1318,-0.0284,0.0201,0.0015,3.1160,1.4518,3.0734
2024-10-11T13:40:16.550Z,0.0157,-0.9812,0.0988,-0.1006,-0.1994,0.1318,-0.0216,0.0183,0.0021,3.1160,1.4518,3.0734
2024-10-11T13:40:16.560Z,0.0136,-0.9866,0.0967,-0.0608,-0.0629,0.2105,-0.0200,0.0155,0.0024,3.1155,1.4524,3.0742
2024-10-11T13:40:16.570Z,0.0115,-0.9829,0.0970,-0.0608,-0.0629,0.2105,-0.0148,0.0199,0.0025,3.1155,1.4524,3.0742
2024-10-11T13:40:16.580Z,0.0103,-0.9762,0.1067,-0.0608,-0.0629,0.2105,-0.0130,0.0172,0.0039,3.1155,1.4524,3.0742
2024-10-11T13:40:16.590Z,0.0152,-0.9752,0.1034,-0.0717,-0.1782,0.1459,-0.0108,0.0128,0.0021,3.1152,1.4529,3.0748
2024-10-11T13:40:16.600Z,0.0106,-0.9773,0.0975,-0.0717,-0.1782,0.1459,-0.0118,0.0147,0.0020,3.1152,1.4529,3.0748
2024-10-11T13:40:16.610Z,0.0074,-0.9809,0.0974,-0.0717,-0.1782,0.1459,-0.0055,0.0098,0.0010,3.1152,1.4529,3.0748
2024-10-11T13:40:16.620Z,0.0118,-0.9837,0.0933,-0.0311,-0.0864,0.2343,-0.0022,0.0096,0.0014,3.1151,1.4530,3.0750
2024-10-11T13:40:16.629Z,0.0095,-0.9840,0.0937,-0.0311,-0.0864,0.2343,0.0032,0.0088,0.0007,3.1151,1.4530,3.0750
2024-10-11T13:40:16.640Z,0.0087,-0.9825,0.1017,-0.0311,-0.0864,0.2343,0.0034,0.0139,-0.0047,3.1151,1.4530,3.0750
2024-10-11T13:40:16.650Z,0.0108,-0.9813,0.0996,-0.0373,-0.1210,0.1659,0.0083,0.0098,-0.0033,3.1151,1.4530,3.0750
2024-10-11T13:40:16.660Z,0.0128,-0.9819,0.0913,-0.0373,-0.1210,0.1659,0.0098,0.0074,-0.0043,3.1151,1.4530,3.0750
2024-10-11T13:40:16.670Z,0.0102,-0.9801,0.0982,-0.0373,-0.1210,0.1659,0.0099,0.0078,-0.0047,3.1151,1.4530,3.0750
2024-10-11T13:40:16.679Z,0.0109,-0.9743,0.1017,-0.0309,-0.1849,0.1496,0.0143,-0.0002,-0.0070,3.1159,1.4526,3.0741
2024-10-11T13:40:16.690Z,0.0126,-0.9719,0.1008,-0.0309,-0.1849,0.1496,0.0160,0.0004,-0.0038,3.1159,1.4526,3.0741
2024-10-11T13:40:16.700Z,0.0118,-0.9690,0.1057,-0.0309,-0.1849,0.1496,0.0172,0.0003,-0.0064,3.1159,1.4526,3.0741
2024-10-11T13:40:16.710Z,0.0139,-0.9704,0.1109,-0.0488,-0.2081,0.0628,0.0173,-0.0042,-0.0044,3.1167,1.4523,3.0730
2024-10-11T13:40:16.720Z,0.0061,-0.9783,0.1111,-0.0488,-0.2081,0.0628,0.0164,-0.0045,-0.0087,3.1167,1.4523,3.0730
2024-10-11T13:40:16.729Z,0.0015,-0.9912,0.1198,-0.0488,-0.2081,0.0628,0.0138,-0.0049,-0.0109,3.1167,1.4523,3.0730
2024-10-11T13:40:16.740Z,0.0022,-1.0017,0.1199,0.0509,0.1043,0.0015,0.0180,-0.0050,-0.0119,3.1187,1.4518,3.0706
2024-10-11T13:40:16.750Z,0.0107,-1.0066,0.1121,0.0509,0.1043,0.0015,0.0226,-0.0078,-0.0119,3.1187,1.4518,3.0706
2024-10-11T13:40:16.760Z,0.0169,-1.0009,0.1210,0.0509,0.1043,0.0015,0.0227,-0.0111,-0.0106,3.1187,1.4518,3.0706
2024-10-11T13:40:16.770Z,0.0161,-0.9949,0.1330,-0.0698,0.0140,-0.1394,0.0208,-0.0121,-0.0084,3.1207,1.4512,3.0681
2024-10-11T13:40:16.780Z,0.0181,-0.9965,0.1395,-0.0698,0.0140,-0.1394,0.0166,-0.0103,-0.0087,3.1207,1.4512,3.0681
2024-10-11T13:40:16.790Z,0.0167,-1.0019,0.1368,-0.0698,0.0140,-0.1394,0.0166,-0.0131,-0.0108,3.1207,1.4512,3.0681
2024-10-11T13:40:16.800Z,0.0038,-1.0047,0.1419,0.0510,0.1116,-0.2125,0.0110,-0.0072,-0.0116,3.1224,1.4506,3.0658
2024-10-11T13:40:16.810Z,0.0080,-1.0056,0.1385,0.0510,0.1116,-0.2125,0.0107,-0.0071,-0.0116,3.1224,1.4506,3.0658
2024-10-11T13:40:16.820Z,0.0160,-1.0081,0.1368,0.0510,0.1116,-0.2125,0.0095,-0.0062,-0.0114,3.1224,1.4506,3.0658
2024-10-11T13:40:16.829Z,0.0156,-1.0082,0.1392,-0.0600,0.1651,-0.1873,0.0083,-0.0055,-0.0124,3.1246,1.4503,3.0632
2024-10-11T13:40:16.840Z,0.0223,-1.0126,0.1411,-0.0600,0.1651,-0.1873,0.0070,-0.0054,-0.0110,3.1246,1.4503,3.0632
2024-10-11T13:40:16.849Z,0.0199,-1.0135,0.1444,-0.0600,0.1651,-0.1873,0.0051,-0.0032,-0.0089,3.1246,1.4503,3.0632
2024-10-11T13:40:16.860Z,0.0134,-1.0154,0.1415,-0.0423,0.2174,-0.1958,0.0028,-0.0069,-0.0071,3.1267,1.4501,3.0607
2024-10-11T13:40:16.870Z,0.0184,-1.0089,0.1311,-0.0423,0.2174,-0.1958,-0.0013,-0.0039,-0.0049,3.1267,1.4501,3.0607
2024-10-11T13:40:16.879Z,0.0172,-0.9921,0.1339,-0.0423,0.2174,-0.1958,-0.0016,-0.0023,-0.0059,3.1267,1.4501,3.0607
2024-10-11T13:40:16.890Z,0.0228,-0.9788,0.1439,-0.1347,-0.1392,-0.2273,-0.0073,-0.0010,-0.0058,3.1279,1.4501,3.0590
2024-10-11T13:40:16.899Z,0.0216,-0.9785,0.1418,-0.1347,-0.1392,-0.2273,-0.0078,-0.0025,-0.0030,3.1279,1.4501,3.0590
2024-10-11T13:40:16.910Z,0.0297,-0.9804,0.1227,-0.1347,-0.1392,-0.2273,-0.0049,0.0013,-0.0008,3.1279,1.4501,3.0590
2024-10-11T13:40:16.920Z,0.0153,-0.9763,0.1222,-0.0311,-0.1675,-0.0236,-0.0088,0.0052,0.0003,3.1283,1.4502,3.0585
2024-10-11T13:40:16.930Z,0.0169,-0.9724,0.1242,-0.0311,-0.1675,-0.0236,-0.0102,0.0044,0.0012,3.1283,1.4502,3.0585
2024-10-11T13:40:16.940Z,0.0182,-0.9746,0.1241,-0.0311,-0.1675,-0.0236,-0.0078,0.0098,0.0006,3.1283,1.4502,3.0585
2024-10-11T13:40:16.950Z,0.0212,-0.9787,0.1221,-0.1211,-0.1333,-0.0212,-0.0057,0.0074,-0.0005,3.1282,1.4504,3.0585
2024-10-11T13:40:16.960Z,0.0215,-0.9873,0.1140,-0.1211,-0.1333,-0.0212,-0.0045,0.0043,0.0030,3.1282,1.4504,3.0585
2024-10-11T13:40:16.970Z,0.0219,-0.9960,0.1073,-0.1211,-0.1333,-0.0212,0.0016,0.0021,0.0026,3.1282,1.4504,3.0585
2024-10-11T13:40:16.979Z,0.0177,-0.9970,0.1065,-0.0713,0.0423,0.1266,0.0001,0.0020,0.0054,3.1275,1.4504,3.0591
2024-10-11T13:40:16.990Z,0.0154,-0.9965,0.1075,-0.0713,0.0423,0.1266,-0.0016,0.0054,0.0032,3.1275,1.4504,3.0591
2024-10-11T13:40:17.000Z,0.0129,-0.9953,0.1215,-0.0713,0.0423,0.1266,-0.0021,0.0034,0.0044,3.1275,1.4504,3.0591
2024-10-11T13:40:17.010Z,0.0144,-0.9921,0.1345,-0.0417,-0.0095,-0.1423,-0.0041,0.0063,0.0045,3.1266,1.4504,3.0598
2024-10-11T13:40:17.020Z,0.0141,-0.9945,0.1299,-0.0417,-0.0095,-0.1423,-0.0049,0.0047,0.0044,3.1266,1.4504,3.0598
2024-10-11T13:40:17.030Z,0.0157,-0.9972,0.1292,-0.0417,-0.0095,-0.1423,-0.0049,0.0002,0.0043,3.1266,1.4504,3.0598
2024-10-11T13:40:17.040Z,0.0103,-0.9998,0.1190,0.0022,0.0591,-0.0001,-0.0064,-0.0035,0.0042,3.1260,1.4505,3.0603
2024-10-11T13:40:17.049Z,0.0072,-0.9958,0.1312,0.0022,0.0591,-0.0001,-0.0082,-0.0041,0.0035,3.1260,1.4505,3.0603
2024-10-11T13:40:17.060Z,0.0136,-0.9964,0.1350,0.0022,0.0591,-0.0001,-0.0090,-0.0027,0.0040,3.1260,1.4505,3.0603
2024-10-11T13:40:17.070Z,0.0114,-1.0011,0.1269,-0.0143,0.0803,-0.0623,-0.0099,0.0015,0.0031,3.1254,1.4508,3.0605
2024-10-11T13:40:17.080Z,0.0112,-1.0018,0.1267,-0.0143,0.0803,-0.0623,-0.0114,0.0052,0.0042,3.1254,1.4508,3.0605
2024-10-11T13:40:17.090Z,0.0089,-1.0019,0.1203,-0.0143,0.0803,-0.0623,-0.0139,0.0027,0.0007,3.1254,1.4508,3.0605
2024-10-11T13:40:17.100Z,-0.0005,-0.9955,0.1189,0.1022,0.0168,-0.0054,-0.0117,0.0019,0.0006,3.1248,1.4511,3.0609
2024-10-11T13:40:17.110Z,0.0051,-0.9922,0.1183,0.1022,0.0168,-0.0054,-0.0090,-0.0042,-0.0008,3.1248,1.4511,3.0609
2024-10-11T13:40:17.120Z,0.0022,-0.9915,0.1228,0.1022,0.0168,-0.0054,-0.0126,0.0007,-0.0017,3.1248,1.4511,3.0609
2024-10-11T13:40:17.130Z,0.0021,-0.9960,0.1177,0.0623,0.0316,0.0103,-0.0131,0.0003,-0.0032,3.1251,1.4514,3.0603
2024-10-11T13:40:17.140Z,0.0076,-0.9964,0.1166,0.0623,0.0316,0.0103,-0.0105,0.0030,-0.0049,3.1251,1.4514,3.0603
2024-10-11T13:40:17.150Z,0.0062,-0.9964,0.1129,0.0623,0.0316,0.0103,-0.0110,0.0024,-0.0033,3.1251,1.4514,3.0603
2024-10-11T13:40:17.160Z,0.0086,-0.9977,0.1145,0.0015,0.0474,0.0478,-0.0118,-0.0024,-0.0056,3.1260,1.4518,3.0592
2024-10-11T13:40:17.170Z,0.0152,-0.9980,0.1184,0.0015,0.0474,0.0478,-0.0112,0.0016,-0.0046,3.1260,1.4518,3.0592
2024-10-11T13:40:17.180Z,0.0149,-1.0003,0.1201,0.0015,0.0474,0.0478,-0.0110,-0.0050,-0.0034,3.1260,1.4518,3.0592
2024-10-11T13:40:17.190Z,0.0204,-1.0077,0.1187,-0.0865,0.1520,0.0006,-0.0100,0.0001,-0.0006,3.1265,1.4521,3.0584
2024-10-11T13:40:17.200Z,0.0129,-1.0140,0.1099,-0.0865,0.1520,0.0006,-0.0127,-0.0010,-0.0009,3.1265,1.4521,3.0584
2024-10-11T13:40:17.210Z,0.0209,-1.0152,0.1203,-0.0865,0.1520,0.0006,-0.0114,0.0037,-0.0007,3.1265,1.4521,3.0584
2024-10-11T13:40:17.220Z,0.0167,-1.0124,0.1195,-0.0720,0.1923,-0.0317,-0.0144,0.0108,-0.0021,3.1267,1.4524,3.0579
2024-10-11T13:40:17.230Z,0.0203,-1.0105,0.1237,-0.0720,0.1923,-0.0317,-0.0130,0.0078,-0.0010,3.1267,1.4524,3.0579
2024-10-11T13:40:17.240Z,0.0178,-1.0087,0.1238,-0.0720,0.1923,-0.0317,-0.0106,0.0077,-0.0008,3.1267,1.4524,3.0579
2024-10-11T13:40:17.250Z,0.0203,-1.0051,0.1279,-0.1023,0.1136,-0.0972,-0.0095,0.0003,0.0008,3.1271,1.4528,3.0575
2024-10-11T13:40:17.260Z,0.0230,-0.9990,0.1254,-0.1023,0.1136,-0.0972,-0.0132,0.0004,0.0003,3.1271,1.4528,3.0575
2024-10-11T13:40:17.270Z,0.0098,-0.9933,0.1270,-0.1023,0.1136,-0.0972,-0.0131,-0.0001,0.0025,3.1271,1.4528,3.0575
2024-10-11T13:40:17.280Z,0.0169,-0.9802,0.1283,-0.0781,-0.1351,-0.1078,-0.0149,0.0042,0.0002,3.1272,1.4532,3.0573
2024-10-11T13:40:17.290Z,0.0126,-0.9755,0.1157,-0.0781,-0.1351,-0.1078,-0.0179,0.0088,-0.0007,3.1272,1.4532,3.0573
2024-10-11T13:40:17.300Z,0.0170,-0.9637,0.1236,-0.0781,-0.1351,-0.1078,-0.0156,0.0104,-0.0001,3.1272,1.4532,3.0573
2024-10-11T13:40:17.310Z,0.0221,-0.9599,0.1190,-0.1122,-0.3234,-0.0302,-0.0156,0.0087,0.0012,3.1277,1.4536,3.0568
2024-10-11T13:40:17.320Z,0.0225,-0.9660,0.1224,-0.1122,-0.3234,-0.0302,-0.0158,0.0117,0.0010,3.1277,1.4536,3.0568
2024-10-11T13:40:17.330Z,0.0260,-0.9714,0.1175,-0.1122,-0.3234,-0.0302,-0.0153,0.0120,0.0017,3.1277,1.4536,3.0568
2024-10-11T13:40:17.340Z,0.0182,-0.9752,0.1096,-0.0695,-0.1752,0.0779,-0.0148,0.0163,0.0029,3.1277,1.4540,3.0569
2024-10-11T13:40:17.350Z,0.0141,-0.9704,0.1095,-0.0695,-0.1752,0.0779,-0.0141,0.0159,-0.0025,3.1277,1.4540,3.0569
2024-10-11T13:40:17.360Z,0.0129,-0.9710,0.1073,-0.0695,-0.1752,0.0779,-0.0128,0.0166,-0.0013,3.1277,1.4540,3.0569
2024-10-11T13:40:17.370Z,0.0223,-0.9728,0.1124,-0.1239,-0.1911,0.0338,-0.0103,0.0184,0.0019,3.1276,1.4543,3.0572
2024-10-11T13:40:17.380Z,0.0246,-0.9835,0.1086,-0.1239,-0.1911,0.0338,-0.0072,0.0122,0.0009,3.1276,1.4543,3.0572
2024-10-11T13:40:17.390Z,0.0192,-0.9881,0.1117,-0.1239,-0.1911,0.0338,-0.0059,0.0119,0.0020,3.1276,1.4543,3.0572
2024-10-11T13:40:17.400Z,0.0173,-0.9897,0.1056,-0.0904,-0.0406,0.1010,-0.0030,0.0058,0.0017,3.1275,1.4544,3.0573
2024-10-11T13:40:17.410Z,0.0199,-0.9873,0.1078,-0.0904,-0.0406,0.1010,-0.0032,0.0057,0.0008,3.1275,1.4544,3.0573
2024-10-11T13:40:17.420Z,0.0132,-0.9805,0.1116,-0.0904,-0.0406,0.1010,-0.0039,0.0071,0.0015,3.1275,1.4544,3.0573
2024-10-11T13:40:17.430Z,0.0165,-0.9823,0.1177,-0.0755,-0.1076,-0.0105,-0.0019,0.0052,0.0003,3.1272,1.4545,3.0576
2024-10-11T13:40:17.440Z,0.0178,-0.9832,0.1126,-0.0755,-0.1076,-0.0105,-0.0037,0.0047,-0.0014,3.1272,1.4545,3.0576
2024-10-11T13:40:17.450Z,0.0142,-0.9852,0.1065,-0.0755,-0.1076,-0.0105,-0.0014,-0.0025,0.0017,3.1272,1.4545,3.0576
2024-10-11T13:40:17.460Z,0.0136,-0.9818,0.1111,-0.0444,-0.1188,0.0401,0.0011,-0.0011,0.0004,3.1271,1.4545,3.0575
2024-10-11T13:40:17.470Z,0.0105,-0.9835,0.1090,-0.0444,-0.1188,0.0401,0.0036,-0.0015,0.0016,3.1271,1.4545,3.0575
2024-10-11T13:40:17.481Z,0.0124,-0.9841,0.1162,-0.0444,-0.1188,0.0401,0.0079,-0.0015,0.0019,3.1271,1.4545,3.0575
2024-10-11T13:40:17.490Z,0.0113,-0.9876,0.1096,-0.0070,-0.0458,0.0548,0.0088,0.0018,0.0003,3.1268,1.4544,3.0575
2024-10-11T13:40:17.500Z,0.0048,-0.9914,0.1132,-0.0070,-0.0458,0.0548,0.0076,-0.0004,0.0010,3.1268,1.4544,3.0575
2024-10-11T13:40:17.510Z,0.0066,-0.9960,0.1115,-0.0070,-0.0458,0.0548,0.0101,-0.0032,-0.0004,3.1268,1.4544,3.0575
2024-10-11T13:40:17.520Z,-0.0052,-0.9863,0.1160,0.1520,-0.0815,-0.0009,0.0087,0.0003,-0.0028,3.1269,1.4541,3.0572
2024-10-11T13:40:17.530Z,0.0054,-0.9816,0.1190,0.1520,-0.0815,-0.0009,0.0073,-0.0017,-0.0052,3.1269,1.4541,3.0572
2024-10-11T13:40:17.540Z,0.0079,-0.9828,0.1277,0.1520,-0.0815,-0.0009,0.0039,0.0021,-0.0020,3.1269,1.4541,3.0572
2024-10-11T13:40:17.550Z,0.0098,-0.9877,0.1369,-0.0121,-0.0458,-0.2073,0.0031,0.0063,-0.0036,3.1275,1.4539,3.0564
2024-10-11T13:40:17.560Z,0.0181,-0.9967,0.1274,-0.0121,-0.0458,-0.2073,0.0004,0.0059,-0.0024,3.1275,1.4539,3.0564
2024-10-11T13:40:17.570Z,0.0146,-1.0047,0.1287,-0.0121,-0.0458,-0.2073,-0.0037,0.0100,-0.0038,3.1275,1.4539,3.0564
2024-10-11T13:40:17.580Z,0.0111,-1.0072,0.1320,-0.0092,0.1406,-0.1686,-0.0040,0.0100,-0.0027,3.1277,1.4539,3.0561
2024-10-11T13:40:17.590Z,0.0079,-1.0116,0.1335,-0.0092,0.1406,-0.1686,-0.0016,0.0060,-0.0014,3.1277,1.4539,3.0561
2024-10-11T13:40:17.600Z,0.0081,-1.0166,0.1342,-0.0092,0.1406,-0.1686,-0.0063,0.0021,-0.0038,3.1277,1.4539,3.0561
2024-10-11T13:40:17.610Z,0.0063,-1.0168,0.1372,0.0392,0.2324,-0.2161,-0.0090,0.0046,-0.0022,3.1278,1.4540,3.0560
2024-10-11T13:40:17.620Z,0.0066,-1.0171,0.1438,0.0392,0.2324,-0.2161,-0.0126,0.0074,-0.0017,3.1278,1.4540,3.0560
2024-10-11T13:40:17.630Z,0.0104,-1.0201,0.1510,0.0392,0.2324,-0.2161,-0.0170,0.0080,0.0003,3.1278,1.4540,3.0560
2024-10-11T13:40:17.640Z,0.0081,-1.0190,0.1541,0.0171,0.2477,-0.3853,-0.0213,0.0130,-0.0004,3.1280,1.4544,3.0558
2024-10-11T13:40:17.649Z,0.0038,-1.0173,0.1495,0.0171,0.2477,-0.3853,-0.0241,0.0150,-0.0001,3.1280,1.4544,3.0558
2024-10-11T13:40:17.660Z,0.0086,-1.0153,0.1470,0.0171,0.2477,-0.3853,-0.0285,0.0157,-0.0013,3.1280,1.4544,3.0558
2024-10-11T13:40:17.670Z,0.0113,-1.0134,0.1438,-0.0157,0.1924,-0.2813,-0.0291,0.0175,0.0009,3.1281,1.4551,3.0558
2024-10-11T13:40:17.681Z,0.0123,-1.0083,0.1472,-0.0157,0.1924,-0.2813,-0.0295,0.0169,0.0037,3.1281,1.4551,3.0558
2024-10-11T13:40:17.690Z,0.0090,-1.0017,0.1428,-0.0157,0.1924,-0.2813,-0.0332,0.0195,0.0028,3.1281,1.4551,3.0558
2024-10-11T13:40:17.701Z,0.0094,-0.9985,0.1394,0.0033,0.0469,-0.2223,-0.0355,0.0194,0.0021,3.1276,1.4560,3.0566
2024-10-11T13:40:17.710Z,0.0092,-0.9931,0.1342,0.0033,0.0469,-0.2223,-0.0351,0.0234,0.0021,3.1276,1.4560,3.0566
2024-10-11T13:40:17.720Z,0.0087,-0.9905,0.1216,0.0033,0.0469,-0.2223,-0.0349,0.0256,0.0041,3.1276,1.4560,3.0566
2024-10-11T13:40:17.730Z,0.0139,-0.9896,0.1181,-0.0330,-0.0418,-0.0546,-0.0336,0.0299,0.0060,3.1269,1.4570,3.0579
2024-10-11T13:40:17.741Z,0.0075,-0.9853,0.1174,-0.0330,-0.0418,-0.0546,-0.0321,0.0270,0.0053,3.1269,1.4570,3.0579
2024-10-11T13:40:17.750Z,0.0067,-0.9816,0.1173,-0.0330,-0.0418,-0.0546,-0.0321,0.0270,0.0053,3.1269,1.4570,3.0579
2024-10-11T13:40:17.761Z,0.0030,-0.9816,0.1071,0.0622,-0.1178,0.0545,-0.0305,0.0345,0.0041,3.1258,1.4579,3.0596
2024-10-11T13:40:17.770Z,0.0026,-0.9836,0.1047,0.0622,-0.1178,0.0545,-0.0305,0.0345,0.0041,3.1258,1.4579,3.0596
2024-10-11T13:40:17.780Z,0.0047,-0.9849,0.1015,0.0622,-0.1178,0.0545,-0.0267,0.0335,0.0046,3.1258,1.4579,3.0596
2024-10-11T13:40:17.791Z,0.0029,-0.9902,0.1083,0.0590,-0.0385,0.0327,-0.0218,0.0328,0.0055,3.1249,1.4587,3.0613
2024-10-11T13:40:17.800Z,0.0031,-0.9899,0.1097,0.0590,-0.0385,0.0327,-0.0218,0.0328,0.0055,3.1249,1.4587,3.0613
2024-10-11T13:40:17.811Z,0.0025,-0.9921,0.1030,0.0590,-0.0385,0.0327,-0.0159,0.0304,0.0076,3.1249,1.4587,3.0613
2024-10-11T13:40:17.820Z,0.0119,-0.9925,0.0993,-0.0321,-0.0112,0.1111,-0.0159,0.0304,0.0076,3.1237,1.4592,3.0633
2024-10-11T13:40:17.831Z,0.0105,-0.9914,0.0936,-0.0321,-0.0112,0.1111,-0.0115,0.0356,0.0063,3.1237,1.4592,3.0633
2024-10-11T13:40:17.841Z,0.0070,-0.9875,0.1034,-0.0321,-0.0112,0.1111,-0.0070,0.0318,0.0053,3.1237,1.4592,3.0633
2024-10-11T13:40:17.850Z,0.0046,-0.9875,0.1124,0.0378,-0.0564,-0.0276,-0.0070,0.0318,0.0053,3.1215,1.4596,3.0662
2024-10-11T13:40:17.861Z,0.0028,-0.9865,0.1174,0.0378,-0.0564,-0.0276,-0.0072,0.0233,0.0089,3.1215,1.4596,3.0662
2024-10-11T13:40:17.871Z,0.0005,-0.9810,0.1170,0.0378,-0.0564,-0.0276,-0.0090,0.0194,0.0074,3.1215,1.4596,3.0662
2024-10-11T13:40:17.880Z,-0.0025,-0.9769,0.1151,0.1062,-0.1632,-0.0372,-0.0090,0.0194,0.0074,3.1190,1.4598,3.0692
2024-10-11T13:40:17.890Z,-0.0016,-0.9787,0.1095,0.1062,-0.1632,-0.0372,-0.0068,0.0155,0.0049,3.1190,1.4598,3.0692
2024-10-11T13:40:17.900Z,-0.0001,-0.9828,0.1096,0.1062,-0.1632,-0.0372,-0.0068,0.0155,0.0049,3.1190,1.4598,3.0692
2024-10-11T13:40:17.911Z,-0.0023,-0.9883,0.1070,0.1049,-0.0472,0.0360,-0.0015,0.0097,0.0035,3.1172,1.4600,3.0713
2024-10-11T13:40:17.921Z,-0.0055,-0.9874,0.1060,0.1049,-0.0472,0.0360,-0.0010,0.0093,0.0030,3.1172,1.4600,3.0713
2024-10-11T13:40:17.930Z,-0.0046,-0.9819,0.1093,0.1049,-0.0472,0.0360,-0.0010,0.0093,0.0030,3.1172,1.4600,3.0713
2024-10-11T13:40:17.940Z,-0.0006,-0.9750,0.1072,0.0685,-0.1929,0.0260,-0.0033,0.0076,0.0016,3.1157,1.4601,3.0728
2024-10-11T13:40:17.951Z,0.0035,-0.9698,0.1104,0.0685,-0.1929,0.0260,-0.0027,0.0071,0.0002,3.1157,1.4601,3.0728
2024-10-11T13:40:17.961Z,0.0024,-0.9703,0.1060,0.0685,-0.1929,0.0260,0.0012,0.0038,0.0002,3.1157,1.4601,3.0728
2024-10-11T13:40:17.971Z,0.0043,-0.9789,0.1019,0.0157,-0.1303,0.0851,0.0003,0.0093,0.0006,3.1146,1.4601,3.0739
2024-10-11T13:40:17.980Z,0.0100,-0.9900,0.1010,0.0157,-0.1303,0.0851,0.0003,0.0093,0.0006,3.1146,1.4601,3.0739
2024-10-11T13:40:17.990Z,0.0073,-0.9930,0.1045,0.0157,-0.1303,0.0851,0.0049,-0.0046,0.0011,3.1146,1.4601,3.0739
2024-10-11T13:40:18.001Z,0.0074,-0.9959,0.1143,-0.0012,0.0164,-0.0425,0.0025,-0.0060,0.0013,3.1136,1.4600,3.0747
2024-10-11T13:40:18.011Z,0.0059,-0.9991,0.1213,-0.0012,0.0164,-0.0425,0.0043,-0.0125,0.0056,3.1136,1.4600,3.0747
2024-10-11T13:40:18.021Z,0.0098,-1.0033,0.1176,-0.0012,0.0164,-0.0425,0.0025,-0.0152,0.0029,3.1136,1.4600,3.0747
2024-10-11T13:40:18.031Z,0.0122,-1.0052,0.1140,-0.0439,0.1108,-0.0222,0.0025,-0.0152,0.0029,3.1123,1.4599,3.0755
2024-10-11T13:40:18.040Z,0.0095,-0.9992,0.1168,-0.0439,0.1108,-0.0222,-0.0007,-0.0255,0.0032,3.1123,1.4599,3.0755
2024-10-11T13:40:18.050Z,0.0058,-0.9916,0.1272,-0.0439,0.1108,-0.0222,-0.0037,-0.0319,0.0030,3.1123,1.4599,3.0755
2024-10-11T13:40:18.060Z,0.0083,-0.9916,0.1278,-0.0077,-0.0223,-0.1750,-0.0054,-0.0377,0.0058,3.1111,1.4600,3.0757
2024-10-11T13:40:18.070Z,0.0073,-0.9948,0.1243,-0.0077,-0.0223,-0.1750,-0.0033,-0.0419,0.0040,3.1111,1.4600,3.0757
2024-10-11T13:40:18.082Z,0.0134,-1.0037,0.1183,-0.0758,0.1678,0.0271,-0.0033,-0.0419,0.0040,3.1092,1.4601,3.0761
2024-10-11T13:40:18.090Z,0.0147,-1.0098,0.1084,-0.0758,0.1678,0.0271,-0.0009,-0.0459,0.0097,3.1092,1.4601,3.0761
2024-10-11T13:40:18.100Z,0.0146,-1.0126,0.1016,-0.0758,0.1678,0.0271,-0.0026,-0.0446,0.0090,3.1092,1.4601,3.0761
2024-10-11T13:40:18.111Z,0.0122,-1.0057,0.1037,0.0287,0.0673,0.0022,-0.0026,-0.0420,0.0110,3.1065,1.4602,3.0773
2024-10-11T13:40:18.121Z,0.0052,-1.0010,0.1101,0.0287,0.0673,0.0022,0.0002,-0.0373,0.0084,3.1065,1.4602,3.0773
2024-10-11T13:40:18.132Z,0.0040,-0.9985,0.1023,0.0287,0.0673,0.0022,-0.0030,-0.0337,0.0060,3.1065,1.4602,3.0773
2024-10-11T13:40:18.140Z,0.0029,-0.9981,0.1014,0.0287,0.0673,0.0022,-0.0016,-0.0238,0.0077,3.1065,1.4602,3.0773
2024-10-11T13:40:18.151Z,0.0002,-0.9960,0.1047,0.0616,0.0247,0.0452,-0.0034,-0.0183,0.0046,3.1042,1.4602,3.0784
2024-10-11T13:40:18.160Z,0.0074,-0.9958,0.1018,0.0616,0.0247,0.0452,-0.0019,-0.0115,0.0028,3.1042,1.4602,3.0784
2024-10-11T13:40:18.170Z,0.0036,-0.9962,0.1032,0.0616,0.0247,0.0452,-0.0009,-0.0040,0.0035,3.1042,1.4602,3.0784
2024-10-11T13:40:18.182Z,0.0050,-0.9979,0.1050,0.0122,0.0473,0.0548,-0.0020,0.0037,0.0013,3.1028,1.4603,3.0791
2024-10-11T13:40:18.191Z,-0.0076,-1.0098,0.0990,0.0122,0.0473,0.0548,0.0027,0.0086,-0.0027,3.1028,1.4603,3.0791
2024-10-11T13:40:18.199Z,-0.0076,-1.0098,0.0990,0.0122,0.0473,0.0548,0.0027,0.0086,-0.0027,3.1028,1.4603,3.0791
2024-10-11T13:40:18.210Z,-0.0088,-1.0064,0.1024,0.1360,0.1322,0.0659,0.0050,0.0229,-0.0072,3.1027,1.4602,3.0792
2024-10-11T13:40:18.220Z,-0.0088,-1.0064,0.1024,0.1360,0.1322,0.0659,0.0073,0.0322,-0.0085,3.1027,1.4602,3.0792
2024-10-11T13:40:18.233Z,-0.0021,-1.0042,0.1070,0.0276,0.0855,0.0304,0.0077,0.0428,-0.0091,3.1045,1.4601,3.0782
2024-10-11T13:40:18.240Z,0.0047,-1.0029,0.1079,0.0276,0.0855,0.0304,0.0059,0.0503,-0.0094,3.1045,1.4601,3.0782
2024-10-11T13:40:18.250Z,0.0083,-1.0009,0.1042,0.0276,0.0855,0.0304,0.0091,0.0618,-0.0112,3.1045,1.4601,3.0782
2024-10-11T13:40:18.261Z,0.0045,-1.0027,0.0982,0.1034,0.0500,0.0317,0.0082,0.0639,-0.0146,3.1070,1.4598,3.0771
2024-10-11T13:40:18.270Z,-0.0007,-0.9989,0.1143,0.1034,0.0500,0.0317,0.0070,0.0694,-0.0154,3.1070,1.4598,3.0771
2024-10-11T13:40:18.281Z,-0.0007,-0.9989,0.1143,0.1034,0.0500,0.0317,0.0071,0.0719,-0.0163,3.1070,1.4598,3.0771
2024-10-11T13:40:18.291Z,-0.0036,-0.9977,0.1119,0.0931,-0.0020,-0.0677,0.0041,0.0780,-0.0170,3.1103,1.4596,3.0757
2024-10-11T13:40:18.300Z,-0.0032,-0.9944,0.1169,0.0931,-0.0020,-0.0677,0.0042,0.0811,-0.0189,3.1103,1.4596,3.0757
2024-10-11T13:40:18.310Z,0.0052,-0.9936,0.1160,0.0931,-0.0020,-0.0677,0.0025,0.0848,-0.0198,3.1103,1.4596,3.0757
2024-10-11T13:40:18.320Z,0.0052,-0.9936,0.1160,0.0931,-0.0020,-0.0677,0.0016,0.0890,-0.0207,3.1103,1.4596,3.0757
2024-10-11T13:40:18.332Z,0.0041,-0.9923,0.1136,0.0288,-0.0167,-0.0294,0.0021,0.0914,-0.0174,3.1149,1.4595,3.0734
2024-10-11T13:40:18.340Z,0.0066,-0.9898,0.1143,0.0288,-0.0167,-0.0294,-0.0019,0.0950,-0.0186,3.1149,1.4595,3.0734
2024-10-11T13:40:18.350Z,0.0117,-0.9878,0.1193,0.0288,-0.0167,-0.0294,0.0001,0.0978,-0.0182,3.1149,1.4595,3.0734
2024-10-11T13:40:18.360Z,0.0015,-0.9873,0.1214,0.0648,-0.0524,-0.1042,-0.0053,0.1001,-0.0178,3.1182,1.4593,3.0727
2024-10-11T13:40:18.370Z,0.0011,-0.9872,0.1202,0.0648,-0.0524,-0.1042,-0.0058,0.1041,-0.0186,3.1182,1.4593,3.0727
2024-10-11T13:40:18.382Z,0.0011,-0.9872,0.1202,0.0673,-0.0560,-0.1630,-0.0083,0.1008,-0.0206,3.1216,1.4593,3.0720
2024-10-11T13:40:18.390Z,0.0019,-0.9889,0.1300,0.0673,-0.0560,-0.1630,-0.0109,0.1001,-0.0204,3.1216,1.4593,3.0720
2024-10-11T13:40:18.401Z,0.0074,-0.9929,0.1354,0.0673,-0.0560,-0.1630,-0.0124,0.1014,-0.0202,3.1216,1.4593,3.0720
2024-10-11T13:40:18.411Z,0.0074,-0.9929,0.1354,0.0371,0.0248,-0.2927,-0.0125,0.0949,-0.0199,3.1256,1.4595,3.0708
2024-10-11T13:40:18.420Z,0.0090,-1.0005,0.1429,0.0371,0.0248,-0.2927,-0.0129,0.0922,-0.0178,3.1256,1.4595,3.0708
2024-10-11T13:40:18.431Z,0.0077,-1.0045,0.1346,0.0371,0.0248,-0.2927,-0.0129,0.0922,-0.0178,3.1256,1.4595,3.0708
2024-10-11T13:40:18.440Z,0.0077,-1.0045,0.1346,0.0395,0.1600,-0.1947,-0.0140,0.0869,-0.0224,3.1302,1.4597,3.0688
2024-10-11T13:40:18.450Z,0.0042,-1.0079,0.1274,0.0395,0.1600,-0.1947,-0.0137,0.0893,-0.0222,3.1302,1.4597,3.0688
2024-10-11T13:40:18.461Z,0.0148,-1.0093,0.1296,0.0395,0.1600,-0.1947,-0.0110,0.0820,-0.0228,3.1302,1.4597,3.0688
2024-10-11T13:40:18.471Z,0.0148,-1.0093,0.1296,-0.1516,0.1556,-0.2265,-0.0117,0.0795,-0.0201,3.1350,1.4599,3.0662
2024-10-11T13:40:18.482Z,0.0245,-1.0089,0.1348,-0.1516,0.1556,-0.2265,-0.0097,0.0710,-0.0184,3.1350,1.4599,3.0662
2024-10-11T13:40:18.490Z,0.0218,-1.0149,0.1311,-0.1516,0.1556,-0.2265,-0.0069,0.0715,-0.0185,3.1350,1.4599,3.0662
2024-10-11T13:40:18.500Z,0.0218,-1.0149,0.1311,-0.1516,0.1556,-0.2265,-0.0093,0.0644,-0.0174,3.1350,1.4599,3.0662
2024-10-11T13:40:18.510Z,0.0198,-1.0039,0.1197,-0.1037,0.1937,-0.1101,-0.0085,0.0607,-0.0196,3.1389,1.4600,3.0641
2024-10-11T13:40:18.520Z,0.0200,-0.9944,0.1193,-0.1037,0.1937,-0.1101,-0.0074,0.0550,-0.0192,3.1389,1.4600,3.0641
2024-10-11T13:40:18.533Z,0.0200,-0.9944,0.1193,-0.1403,-0.0825,-0.0974,-0.0073,0.0498,-0.0214,-3.1407,1.4600,3.0619
2024-10-11T13:40:18.540Z,0.0236,-0.9857,0.1200,-0.1403,-0.0825,-0.0974,-0.0079,0.0466,-0.0175,-3.1407,1.4600,3.0619
2024-10-11T13:40:18.551Z,0.0257,-0.9765,0.1154,-0.1403,-0.0825,-0.0974,-0.0065,0.0393,-0.0138,-3.1407,1.4600,3.0619
2024-10-11T13:40:18.560Z,0.0257,-0.9765,0.1154,-0.1802,-0.2124,0.0012,-0.0058,0.0341,-0.0151,-3.1375,1.4601,3.0598
2024-10-11T13:40:18.570Z,0.0257,-0.9691,0.1085,-0.1802,-0.2124,0.0012,-0.0050,0.0320,-0.0149,-3.1375,1.4601,3.0598
2024-10-11T13:40:18.582Z,0.0325,-0.9680,0.1113,-0.1802,-0.2124,0.0012,-0.0039,0.0248,-0.0111,-3.1375,1.4601,3.0598
2024-10-11T13:40:18.590Z,0.0325,-0.9680,0.1113,-0.2196,-0.2056,0.0372,-0.0029,0.0230,-0.0083,-3.1353,1.4601,3.0581
2024-10-11T13:40:18.600Z,0.0294,-0.9808,0.0990,-0.2196,-0.2056,0.0372,-0.0009,0.0190,-0.0083,-3.1353,1.4601,3.0581
2024-10-11T13:40:18.610Z,0.0266,-0.9852,0.0978,-0.2196,-0.2056,0.0372,0.0044,0.0127,-0.0066,-3.1353,1.4601,3.0581
2024-10-11T13:40:18.621Z,0.0266,-0.9852,0.0978,-0.1243,-0.0549,0.1050,0.0038,0.0071,-0.0098,-3.1332,1.4600,3.0561
2024-10-11T13:40:18.631Z,0.0225,-0.9830,0.1038,-0.1243,-0.0549,0.1050,0.0047,0.0046,-0.0082,-3.1332,1.4600,3.0561
2024-10-11T13:40:18.639Z,0.0225,-0.9830,0.1038,-0.1243,-0.0549,0.1050,0.0034,-0.0022,-0.0055,-3.1332,1.4600,3.0561
2024-10-11T13:40:18.651Z,0.0218,-0.9808,0.1101,-0.1407,-0.1014,-0.0500,0.0047,-0.0035,-0.0042,-3.1318,1.4598,3.0545
2024-10-11T13:40:18.660Z,0.0239,-0.9858,0.1077,-0.1407,-0.1014,-0.0500,0.0011,-0.0066,-0.0017,-3.1318,1.4598,3.0545
2024-10-11T13:40:18.670Z,0.0278,-0.9910,0.1053,-0.1407,-0.1014,-0.0500,0.0037,-0.0078,-0.0031,-3.1318,1.4598,3.0545
2024-10-11T13:40:18.680Z,0.0278,-0.9910,0.1053,-0.1709,-0.0624,0.0851,0.0027,-0.0104,-0.0001,-3.1313,1.4597,3.0535
2024-10-11T13:40:18.690Z,0.0235,-0.9869,0.1072,-0.1709,-0.0624,0.0851,0.0034,-0.0119,-0.0015,-3.1313,1.4597,3.0535
2024-10-11T13:40:18.700Z,0.0246,-0.9863,0.1029,-0.1709,-0.0624,0.0851,0.0033,-0.0130,-0.0020,-3.1313,1.4597,3.0535
2024-10-11T13:40:18.710Z,0.0246,-0.9863,0.1029,-0.2103,-0.0892,0.0905,0.0060,-0.0147,0.0006,-3.1314,1.4595,3.0530
2024-10-11T13:40:18.720Z,0.0271,-0.9845,0.1009,-0.2103,-0.0892,0.0905,0.0065,-0.0144,0.0003,-3.1314,1.4595,3.0530
2024-10-11T13:40:18.730Z,0.0200,-0.9884,0.0971,-0.2103,-0.0892,0.0905,0.0060,-0.0146,0.0003,-3.1314,1.4595,3.0530
2024-10-11T13:40:18.740Z,0.0200,-0.9884,0.0971,-0.0943,-0.0508,0.1277,0.0073,-0.0162,0.0032,-3.1317,1.4593,3.0526
2024-10-11T13:40:18.750Z,0.0203,-0.9878,0.0978,-0.0943,-0.0508,0.1277,0.0041,-0.0150,0.0010,-3.1317,1.4593,3.0526
2024-10-11T13:40:18.759Z,0.0237,-0.9902,0.0948,-0.0943,-0.0508,0.1277,0.0020,-0.0096,0.0024,-3.1317,1.4593,3.0526
2024-10-11T13:40:18.770Z,0.0237,-0.9902,0.0948,-0.1595,-0.0272,0.0570,-0.0007,-0.0087,0.0022,-3.1323,1.4592,3.0526
2024-10-11T13:40:18.781Z,0.0210,-0.9946,0.1110,-0.1595,-0.0272,0.0570,-0.0018,-0.0076,0.0030,-3.1323,1.4592,3.0526
2024-10-11T13:40:18.790Z,0.0174,-0.9955,0.1131,-0.1595,-0.0272,0.0570,-0.0059,-0.0033,0.0010,-3.1323,1.4592,3.0526
2024-10-11T13:40:18.801Z,0.0174,-0.9955,0.1131,0.0033,0.0544,-0.0043,-0.0066,-0.0006,0.0036,-3.1330,1.4594,3.0529
2024-10-11T13:40:18.810Z,0.0044,-1.0004,0.1075,0.0033,0.0544,-0.0043,-0.0056,0.0011,-0.0003,-3.1330,1.4594,3.0529
2024-10-11T13:40:18.820Z,0.0095,-1.0046,0.1065,0.0033,0.0544,-0.0043,-0.0062,0.0016,-0.0010,-3.1330,1.4594,3.0529
2024-10-11T13:40:18.831Z,0.0087,-1.0036,0.1173,0.0101,0.0894,-0.0880,-0.0097,0.0042,-0.0016,-3.1328,1.4596,3.0526
2024-10-11T13:40:18.839Z,0.0101,-1.0022,0.1243,0.0101,0.0894,-0.0880,-0.0095,0.0082,-0.0009,-3.1328,1.4596,3.0526
2024-10-11T13:40:18.849Z,0.0101,-1.0022,0.1243,0.0101,0.0894,-0.0880,-0.0130,0.0116,-0.0009,-3.1328,1.4596,3.0526
2024-10-11T13:40:18.861Z,0.0116,-0.9986,0.1217,-0.0218,0.0423,-0.1192,-0.0125,0.0168,-0.0015,-3.1322,1.4600,3.0520
2024-10-11T13:40:18.870Z,0.0127,-1.0011,0.1150,-0.0218,0.0423,-0.1192,-0.0123,0.0227,-0.0016,-3.1322,1.4600,3.0520
2024-10-11T13:40:18.880Z,0.0128,-1.0012,0.1092,-0.0218,0.0423,-0.1192,-0.0127,0.0205,-0.0037,-3.1322,1.4600,3.0520
2024-10-11T13:40:18.890Z,0.0095,-1.0015,0.1155,0.0028,0.0784,-0.0578,-0.0115,0.0225,-0.0024,-3.1317,1.4603,3.0518
2024-10-11T13:40:18.899Z,0.0095,-1.0015,0.1155,0.0028,0.0784,-0.0578,-0.0116,0.0196,-0.0002,-3.1317,1.4603,3.0518
2024-10-11T13:40:18.910Z,0.0176,-1.0066,0.1074,0.0028,0.0784,-0.0578,-0.0107,0.0229,-0.0014,-3.1317,1.4603,3.0518
2024-10-11T13:40:18.920Z,0.0215,-1.0092,0.1093,-0.1266,0.1496,0.0102,-0.0104,0.0284,0.0022,-3.1317,1.4606,3.0522
2024-10-11T13:40:18.930Z,0.0222,-1.0061,0.1054,-0.1266,0.1496,0.0102,-0.0145,0.0276,0.0020,-3.1317,1.4606,3.0522
2024-10-11T13:40:18.940Z,0.0160,-1.0048,0.1071,-0.1266,0.1496,0.0102,-0.0121,0.0302,0.0007,-3.1317,1.4606,3.0522
2024-10-11T13:40:18.950Z,0.0160,-1.0048,0.1071,-0.0670,0.0552,0.0498,-0.0121,0.0302,0.0007,-3.1322,1.4610,3.0533
2024-10-11T13:40:18.960Z,0.0147,-0.9949,0.1091,-0.0670,0.0552,0.0498,-0.0168,0.0276,0.0024,-3.1322,1.4610,3.0533
2024-10-11T13:40:18.970Z,0.0163,-0.9946,0.1045,-0.0670,0.0552,0.0498,-0.0179,0.0307,-0.0000,-3.1322,1.4610,3.0533
2024-10-11T13:40:18.980Z,0.0163,-0.9946,0.1045,-0.0915,-0.0305,0.0654,-0.0190,0.0345,0.0027,-3.1327,1.4615,3.0545
2024-10-11T13:40:18.990Z,0.0240,-0.9885,0.1068,-0.0915,-0.0305,0.0654,-0.0205,0.0378,0.0028,-3.1327,1.4615,3.0545
2024-10-11T13:40:18.999Z,0.0240,-0.9885,0.1068,-0.0915,-0.0305,0.0654,-0.0213,0.0395,0.0036,-3.1327,1.4615,3.0545
2024-10-11T13:40:19.010Z,0.0177,-0.9893,0.1127,-0.0804,-0.0499,-0.0521,-0.0209,0.0371,0.0037,-3.1335,1.4621,3.0562
2024-10-11T13:40:19.020Z,0.0144,-0.9917,0.1114,-0.0804,-0.0499,-0.0521,-0.0227,0.0368,0.0057,-3.1335,1.4621,3.0562
2024-10-11T13:40:19.031Z,0.0154,-0.9886,0.1163,-0.0804,-0.0499,-0.0521,-0.0239,0.0379,0.0040,-3.1335,1.4621,3.0562
2024-10-11T13:40:19.040Z,0.0154,-0.9886,0.1163,-0.0400,-0.0756,-0.0770,-0.0256,0.0381,0.0058,-3.1348,1.4628,3.0583
2024-10-11T13:40:19.051Z,0.0142,-0.9825,0.1233,-0.0400,-0.0756,-0.0770,-0.0258,0.0338,0.0038,-3.1348,1.4628,3.0583
2024-10-11T13:40:19.060Z,0.0142,-0.9770,0.1222,-0.0400,-0.0756,-0.0770,-0.0276,0.0396,0.0071,-3.1348,1.4628,3.0583
2024-10-11T13:40:19.071Z,0.0179,-0.9792,0.1172,-0.0991,-0.1523,-0.0996,-0.0269,0.0388,0.0086,-3.1363,1.4635,3.0607
2024-10-11T13:40:19.080Z,0.0257,-0.9821,0.1113,-0.0991,-0.1523,-0.0996,-0.0243,0.0379,0.0091,-3.1363,1.4635,3.0607
2024-10-11T13:40:19.090Z,0.0209,-0.9855,0.1010,-0.0991,-0.1523,-0.0996,-0.0221,0.0365,0.0112,-3.1363,1.4635,3.0607
2024-10-11T13:40:19.102Z,0.0209,-0.9855,0.1010,-0.2032,-0.0788,0.1072,-0.0226,0.0315,0.0126,-3.1390,1.4642,3.0642
2024-10-11T13:40:19.110Z,0.0294,-0.9893,0.0906,-0.2032,-0.0788,0.1072,-0.0197,0.0340,0.0132,-3.1390,1.4642,3.0642
2024-10-11T13:40:19.119Z,0.0231,-0.9931,0.0956,-0.2032,-0.0788,0.1072,-0.0166,0.0319,0.0194,-3.1390,1.4642,3.0642
2024-10-11T13:40:19.131Z,0.0198,-0.9939,0.0908,-0.1096,-0.0099,0.1295,-0.0173,0.0301,0.0140,3.1398,1.4647,3.0691
2024-10-11T13:40:19.140Z,0.0135,-0.9938,0.0986,-0.1096,-0.0099,0.1295,-0.0153,0.0300,0.0150,3.1398,1.4647,3.0691
2024-10-11T13:40:19.150Z,0.0169,-0.9901,0.1034,-0.1096,-0.0099,0.1295,-0.0150,0.0188,0.0158,3.1398,1.4647,3.0691
2024-10-11T13:40:19.160Z,0.0130,-0.9868,0.1070,-0.0549,-0.0688,-0.0114,-0.0155,0.0145,0.0135,3.1359,1.4652,3.0735
2024-10-11T13:40:19.170Z,0.0158,-0.9885,0.1004,-0.0549,-0.0688,-0.0114,-0.0141,0.0091,0.0133,3.1359,1.4652,3.0735
2024-10-11T13:40:19.180Z,0.0170,-0.9915,0.0966,-0.0549,-0.0688,-0.0114,-0.0114,0.0093,0.0128,3.1359,1.4652,3.0735
2024-10-11T13:40:19.191Z,0.0080,-0.9966,0.0948,-0.0105,0.0354,0.0925,-0.0076,0.0042,0.0107,3.1326,1.4656,3.0768
2024-10-11T13:40:19.201Z,0.0059,-0.9991,0.0989,-0.0105,0.0354,0.0925,-0.0080,-0.0011,0.0108,3.1326,1.4656,3.0768
2024-10-11T13:40:19.210Z,0.0037,-0.9960,0.1090,-0.0105,0.0354,0.0925,-0.0086,-0.0075,0.0096,3.1326,1.4656,3.0768
2024-10-11T13:40:19.220Z,0.0075,-0.9934,0.1139,-0.0207,-0.0179,-0.1081,-0.0087,-0.0190,0.0088,3.1302,1.4659,3.0787
2024-10-11T13:40:19.230Z,0.0092,-0.9908,0.1149,-0.0207,-0.0179,-0.1081,-0.0090,-0.0235,0.0067,3.1302,1.4659,3.0787
2024-10-11T13:40:19.240Z,0.0139,-0.9959,0.1161,-0.0207,-0.0179,-0.1081,-0.0073,-0.0258,0.0065,3.1302,1.4659,3.0787
2024-10-11T13:40:19.250Z,0.0139,-0.9959,0.1161,-0.1109,0.0520,-0.1215,-0.0133,-0.0300,0.0066,3.1287,1.4662,3.0793
2024-10-11T13:40:19.260Z,0.0163,-1.0000,0.1161,-0.1109,0.0520,-0.1215,-0.0156,-0.0345,0.0077,3.1287,1.4662,3.0793
2024-10-11T13:40:19.270Z,0.0190,-1.0022,0.1165,-0.1109,0.0520,-0.1215,-0.0178,-0.0496,0.0096,3.1287,1.4662,3.0793
2024-10-11T13:40:19.280Z,0.0146,-1.0039,0.1142,-0.0594,0.1011,-0.0999,-0.0147,-0.0578,0.0074,3.1267,1.4666,3.0797
2024-10-11T13:40:19.290Z,0.0082,-1.0093,0.1008,-0.0594,0.1011,-0.0999,-0.0142,-0.0667,0.0061,3.1267,1.4666,3.0797
2024-10-11T13:40:19.300Z,0.0127,-1.0097,0.0921,-0.0594,0.1011,-0.0999,-0.0141,-0.0709,0.0062,3.1267,1.4666,3.0797
2024-10-11T13:40:19.310Z,0.0148,-1.0099,0.0944,-0.0912,0.1483,0.0896,-0.0124,-0.0777,0.0062,3.1244,1.4670,3.0797
2024-10-11T13:40:19.320Z,0.0181,-1.0091,0.0951,-0.0912,0.1483,0.0896,-0.0127,-0.0788,0.0064,3.1244,1.4670,3.0797
2024-10-11T13:40:19.330Z,0.0146,-1.0016,0.0957,-0.0912,0.1483,0.0896,-0.0141,-0.0829,0.0088,3.1244,1.4670,3.0797
2024-10-11T13:40:19.340Z,0.0110,-1.0020,0.0902,-0.0397,0.0707,0.1436,-0.0104,-0.0814,0.0068,3.1219,1.4674,3.0795
2024-10-11T13:40:19.350Z,0.0115,-0.9993,0.0888,-0.0397,0.0707,0.1436,-0.0082,-0.0840,0.0085,3.1219,1.4674,3.0795
2024-10-11T13:40:19.360Z,0.0108,-0.9942,0.0826,-0.0397,0.0707,0.1436,-0.0059,-0.0812,0.0082,3.1219,1.4674,3.0795
2024-10-11T13:40:19.370Z,0.0149,-0.9888,0.0832,-0.0743,-0.0618,0.1873,-0.0039,-0.0819,0.0077,3.1188,1.4675,3.0799
2024-10-11T13:40:19.380Z,0.0117,-0.9823,0.0863,-0.0743,-0.0618,0.1873,-0.0018,-0.0738,0.0057,3.1188,1.4675,3.0799
2024-10-11T13:40:19.390Z,0.0041,-0.9817,0.0911,-0.0743,-0.0618,0.1873,-0.0022,-0.0746,0.0066,3.1188,1.4675,3.0799
2024-10-11T13:40:19.400Z,0.0041,-0.9817,0.0911,-0.0307,-0.1147,0.0930,0.0025,-0.0772,0.0041,3.1161,1.4674,3.0800
2024-10-11T13:40:19.410Z,0.0127,-0.9814,0.0969,-0.0307,-0.1147,0.0930,0.0039,-0.0799,0.0056,3.1161,1.4674,3.0800
2024-10-11T13:40:19.420Z,0.0145,-0.9794,0.0977,-0.0307,-0.1147,0.0930,0.0043,-0.0810,0.0047,3.1161,1.4674,3.0800
2024-10-11T13:40:19.430Z,0.0163,-0.9760,0.1005,-0.0996,-0.1873,0.0073,0.0050,-0.0798,0.0071,3.1135,1.4673,3.0800
2024-10-11T13:40:19.440Z,0.0166,-0.9767,0.1016,-0.0996,-0.1873,0.0073,0.0034,-0.0819,0.0069,3.1135,1.4673,3.0800
2024-10-11T13:40:19.450Z,0.0171,-0.9764,0.1051,-0.0996,-0.1873,0.0073,-0.0002,-0.0733,0.0048,3.1135,1.4673,3.0800
2024-10-11T13:40:19.460Z,0.0168,-0.9699,0.1039,-0.1141,-0.2460,-0.0012,0.0021,-0.0712,0.0066,3.1109,1.4671,3.0801
2024-10-11T13:40:19.471Z,0.0214,-0.9710,0.0937,-0.1141,-0.2460,-0.0012,0.0028,-0.0706,0.0064,3.1109,1.4671,3.0801
2024-10-11T13:40:19.480Z,0.0161,-0.9729,0.0924,-0.1141,-0.2460,-0.0012,-0.0019,-0.0692,0.0034,3.1109,1.4671,3.0801
2024-10-11T13:40:19.490Z,0.0117,-0.9738,0.0868,-0.0531,-0.1955,0.1640,-0.0027,-0.0671,0.0058,3.1088,1.4671,3.0799
2024-10-11T13:40:19.499Z,0.0113,-0.9787,0.0841,-0.0531,-0.1955,0.1640,0.0004,-0.0699,0.0065,3.1088,1.4671,3.0799
2024-10-11T13:40:19.510Z,0.0247,-0.9812,0.0834,-0.0531,-0.1955,0.1640,0.0044,-0.0651,0.0065,3.1088,1.4671,3.0799
2024-10-11T13:40:19.520Z,0.0334,-0.9842,0.0822,-0.2734,-0.0907,0.2137,0.0054,-0.0693,0.0098,3.1066,1.4670,3.0798
2024-10-11T13:40:19.530Z,0.0336,-0.9895,0.0817,-0.2734,-0.0907,0.2137,0.0061,-0.0672,0.0108,3.1066,1.4670,3.0798
2024-10-11T13:40:19.540Z,0.0232,-0.9951,0.0740,-0.2734,-0.0907,0.2137,0.0097,-0.0687,0.0099,3.1066,1.4670,3.0798
2024-10-11T13:40:19.551Z,0.0183,-0.9996,0.0811,-0.1106,0.0529,0.2188,0.0086,-0.0684,0.0109,3.1029,1.4667,3.0812
2024-10-11T13:40:19.560Z,0.0215,-1.0020,0.0854,-0.1106,0.0529,0.2188,0.0075,-0.0708,0.0094,3.1029,1.4667,3.0812
2024-10-11T13:40:19.570Z,0.0170,-1.0019,0.0803,-0.1106,0.0529,0.2188,0.0092,-0.0716,0.0091,3.1029,1.4667,3.0812
2024-10-11T13:40:19.580Z,0.0072,-1.0004,0.0861,-0.0020,0.0582,0.1757,0.0111,-0.0724,0.0115,3.0994,1.4664,3.0823
2024-10-11T13:40:19.590Z,0.0092,-1.0032,0.0918,-0.0020,0.0582,0.1757,0.0111,-0.0730,0.0071,3.0994,1.4664,3.0823
2024-10-11T13:40:19.600Z,0.0125,-1.0122,0.0878,-0.0020,0.0582,0.1757,0.0107,-0.0727,0.0090,3.0994,1.4664,3.0823
2024-10-11T13:40:19.610Z,0.0119,-1.0162,0.0939,-0.0522,0.2059,0.0921,0.0091,-0.0669,0.0063,3.0965,1.4661,3.0828
2024-10-11T13:40:19.620Z,0.0098,-1.0139,0.1024,-0.0522,0.2059,0.0921,0.0097,-0.0707,0.0072,3.0965,1.4661,3.0828
2024-10-11T13:40:19.630Z,0.0036,-1.0107,0.1050,-0.0522,0.2059,0.0921,0.0049,-0.0680,0.0030,3.0965,1.4661,3.0828
2024-10-11T13:40:19.640Z,-0.0002,-1.0062,0.1104,0.0664,0.1093,-0.0556,0.0046,-0.0642,0.0008,3.0950,1.4659,3.0821
2024-10-11T13:40:19.650Z,0.0016,-1.0044,0.1112,0.0664,0.1093,-0.0556,0.0063,-0.0656,0.0004,3.0950,1.4659,3.0821
2024-10-11T13:40:19.660Z,0.0059,-1.0026,0.1125,0.0664,0.1093,-0.0556,0.0009,-0.0611,-0.0024,3.0950,1.4659,3.0821
2024-10-11T13:40:19.670Z,0.0065,-1.0050,0.1109,0.0121,0.1008,-0.0653,0.0018,-0.0620,-0.0042,3.0950,1.4658,3.0800
2024-10-11T13:40:19.680Z,0.0006,-1.0011,0.1172,0.0121,0.1008,-0.0653,-0.0011,-0.0586,-0.0017,3.0950,1.4658,3.0800
2024-10-11T13:40:19.691Z,0.0039,-1.0007,0.1181,0.0121,0.1008,-0.0653,-0.0016,-0.0563,-0.0053,3.0950,1.4658,3.0800
2024-10-11T13:40:19.700Z,0.0017,-1.0009,0.1167,0.0465,0.0602,-0.1236,-0.0003,-0.0551,-0.0081,3.0954,1.4656,3.0775
2024-10-11T13:40:19.710Z,0.0033,-0.9999,0.1109,0.0465,0.0602,-0.1236,0.0074,-0.0523,-0.0084,3.0954,1.4656,3.0775
2024-10-11T13:40:19.719Z,0.0037,-1.0042,0.1038,0.0465,0.0602,-0.1236,0.0068,-0.0561,-0.0083,3.0954,1.4656,3.0775
2024-10-11T13:40:19.730Z,0.0008,-1.0015,0.0980,0.0719,0.0631,0.0676,0.0090,-0.0558,-0.0090,3.0968,1.4654,3.0743
2024-10-11T13:40:19.740Z,-0.0053,-0.9957,0.1048,0.0719,0.0631,0.0676,0.0090,-0.0495,-0.0105,3.0968,1.4654,3.0743
2024-10-11T13:40:19.750Z,0.0001,-0.9888,0.1134,0.0719,0.0631,0.0676,0.0078,-0.0506,-0.0104,3.0968,1.4654,3.0743
2024-10-11T13:40:19.759Z,0.0045,-0.9876,0.1171,0.0293,-0.0640,-0.1227,0.0038,-0.0498,-0.0119,3.0991,1.4651,3.0702
2024-10-11T13:40:19.769Z,0.0046,-0.9892,0.1170,0.0293,-0.0640,-0.1227,0.0014,-0.0533,-0.0122,3.0991,1.4651,3.0702
2024-10-11T13:40:19.780Z,0.0014,-0.9975,0.1128,0.0293,-0.0640,-0.1227,0.0015,-0.0510,-0.0126,3.0991,1.4651,3.0702
2024-10-11T13:40:19.790Z,0.0025,-1.0046,0.1059,0.0485,0.1005,0.0050,0.0012,-0.0499,-0.0112,3.1019,1.4650,3.0657
2024-10-11T13:40:19.800Z,0.0039,-1.0066,0.1053,0.0485,0.1005,0.0050,0.0003,-0.0508,-0.0106,3.1019,1.4650,3.0657
2024-10-11T13:40:19.809Z,0.0031,-1.0038,0.1077,0.0485,0.1005,0.0050,-0.0040,-0.0525,-0.0116,3.1019,1.4650,3.0657
2024-10-11T13:40:19.820Z,0.0031,-1.0038,0.1077,-0.0148,0.0789,-0.0145,-0.0040,-0.0558,-0.0088,3.1043,1.4650,3.0616
2024-10-11T13:40:19.830Z,0.0085,-0.9992,0.1115,-0.0148,0.0789,-0.0145,-0.0064,-0.0538,-0.0066,3.1043,1.4650,3.0616
2024-10-11T13:40:19.840Z,0.0119,-0.9971,0.1040,-0.0148,0.0789,-0.0145,-0.0037,-0.0540,-0.0079,3.1043,1.4650,3.0616
2024-10-11T13:40:19.851Z,0.0203,-0.9923,0.0947,-0.1013,-0.0339,0.1069,-0.0066,-0.0502,-0.0038,3.1059,1.4651,3.0583
2024-10-11T13:40:19.860Z,0.0076,-0.9879,0.0956,-0.1013,-0.0339,0.1069,-0.0069,-0.0473,-0.0033,3.1059,1.4651,3.0583
2024-10-11T13:40:19.869Z,0.0093,-0.9873,0.0992,-0.1013,-0.0339,0.1069,-0.0080,-0.0452,-0.0033,3.1059,1.4651,3.0583
2024-10-11T13:40:19.880Z,0.0058,-0.9895,0.1007,0.0228,-0.0499,0.0393,-0.0089,-0.0419,-0.0036,3.1064,1.4652,3.0561
2024-10-11T13:40:19.890Z,0.0123,-0.9884,0.1033,0.0228,-0.0499,0.0393,-0.0061,-0.0461,-0.0031,3.1064,1.4652,3.0561
2024-10-11T13:40:19.901Z,0.0104,-0.9820,0.1021,0.0228,-0.0499,0.0393,-0.0020,-0.0487,-0.0001,3.1064,1.4652,3.0561
2024-10-11T13:40:19.910Z,0.0059,-0.9780,0.1019,0.0323,-0.1735,0.0301,-0.0038,-0.0477,0.0010,3.1060,1.4653,3.0549
2024-10-11T13:40:19.919Z,0.0052,-0.9734,0.1018,0.0323,-0.1735,0.0301,-0.0035,-0.0482,0.0023,3.1060,1.4653,3.0549
2024-10-11T13:40:19.930Z,0.0057,-0.9758,0.1020,0.0323,-0.1735,0.0301,-0.0042,-0.0470,0.0023,3.1060,1.4653,3.0549
2024-10-11T13:40:19.940Z,0.0078,-0.9770,0.1038,0.0164,-0.1594,0.0109,-0.0005,-0.0439,-0.0014,3.1053,1.4653,3.0540
2024-10-11T13:40:19.950Z,0.0048,-0.9850,0.0974,0.0164,-0.1594,0.0109,-0.0010,-0.0370,-0.0008,3.1053,1.4653,3.0540
2024-10-11T13:40:19.960Z,0.0029,-0.9864,0.0970,0.0164,-0.1594,0.0109,0.0009,-0.0376,-0.0007,3.1053,1.4653,3.0540
2024-10-11T13:40:19.970Z,0.0096,-0.9908,0.0907,0.0007,-0.0268,0.1385,0.0029,-0.0381,0.0005,3.1044,1.4652,3.0535
2024-10-11T13:40:19.980Z,0.0046,-0.9946,0.0941,0.0007,-0.0268,0.1385,0.0009,-0.0322,0.0004,3.1044,1.4652,3.0535
2024-10-11T13:40:19.990Z,0.0079,-0.9952,0.0995,0.0007,-0.0268,0.1385,0.0031,-0.0316,0.0019,3.1044,1.4652,3.0535
2024-10-11T13:40:20.000Z,0.0103,-0.9934,0.1004,-0.0059,-0.0042,0.0425,0.0029,-0.0262,0.0008,3.1032,1.4651,3.0535
2024-10-11T13:40:20.010Z,0.0091,-0.9981,0.1017,-0.0059,-0.0042,0.0425,0.0032,-0.0240,0.0045,3.1032,1.4651,3.0535
2024-10-11T13:40:20.019Z,0.0062,-1.0007,0.1030,-0.0059,-0.0042,0.0425,0.0019,-0.0249,0.0022,3.1032,1.4651,3.0535
2024-10-11T13:40:20.029Z,-0.0075,-0.9998,0.1068,0.1773,0.0529,-0.0240,-0.0003,-0.0189,0.0025,3.1023,1.4650,3.0535
2024-10-11T13:40:20.040Z,-0.0021,-0.9997,0.1038,0.1773,0.0529,-0.0240,-0.0009,-0.0196,0.0007,3.1023,1.4650,3.0535
2024-10-11T13:40:20.050Z,0.0007,-0.9980,0.1099,0.1773,0.0529,-0.0240,-0.0032,-0.0115,0.0002,3.1023,1.4650,3.0535
2024-10-11T13:40:20.060Z,-0.0080,-0.9978,0.1131,0.1637,0.0309,-0.0970,-0.0033,-0.0117,-0.0010,3.1018,1.4651,3.0533
2024-10-11T13:40:20.070Z,0.0005,-0.9978,0.1142,0.1637,0.0309,-0.0970,-0.0056,-0.0027,-0.0008,3.1018,1.4651,3.0533
2024-10-11T13:40:20.080Z,0.0033,-1.0032,0.1110,0.1637,0.0309,-0.0970,-0.0077,0.0040,-0.0003,3.1018,1.4651,3.0533
2024-10-11T13:40:20.090Z,0.0101,-1.0012,0.1127,-0.0047,0.0650,-0.0720,-0.0081,0.0074,0.0009,3.1016,1.4653,3.0533
2024-10-11T13:40:20.101Z,0.0013,-0.9980,0.1088,-0.0047,0.0650,-0.0720,-0.0104,0.0093,0.0012,3.1016,1.4653,3.0533
2024-10-11T13:40:20.110Z,0.0017,-0.9919,0.1093,-0.0047,0.0650,-0.0720,-0.0115,0.0103,-0.0002,3.1016,1.4653,3.0533
2024-10-11T13:40:20.121Z,0.0108,-0.9897,0.1102,-0.0143,-0.0540,-0.0419,-0.0143,0.0202,-0.0003,3.1011,1.4656,3.0539
2024-10-11T13:40:20.131Z,0.0057,-0.9886,0.1054,-0.0143,-0.0540,-0.0419,-0.0161,0.0238,-0.0005,3.1011,1.4656,3.0539
2024-10-11T13:40:20.140Z,0.0038,-0.9870,0.0996,-0.0143,-0.0540,-0.0419,-0.0130,0.0248,0.0013,3.1011,1.4656,3.0539
2024-10-11T13:40:20.150Z,0.0053,-0.9875,0.0956,0.0538,-0.0653,0.0960,-0.0173,0.0279,-0.0028,3.1010,1.4660,3.0545
2024-10-11T13:40:20.160Z,-0.0044,-0.9831,0.0950,0.0538,-0.0653,0.0960,-0.0178,0.0305,-0.0039,3.1010,1.4660,3.0545
2024-10-11T13:40:20.170Z,0.0040,-0.9821,0.0929,0.0538,-0.0653,0.0960,-0.0176,0.0292,-0.0040,3.1010,1.4660,3.0545
2024-10-11T13:40:20.179Z,0.0056,-0.9852,0.1011,0.0172,-0.0932,0.0308,-0.0183,0.0310,-0.0028,3.1017,1.4665,3.0544
2024-10-11T13:40:20.190Z,0.0215,-0.9871,0.1035,0.0172,-0.0932,0.0308,-0.0157,0.0304,-0.0003,3.1017,1.4665,3.0544
2024-10-11T13:40:20.200Z,0.0211,-0.9925,0.0962,0.0172,-0.0932,0.0308,-0.0208,0.0313,-0.0016,3.1017,1.4665,3.0544
2024-10-11T13:40:20.210Z,0.0153,-0.9953,0.1006,-0.0528,0.0063,0.0237,-0.0168,0.0286,0.0031,3.1015,1.4670,3.0553
2024-10-11T13:40:20.220Z,0.0124,-0.9921,0.1001,-0.0528,0.0063,0.0237,-0.0194,0.0292,0.0054,3.1015,1.4670,3.0553
2024-10-11T13:40:20.230Z,0.0160,-0.9902,0.0996,-0.0528,0.0063,0.0237,-0.0198,0.0306,0.0042,3.1015,1.4670,3.0553
2024-10-11T13:40:20.240Z,0.0195,-0.9885,0.0951,-0.1123,-0.0651,0.0799,-0.0172,0.0256,0.0036,3.1005,1.4675,3.0568
2024-10-11T13:40:20.251Z,0.0193,-0.9918,0.0941,-0.1123,-0.0651,0.0799,-0.0198,0.0267,0.0016,3.1005,1.4675,3.0568
2024-10-11T13:40:20.260Z,0.0153,-0.9921,0.0958,-0.1123,-0.0651,0.0799,-0.0167,0.0282,0.0067,3.1005,1.4675,3.0568
2024-10-11T13:40:20.271Z,0.0270,-0.9933,0.0833,-0.2062,-0.0198,0.1826,-0.0147,0.0278,0.0084,3.0991,1.4680,3.0589
2024-10-11T13:40:20.280Z,0.0388,-0.9889,0.0873,-0.2062,-0.0198,0.1826,-0.0146,0.0247,0.0090,3.0991,1.4680,3.0589
2024-10-11T13:40:20.290Z,0.0238,-0.9964,0.0908,-0.2062,-0.0198,0.1826,-0.0177,0.0206,0.0122,3.0991,1.4680,3.0589
2024-10-11T13:40:20.300Z,0.0251,-0.9924,0.0892,-0.1674,-0.0175,0.1178,-0.0117,0.0140,0.0148,3.0957,1.4684,3.0626
2024-10-11T13:40:20.310Z,0.0226,-0.9936,0.0889,-0.1674,-0.0175,0.1178,-0.0132,0.0116,0.0139,3.0957,1.4684,3.0626
2024-10-11T13:40:20.320Z,0.0274,-0.9860,0.0924,-0.1674,-0.0175,0.1178,-0.0110,0.0083,0.0166,3.0957,1.4684,3.0626
2024-10-11T13:40:20.330Z,0.0305,-0.9782,0.0915,-0.2201,-0.1624,0.0758,-0.0110,0.0075,0.0200,3.0907,1.4688,3.0677
2024-10-11T13:40:20.340Z,0.0246,-0.9752,0.0972,-0.2201,-0.1624,0.0758,-0.0102,0.0100,0.0198,3.0907,1.4688,3.0677
2024-10-11T13:40:20.351Z,0.0201,-0.9772,0.0937,-0.2201,-0.1624,0.0758,-0.0101,0.0086,0.0189,3.0907,1.4688,3.0677
2024-10-11T13:40:20.360Z,0.0227,-0.9817,0.0939,-0.1656,-0.1153,0.0768,-0.0078,0.0056,0.0236,3.0848,1.4691,3.0735
2024-10-11T13:40:20.370Z,0.0261,-0.9882,0.0918,-0.1656,-0.1153,0.0768,-0.0078,0.0077,0.0208,3.0848,1.4691,3.0735
2024-10-11T13:40:20.380Z,0.0180,-0.9960,0.0893,-0.1656,-0.1153,0.0768,-0.0031,0.0064,0.0217,3.0848,1.4691,3.0735
2024-10-11T13:40:20.390Z,0.0197,-1.0007,0.0951,-0.1392,0.0649,0.0589,-0.0061,0.0065,0.0208,3.0783,1.4693,3.0799
2024-10-11T13:40:20.401Z,0.0196,-1.0027,0.0958,-0.1392,0.0649,0.0589,-0.0055,0.0068,0.0215,3.0783,1.4693,3.0799
2024-10-11T13:40:20.410Z,0.0103,-1.0066,0.1091,-0.1392,0.0649,0.0589,-0.0094,0.0092,0.0182,3.0783,1.4693,3.0799
2024-10-11T13:40:20.420Z,0.0116,-1.0119,0.1085,-0.0671,0.1697,-0.0748,-0.0049,0.0072,0.0157,3.0732,1.4695,3.0851
2024-10-11T13:40:20.430Z,0.0123,-1.0132,0.1075,-0.0671,0.1697,-0.0748,-0.0089,0.0101,0.0140,3.0732,1.4695,3.0851
2024-10-11T13:40:20.440Z,0.0072,-1.0118,0.1106,-0.0671,0.1697,-0.0748,-0.0089,0.0085,0.0124,3.0732,1.4695,3.0851
2024-10-11T13:40:20.451Z,0.0155,-1.0077,0.1101,-0.0931,0.1166,-0.0922,-0.0090,0.0106,0.0094,3.0695,1.4698,3.0887
2024-10-11T13:40:20.460Z,0.0038,-1.0080,0.1127,-0.0931,0.1166,-0.0922,-0.0079,0.0170,0.0074,3.0695,1.4698,3.0887
2024-10-11T13:40:20.470Z,0.0016,-1.0015,0.1053,-0.0931,0.1166,-0.0922,-0.0060,0.0184,0.0049,3.0695,1.4698,3.0887
2024-10-11T13:40:20.480Z,0.0017,-1.0006,0.1106,0.0466,0.0590,-0.1086,-0.0101,0.0239,0.0052,3.0672,1.4701,3.0912
2024-10-11T13:40:20.490Z,-0.0049,-0.9949,0.1178,0.0466,0.0590,-0.1086,-0.0100,0.0200,0.0001,3.0672,1.4701,3.0912
2024-10-11T13:40:20.501Z,-0.0035,-0.9931,0.1181,0.0466,0.0590,-0.1086,-0.0134,0.0234,-0.0024,3.0672,1.4701,3.0912
2024-10-11T13:40:20.510Z,-0.0063,-0.9974,0.1145,0.1094,0.0287,-0.1508,-0.0111,0.0268,-0.0046,3.0672,1.4703,3.0915
2024-10-11T13:40:20.520Z,0.0011,-0.9992,0.1165,0.1094,0.0287,-0.1508,-0.0125,0.0250,-0.0067,3.0672,1.4703,3.0915
2024-10-11T13:40:20.530Z,0.0004,-0.9986,0.1203,0.1094,0.0287,-0.1508,-0.0127,0.0264,-0.0099,3.0672,1.4703,3.0915
2024-10-11T13:40:20.540Z,-0.0001,-0.9996,0.1163,0.0400,0.0568,-0.1418,-0.0158,0.0290,-0.0110,3.0698,1.4707,3.0895
2024-10-11T13:40:20.551Z,0.0038,-1.0013,0.1101,0.0400,0.0568,-0.1418,-0.0171,0.0328,-0.0115,3.0698,1.4707,3.0895
2024-10-11T13:40:20.560Z,0.0052,-1.0006,0.1104,0.0400,0.0568,-0.1418,-0.0188,0.0291,-0.0129,3.0698,1.4707,3.0895
2024-10-11T13:40:20.571Z,0.0079,-0.9977,0.1103,-0.0359,0.0195,-0.0954,-0.0193,0.0297,-0.0156,3.0738,1.4712,3.0861
2024-10-11T13:40:20.580Z,0.0060,-0.9923,0.1018,-0.0359,0.0195,-0.0954,-0.0173,0.0295,-0.0149,3.0738,1.4712,3.0861
2024-10-11T13:40:20.590Z,0.0052,-0.9949,0.1058,-0.0359,0.0195,-0.0954,-0.0189,0.0271,-0.0154,3.0738,1.4712,3.0861
2024-10-11T13:40:20.601Z,0.0132,-0.9972,0.1025,-0.0780,0.0233,-0.0352,-0.0198,0.0301,-0.0159,3.0784,1.4717,3.0822
2024-10-11T13:40:20.610Z,0.0130,-0.9996,0.1014,-0.0780,0.0233,-0.0352,-0.0198,0.0287,-0.0175,3.0784,1.4717,3.0822
2024-10-11T13:40:20.619Z,0.0052,-0.9958,0.0953,-0.0780,0.0233,-0.0352,-0.0152,0.0289,-0.0178,3.0784,1.4717,3.0822
2024-10-11T13:40:20.630Z,0.0030,-0.9934,0.0933,0.0134,-0.0115,0.0511,-0.0118,0.0270,-0.0175,3.0832,1.4721,3.0780
2024-10-11T13:40:20.640Z,0.0110,-0.9927,0.1004,0.0134,-0.0115,0.0511,-0.0138,0.0255,-0.0183,3.0832,1.4721,3.0780
2024-10-11T13:40:20.651Z,0.0094,-0.9875,0.1042,0.0134,-0.0115,0.0511,-0.0161,0.0274,-0.0198,3.0832,1.4721,3.0780
2024-10-11T13:40:20.660Z,0.0137,-0.9877,0.1017,-0.0730,-0.0663,-0.0185,-0.0144,0.0250,-0.0174,3.0886,1.4724,3.0732
2024-10-11T13:40:20.670Z,0.0146,-0.9933,0.0849,-0.0730,-0.0663,-0.0185,-0.0101,0.0238,-0.0153,3.0886,1.4724,3.0732
2024-10-11T13:40:20.680Z,0.0117,-0.9933,0.0829,-0.0730,-0.0663,-0.0185,-0.0051,0.0209,-0.0133,3.0886,1.4724,3.0732
2024-10-11T13:40:20.690Z,0.0136,-0.9921,0.0825,-0.0726,-0.0298,0.1441,-0.0018,0.0200,-0.0125,3.0927,1.4726,3.0695
2024-10-11T13:40:20.701Z,0.0176,-0.9898,0.0858,-0.0726,-0.0298,0.1441,-0.0005,0.0157,-0.0127,3.0927,1.4726,3.0695
2024-10-11T13:40:20.710Z,0.0189,-0.9906,0.0865,-0.0726,-0.0298,0.1441,0.0014,0.0149,-0.0088,3.0927,1.4726,3.0695
2024-10-11T13:40:20.719Z,0.0211,-0.9927,0.0864,-0.1380,-0.0284,0.1172,0.0011,0.0136,-0.0052,3.0953,1.4726,3.0673
2024-10-11T13:40:20.729Z,0.0278,-0.9887,0.0899,-0.1380,-0.0284,0.1172,0.0025,0.0157,-0.0051,3.0953,1.4726,3.0673
2024-10-11T13:40:20.740Z,0.0299,-0.9812,0.0900,-0.1380,-0.0284,0.1172,-0.0007,0.0163,-0.0031,3.0953,1.4726,3.0673
2024-10-11T13:40:20.751Z,0.0231,-0.9784,0.0918,-0.1385,-0.1645,0.0590,0.0007,0.0145,-0.0008,3.0961,1.4725,3.0666
2024-10-11T13:40:20.760Z,0.0168,-0.9797,0.0932,-0.1385,-0.1645,0.0590,0.0002,0.0110,-0.0007,3.0961,1.4725,3.0666
2024-10-11T13:40:20.770Z,0.0185,-0.9870,0.0946,-0.1385,-0.1645,0.0590,0.0033,0.0072,-0.0014,3.0961,1.4725,3.0666
2024-10-11T13:40:20.780Z,0.0181,-0.9914,0.0921,-0.1115,-0.0279,0.0521,0.0054,0.0052,0.0013,3.0962,1.4725,3.0665
2024-10-11T13:40:20.791Z,0.0186,-0.9974,0.0949,-0.1115,-0.0279,0.0521,0.0030,0.0049,-0.0022,3.0962,1.4725,3.0665
2024-10-11T13:40:20.802Z,0.0146,-0.9985,0.0974,-0.1115,-0.0279,0.0521,0.0041,0.0020,0.0001,3.0962,1.4725,3.0665
2024-10-11T13:40:20.810Z,0.0128,-0.9993,0.1025,-0.0528,0.0402,-0.0467,0.0045,-0.0011,0.0019,3.0960,1.4723,3.0665
2024-10-11T13:40:20.820Z,0.0177,-0.9998,0.1043,-0.0528,0.0402,-0.0467,0.0036,-0.0003,0.0007,3.0960,1.4723,3.0665
2024-10-11T13:40:20.830Z,0.0162,-0.9999,0.1037,-0.0528,0.0402,-0.0467,0.0024,0.0034,0.0054,3.0960,1.4723,3.0665
2024-10-11T13:40:20.840Z,0.0214,-1.0029,0.1091,-0.1522,0.0828,-0.1004,0.0009,0.0001,0.0046,3.0948,1.4722,3.0675
2024-10-11T13:40:20.850Z,0.0249,-1.0011,0.1058,-0.1522,0.0828,-0.1004,0.0030,0.0008,0.0060,3.0948,1.4722,3.0675
2024-10-11T13:40:20.860Z,0.0162,-1.0012,0.1003,-0.1522,0.0828,-0.1004,0.0015,0.0068,0.0031,3.0948,1.4722,3.0675
2024-10-11T13:40:20.870Z,0.0121,-0.9983,0.0948,-0.0426,0.0321,0.0397,0.0016,0.0058,0.0039,3.0933,1.4722,3.0688
2024-10-11T13:40:20.880Z,0.0050,-0.9990,0.0905,-0.0426,0.0321,0.0397,0.0054,0.0024,0.0023,3.0933,1.4722,3.0688
2024-10-11T13:40:20.890Z,0.0038,-1.0020,0.0906,-0.0426,0.0321,0.0397,0.0053,0.0050,0.0008,3.0933,1.4722,3.0688
2024-10-11T13:40:20.900Z,0.0016,-1.0041,0.0922,0.0608,0.0882,0.0593,0.0043,0.0012,0.0013,3.0929,1.4721,3.0692
2024-10-11T13:40:20.910Z,0.0047,-1.0010,0.1003,0.0608,0.0882,0.0593,0.0055,0.0011,-0.0020,3.0929,1.4721,3.0692
2024-10-11T13:40:20.920Z,-0.0027,-0.9959,0.1067,0.0608,0.0882,0.0593,0.0035,0.0023,-0.0031,3.0929,1.4721,3.0692
2024-10-11T13:40:20.930Z,0.0012,-0.9935,0.1105,0.0451,-0.0214,-0.1281,0.0028,0.0070,-0.0027,3.0934,1.4719,3.0685
2024-10-11T13:40:20.940Z,0.0077,-0.9936,0.1072,0.0451,-0.0214,-0.1281,0.0017,0.0086,-0.0051,3.0934,1.4719,3.0685
2024-10-11T13:40:20.950Z,0.0032,-0.9959,0.1132,0.0451,-0.0214,-0.1281,0.0014,0.0073,-0.0063,3.0934,1.4719,3.0685
2024-10-11T13:40:20.960Z,-0.0011,-0.9962,0.1113,0.0768,0.0152,-0.1303,0.0029,0.0079,-0.0072,3.0949,1.4718,3.0670
2024-10-11T13:40:20.970Z,0.0011,-0.9987,0.1056,0.0768,0.0152,-0.1303,0.0034,0.0070,-0.0080,3.0949,1.4718,3.0670
2024-10-11T13:40:20.979Z,0.0075,-1.0007,0.1044,0.0768,0.0152,-0.1303,0.0017,0.0077,-0.0076,3.0949,1.4718,3.0670
2024-10-11T13:40:20.990Z,0.0033,-1.0042,0.1034,0.0542,0.0804,-0.0520,0.0010,0.0084,-0.0084,3.0968,1.4717,3.0650
2024-10-11T13:40:21.000Z,0.0016,-1.0019,0.1050,0.0542,0.0804,-0.0520,0.0007,0.0113,-0.0107,3.0968,1.4717,3.0650
2024-10-11T13:40:21.011Z,-0.0022,-1.0022,0.1045,0.0542,0.0804,-0.0520,0.0009,0.0134,-0.0099,3.0968,1.4717,3.0650
2024-10-11T13:40:21.019Z,-0.0006,-1.0036,0.1092,0.0700,0.0940,-0.1061,0.0011,0.0094,-0.0132,3.0998,1.4716,3.0621
2024-10-11T13:40:21.030Z,0.0050,-1.0030,0.1121,0.0700,0.0940,-0.1061,-0.0018,0.0128,-0.0118,3.0998,1.4716,3.0621
2024-10-11T13:40:21.040Z,0.0011,-0.9994,0.1064,0.0700,0.0940,-0.1061,-0.0009,0.0158,-0.0135,3.0998,1.4716,3.0621
2024-10-11T13:40:21.050Z,-0.0005,-0.9968,0.0988,0.0817,0.0175,0.0068,-0.0025,0.0167,-0.0136,3.1035,1.4716,3.0586
2024-10-11T13:40:21.060Z,0.0056,-0.9965,0.1027,0.0817,0.0175,0.0068,-0.0022,0.0182,-0.0134,3.1035,1.4716,3.0586
2024-10-11T13:40:21.069Z,0.0057,-0.9929,0.1016,0.0817,0.0175,0.0068,-0.0029,0.0202,-0.0145,3.1035,1.4716,3.0586
2024-10-11T13:40:21.080Z,0.0081,-0.9909,0.0990,-0.0035,-0.0441,0.0031,-0.0006,0.0203,-0.0129,3.1071,1.4716,3.0553
2024-10-11T13:40:21.090Z,0.0146,-0.9899,0.0986,-0.0035,-0.0441,0.0031,-0.0025,0.0180,-0.0121,3.1071,1.4716,3.0553
2024-10-11T13:40:21.100Z,0.0107,-0.9907,0.0988,-0.0035,-0.0441,0.0031,-0.0010,0.0194,-0.0105,3.1071,1.4716,3.0553
2024-10-11T13:40:21.110Z,0.0059,-0.9886,0.1024,0.0260,-0.0578,-0.0430,-0.0018,0.0218,-0.0073,3.1094,1.4715,3.0534
2024-10-11T13:40:21.119Z,0.0099,-0.9893,0.1031,0.0260,-0.0578,-0.0430,-0.0004,0.0245,-0.0062,3.1094,1.4715,3.0534
2024-10-11T13:40:21.130Z,0.0114,-0.9895,0.1067,0.0260,-0.0578,-0.0430,-0.0002,0.0251,-0.0029,3.1094,1.4715,3.0534
2024-10-11T13:40:21.140Z,0.0093,-0.9880,0.1044,-0.0008,-0.0667,-0.0644,-0.0030,0.0279,-0.0050,3.1105,1.4715,3.0528
2024-10-11T13:40:21.150Z,0.0052,-0.9891,0.1102,-0.0008,-0.0667,-0.0644,-0.0019,0.0281,-0.0008,3.1105,1.4715,3.0528
2024-10-11T13:40:21.160Z,0.0068,-0.9906,0.1106,-0.0008,-0.0667,-0.0644,-0.0029,0.0286,-0.0034,3.1105,1.4715,3.0528
