time,gFx,gFy,gFz,ax,ay,az,wx,wy,wz,yaw,pitch,roll
2024-10-11T13:53:28.681Z,0.0798,-0.9814,0.2132,-0.4429,0.1520,-0.1861,-0.0249,-0.0965,-0.0128,2.6815,1.3744,2.9443
2024-10-11T13:53:28.688Z,0.0823,-0.9732,0.2061,-0.4269,-0.0686,-0.1624,-0.0277,-0.1050,-0.0131,2.6843,1.3751,2.9383
2024-10-11T13:53:28.698Z,0.0788,-0.9684,0.2046,-0.4269,-0.0686,-0.1624,-0.0255,-0.1132,-0.0135,2.6843,1.3751,2.9383
2024-10-11T13:53:28.708Z,0.0723,-0.9680,0.2023,-0.4269,-0.0686,-0.1624,-0.0294,-0.1165,-0.0117,2.6843,1.3751,2.9383
2024-10-11T13:53:28.718Z,0.0733,-0.9668,0.1917,-0.3122,-0.1218,-0.0720,-0.0260,-0.1197,-0.0103,2.6868,1.3758,2.9321
2024-10-11T13:53:28.728Z,0.0823,-0.9627,0.1808,-0.3122,-0.1218,-0.0720,-0.0232,-0.1243,-0.0092,2.6868,1.3758,2.9321
2024-10-11T13:53:28.738Z,0.0890,-0.9613,0.1686,-0.3122,-0.1218,-0.0720,-0.0192,-0.1362,-0.0055,2.6868,1.3758,2.9321
2024-10-11T13:53:28.748Z,0.1076,-0.9524,0.1529,-0.5323,-0.2431,0.3213,-0.0146,-0.1569,-0.0040,2.6882,1.3762,2.9263
2024-10-11T13:53:28.758Z,0.0984,-0.9666,0.1558,-0.5323,-0.2431,0.3213,-0.0051,-0.1619,-0.0017,2.6882,1.3762,2.9263
2024-10-11T13:53:28.768Z,0.0756,-0.9663,0.1444,-0.5323,-0.2431,0.3213,-0.0057,-0.1600,-0.0026,2.6882,1.3762,2.9263
2024-10-11T13:53:28.778Z,0.0812,-0.9594,0.1416,-0.3824,-0.2176,0.4551,0.0000,-0.1636,-0.0015,2.6886,1.3762,2.9208
2024-10-11T13:53:28.787Z,0.0621,-0.9627,0.1431,-0.3824,-0.2176,0.4551,0.0060,-0.1572,0.0022,2.6886,1.3762,2.9208
2024-10-11T13:53:28.798Z,0.0487,-0.9539,0.1494,-0.3824,-0.2176,0.4551,0.0101,-0.1480,0.0031,2.6886,1.3762,2.9208
2024-10-11T13:53:28.808Z,0.0427,-0.9588,0.1601,-0.0179,-0.2408,0.3114,0.0148,-0.1386,0.0020,2.6878,1.3759,2.9169
2024-10-11T13:53:28.818Z,0.0374,-0.9608,0.1653,-0.0179,-0.2408,0.3114,0.0170,-0.1306,0.0056,2.6878,1.3759,2.9169
2024-10-11T13:53:28.828Z,0.0383,-0.9639,0.1736,-0.0179,-0.2408,0.3114,0.0218,-0.1275,0.0055,2.6878,1.3759,2.9169
2024-10-11T13:53:28.838Z,0.0429,-0.9649,0.1839,0.0405,-0.1612,0.1078,0.0240,-0.1183,0.0031,2.6865,1.3753,2.9143
2024-10-11T13:53:28.848Z,0.0209,-0.9760,0.1898,0.0405,-0.1612,0.1078,0.0229,-0.0994,0.0010,2.6865,1.3753,2.9143
2024-10-11T13:53:28.858Z,-0.0096,-0.9607,0.1735,0.0405,-0.1612,0.1078,0.0245,-0.0746,0.0025,2.6865,1.3753,2.9143
2024-10-11T13:53:28.868Z,0.0101,-0.9696,0.1785,0.4028,-0.2068,0.1346,0.0247,-0.0582,0.0006,2.6854,1.3746,2.9130
2024-10-11T13:53:28.878Z,-0.0032,-0.9930,0.1802,0.4028,-0.2068,0.1346,0.0234,-0.0340,0.0003,2.6854,1.3746,2.9130
2024-10-11T13:53:28.888Z,0.0061,-0.9937,0.1709,0.4028,-0.2068,0.1346,0.0235,-0.0218,0.0044,2.6854,1.3746,2.9130
2024-10-11T13:53:28.898Z,0.0316,-0.9963,0.1648,0.1869,0.1387,0.2448,0.0249,-0.0230,0.0024,2.6840,1.3739,2.9133
2024-10-11T13:53:28.908Z,0.0250,-1.0006,0.1678,0.1869,0.1387,0.2448,0.0258,-0.0179,0.0020,2.6840,1.3739,2.9133
2024-10-11T13:53:28.919Z,0.0195,-1.0048,0.1707,0.1869,0.1387,0.2448,0.0215,-0.0069,-0.0014,2.6840,1.3739,2.9133
2024-10-11T13:53:28.929Z,0.0191,-1.0032,0.1786,0.2490,0.2358,0.1472,0.0251,0.0055,-0.0029,2.6832,1.3732,2.9137
2024-10-11T13:53:28.938Z,0.0203,-0.9988,0.1869,0.2490,0.2358,0.1472,0.0250,0.0150,0.0013,2.6832,1.3732,2.9137
2024-10-11T13:53:28.948Z,0.0220,-0.9956,0.1975,0.2490,0.2358,0.1472,0.0237,0.0274,-0.0016,2.6832,1.3732,2.9137
2024-10-11T13:53:28.958Z,0.0275,-0.9909,0.2042,0.1771,0.1244,-0.0997,0.0218,0.0364,0.0013,2.6822,1.3725,2.9152
2024-10-11T13:53:28.969Z,0.0288,-0.9860,0.2088,0.1771,0.1244,-0.0997,0.0203,0.0413,0.0019,2.6822,1.3725,2.9152
2024-10-11T13:53:28.978Z,0.0249,-0.9829,0.2107,0.1771,0.1244,-0.0997,0.0202,0.0459,0.0048,2.6822,1.3725,2.9152
2024-10-11T13:53:28.988Z,0.0243,-0.9798,0.2139,0.1927,-0.0057,-0.1945,0.0187,0.0463,0.0034,2.6810,1.3720,2.9175
2024-10-11T13:53:28.998Z,0.0236,-0.9784,0.2150,0.1927,-0.0057,-0.1945,0.0182,0.0488,0.0046,2.6810,1.3720,2.9175
2024-10-11T13:53:29.008Z,0.0184,-0.9771,0.2097,0.1927,-0.0057,-0.1945,0.0136,0.0521,0.0022,2.6810,1.3720,2.9175
2024-10-11T13:53:29.019Z,0.0136,-0.9788,0.2138,0.2870,-0.0254,-0.1877,0.0121,0.0588,0.0001,2.6799,1.3716,2.9200
2024-10-11T13:53:29.028Z,0.0118,-0.9830,0.2184,0.2870,-0.0254,-0.1877,0.0106,0.0607,-0.0009,2.6799,1.3716,2.9200
2024-10-11T13:53:29.038Z,0.0121,-0.9873,0.2244,0.2870,-0.0254,-0.1877,0.0074,0.0684,-0.0010,2.6799,1.3716,2.9200
2024-10-11T13:53:29.048Z,0.0172,-0.9920,0.2308,0.2847,0.0975,-0.3398,0.0056,0.0746,-0.0008,2.6794,1.3714,2.9223
2024-10-11T13:53:29.058Z,0.0210,-0.9946,0.2327,0.2847,0.0975,-0.3398,0.0031,0.0759,-0.0003,2.6794,1.3714,2.9223
2024-10-11T13:53:29.069Z,0.0264,-1.0008,0.2320,0.2847,0.0975,-0.3398,-0.0027,0.0858,-0.0026,2.6794,1.3714,2.9223
2024-10-11T13:53:29.077Z,0.0297,-1.0037,0.2270,0.1288,0.2233,-0.3460,-0.0067,0.0889,-0.0010,2.6793,1.3714,2.9247
2024-10-11T13:53:29.088Z,0.0285,-1.0081,0.2197,0.1288,0.2233,-0.3460,-0.0088,0.0943,-0.0020,2.6793,1.3714,2.9247
2024-10-11T13:53:29.098Z,0.0273,-1.0119,0.2155,0.1288,0.2233,-0.3460,-0.0114,0.0998,-0.0007,2.6793,1.3714,2.9247
2024-10-11T13:53:29.108Z,0.0275,-1.0149,0.2101,0.1506,0.3284,-0.1851,-0.0157,0.1100,-0.0043,2.6798,1.3717,2.9270
2024-10-11T13:53:29.119Z,0.0302,-1.0172,0.2081,0.1506,0.3284,-0.1851,-0.0193,0.1086,-0.0047,2.6798,1.3717,2.9270
2024-10-11T13:53:29.128Z,0.0364,-1.0154,0.2056,0.1506,0.3284,-0.1851,-0.0223,0.1146,-0.0016,2.6798,1.3717,2.9270
2024-10-11T13:53:29.138Z,0.0404,-1.0165,0.2051,0.0170,0.3522,-0.1201,-0.0259,0.1174,-0.0022,2.6809,1.3724,2.9291
2024-10-11T13:53:29.148Z,0.0426,-1.0120,0.2021,0.0170,0.3522,-0.1201,-0.0322,0.1229,-0.0029,2.6809,1.3724,2.9291
2024-10-11T13:53:29.158Z,0.0476,-1.0067,0.1974,0.0170,0.3522,-0.1201,-0.0353,0.1251,-0.0001,2.6809,1.3724,2.9291
2024-10-11T13:53:29.169Z,0.0472,-1.0004,0.1877,-0.0553,0.2156,-0.0161,-0.0378,0.1319,0.0021,2.6818,1.3734,2.9318
2024-10-11T13:53:29.178Z,0.0562,-0.9925,0.1769,-0.0553,0.2156,-0.0161,-0.0388,0.1337,0.0016,2.6818,1.3734,2.9318
2024-10-11T13:53:29.188Z,0.0489,-0.9848,0.1801,-0.0553,0.2156,-0.0161,-0.0383,0.1395,0.0045,2.6818,1.3734,2.9318
2024-10-11T13:53:29.198Z,0.0385,-0.9766,0.1791,-0.0036,-0.0131,0.1046,-0.0396,0.1413,0.0018,2.6822,1.3746,2.9352
2024-10-11T13:53:29.208Z,0.0403,-0.9687,0.1759,-0.0036,-0.0131,0.1046,-0.0383,0.1420,0.0019,2.6822,1.3746,2.9352
2024-10-11T13:53:29.219Z,0.0475,-0.9611,0.1741,-0.0036,-0.0131,0.1046,-0.0389,0.1453,0.0056,2.6822,1.3746,2.9352
2024-10-11T13:53:29.228Z,0.0457,-0.9587,0.1699,-0.0923,-0.2042,0.1852,-0.0367,0.1456,0.0060,2.6826,1.3757,2.9390
2024-10-11T13:53:29.238Z,0.0349,-0.9567,0.1702,-0.0923,-0.2042,0.1852,-0.0351,0.1450,0.0034,2.6826,1.3757,2.9390
2024-10-11T13:53:29.248Z,0.0297,-0.9570,0.1740,-0.0923,-0.2042,0.1852,-0.0321,0.1473,0.0013,2.6826,1.3757,2.9390
2024-10-11T13:53:29.258Z,0.0318,-0.9583,0.1752,0.0737,-0.2403,0.1371,-0.0301,0.1469,0.0014,2.6829,1.3766,2.9428
2024-10-11T13:53:29.269Z,0.0364,-0.9600,0.1774,0.0737,-0.2403,0.1371,-0.0304,0.1425,0.0032,2.6829,1.3766,2.9428
2024-10-11T13:53:29.278Z,0.0393,-0.9594,0.1770,0.0737,-0.2403,0.1371,-0.0231,0.1342,0.0054,2.6829,1.3766,2.9428
2024-10-11T13:53:29.289Z,0.0390,-0.9619,0.1797,-0.0134,-0.1994,0.0906,-0.0219,0.1256,0.0066,2.6829,1.3774,2.9466
2024-10-11T13:53:29.298Z,0.0392,-0.9626,0.1812,-0.0134,-0.1994,0.0906,-0.0219,0.1256,0.0066,2.6829,1.3774,2.9466
2024-10-11T13:53:29.310Z,0.0380,-0.9639,0.1832,-0.0134,-0.1994,0.0906,-0.0196,0.1104,0.0015,2.6829,1.3774,2.9466
2024-10-11T13:53:29.319Z,0.0356,-0.9637,0.1784,0.0032,-0.1787,0.0798,-0.0196,0.1104,0.0015,2.6828,1.3779,2.9499
2024-10-11T13:53:29.329Z,0.0364,-0.9680,0.1711,0.0032,-0.1787,0.0798,-0.0095,0.0917,-0.0031,2.6828,1.3779,2.9499
2024-10-11T13:53:29.339Z,0.0434,-0.9720,0.1716,0.0032,-0.1787,0.0798,-0.0073,0.0792,-0.0068,2.6828,1.3779,2.9499
2024-10-11T13:53:29.349Z,0.0500,-0.9759,0.1740,-0.1200,-0.0658,0.1496,-0.0030,0.0720,-0.0083,2.6836,1.3781,2.9516
2024-10-11T13:53:29.358Z,0.0524,-0.9785,0.1777,-0.1200,-0.0658,0.1496,-0.0030,0.0720,-0.0083,2.6836,1.3781,2.9516
2024-10-11T13:53:29.370Z,0.0561,-0.9813,0.1782,-0.1200,-0.0658,0.1496,-0.0034,0.0613,-0.0106,2.6836,1.3781,2.9516
2024-10-11T13:53:29.378Z,0.0685,-0.9847,0.1822,-0.2723,0.0256,0.0722,-0.0008,0.0527,-0.0107,2.6849,1.3781,2.9518
2024-10-11T13:53:29.390Z,0.0767,-0.9810,0.1829,-0.2723,0.0256,0.0722,0.0026,0.0251,-0.0119,2.6849,1.3781,2.9518
2024-10-11T13:53:29.398Z,0.0827,-0.9839,0.1842,-0.2723,0.0256,0.0722,0.0026,0.0251,-0.0119,2.6849,1.3781,2.9518
2024-10-11T13:53:29.409Z,0.0819,-0.9859,0.1841,-0.4473,0.0445,0.0424,0.0014,0.0064,-0.0108,2.6864,1.3780,2.9509
2024-10-11T13:53:29.422Z,0.0826,-0.9870,0.1844,-0.4473,0.0445,0.0424,-0.0011,-0.0007,-0.0099,2.6864,1.3780,2.9509
2024-10-11T13:53:29.428Z,0.0820,-0.9863,0.1852,-0.4473,0.0445,0.0424,-0.0011,-0.0007,-0.0099,2.6864,1.3780,2.9509
2024-10-11T13:53:29.439Z,0.0784,-0.9846,0.1907,-0.4238,0.0334,-0.0048,0.0023,-0.0186,-0.0081,2.6875,1.3779,2.9494
2024-10-11T13:53:29.449Z,0.0732,-0.9834,0.1936,-0.4238,0.0334,-0.0048,0.0007,-0.0254,-0.0088,2.6875,1.3779,2.9494
2024-10-11T13:53:29.459Z,0.0707,-0.9811,0.1990,-0.4238,0.0334,-0.0048,-0.0015,-0.0305,-0.0087,2.6875,1.3779,2.9494
2024-10-11T13:53:29.471Z,0.0662,-0.9798,0.1990,-0.3030,-0.0143,-0.1023,-0.0012,-0.0356,-0.0100,2.6888,1.3777,2.9471
2024-10-11T13:53:29.479Z,0.0677,-0.9792,0.2010,-0.3030,-0.0143,-0.1023,-0.0009,-0.0416,-0.0072,2.6888,1.3777,2.9471
2024-10-11T13:53:29.489Z,0.0681,-0.9753,0.2038,-0.3030,-0.0143,-0.1023,-0.0023,-0.0477,-0.0068,2.6888,1.3777,2.9471
2024-10-11T13:53:29.497Z,0.0669,-0.9774,0.2031,-0.2848,-0.0525,-0.1516,-0.0023,-0.0477,-0.0068,2.6904,1.3777,2.9440
2024-10-11T13:53:29.509Z,0.0652,-0.9783,0.2037,-0.2848,-0.0525,-0.1516,-0.0033,-0.0475,-0.0095,2.6904,1.3777,2.9440
2024-10-11T13:53:29.520Z,0.0594,-0.9794,0.2035,-0.2848,-0.0525,-0.1516,-0.0080,-0.0503,-0.0109,2.6904,1.3777,2.9440
2024-10-11T13:53:29.528Z,0.0552,-0.9821,0.2023,-0.1734,-0.0029,-0.1554,-0.0121,-0.0477,-0.0137,2.6921,1.3777,2.9406
2024-10-11T13:53:29.539Z,0.0574,-0.9828,0.1999,-0.1734,-0.0029,-0.1554,-0.0119,-0.0427,-0.0141,2.6921,1.3777,2.9406
2024-10-11T13:53:29.548Z,0.0633,-0.9839,0.1953,-0.1734,-0.0029,-0.1554,-0.0144,-0.0417,-0.0124,2.6921,1.3777,2.9406
2024-10-11T13:53:29.559Z,0.0693,-0.9803,0.1899,-0.2823,-0.0017,-0.0436,-0.0184,-0.0406,-0.0085,2.6944,1.3780,2.9368
2024-10-11T13:53:29.569Z,0.0685,-0.9777,0.1864,-0.2823,-0.0017,-0.0436,-0.0198,-0.0408,-0.0086,2.6944,1.3780,2.9368
2024-10-11T13:53:29.578Z,0.0660,-0.9744,0.1811,-0.2823,-0.0017,-0.0436,-0.0198,-0.0408,-0.0086,2.6944,1.3780,2.9368
2024-10-11T13:53:29.589Z,0.0622,-0.9731,0.1765,-0.2392,-0.0789,0.0837,-0.0233,-0.0336,-0.0103,2.6966,1.3785,2.9332
2024-10-11T13:53:29.598Z,0.0633,-0.9740,0.1739,-0.2392,-0.0789,0.0837,-0.0231,-0.0335,-0.0087,2.6966,1.3785,2.9332
2024-10-11T13:53:29.608Z,0.0712,-0.9718,0.1702,-0.2392,-0.0789,0.0837,-0.0221,-0.0338,-0.0057,2.6966,1.3785,2.9332
2024-10-11T13:53:29.619Z,0.0737,-0.9713,0.1664,-0.3408,-0.1055,0.1793,-0.0225,-0.0316,-0.0022,2.6983,1.3791,2.9303
2024-10-11T13:53:29.628Z,0.0696,-0.9723,0.1652,-0.3408,-0.1055,0.1793,-0.0191,-0.0348,-0.0010,2.6983,1.3791,2.9303
2024-10-11T13:53:29.637Z,0.0675,-0.9757,0.1648,-0.3408,-0.1055,0.1793,-0.0191,-0.0348,-0.0010,2.6983,1.3791,2.9303
2024-10-11T13:53:29.649Z,0.0652,-0.9772,0.1611,-0.2485,-0.0385,0.2337,-0.0145,-0.0369,0.0030,2.6989,1.3796,2.9284
2024-10-11T13:53:29.659Z,0.0638,-0.9770,0.1569,-0.2485,-0.0385,0.2337,-0.0109,-0.0361,0.0058,2.6989,1.3796,2.9284
2024-10-11T13:53:29.668Z,0.0614,-0.9776,0.1553,-0.2485,-0.0385,0.2337,-0.0057,-0.0361,0.0061,2.6989,1.3796,2.9284
2024-10-11T13:53:29.679Z,0.0587,-0.9773,0.1515,-0.1909,-0.0423,0.3257,0.0006,-0.0343,0.0091,2.6983,1.3799,2.9277
2024-10-11T13:53:29.689Z,0.0579,-0.9750,0.1548,-0.1909,-0.0423,0.3257,0.0046,-0.0317,0.0096,2.6983,1.3799,2.9277
2024-10-11T13:53:29.699Z,0.0592,-0.9742,0.1543,-0.1909,-0.0423,0.3257,0.0082,-0.0302,0.0141,2.6983,1.3799,2.9277
2024-10-11T13:53:29.708Z,0.0638,-0.9743,0.1519,-0.2202,-0.0712,0.3222,0.0135,-0.0286,0.0142,2.6966,1.3798,2.9281
2024-10-11T13:53:29.719Z,0.0630,-0.9737,0.1536,-0.2202,-0.0712,0.3222,0.0193,-0.0269,0.0173,2.6966,1.3798,2.9281
2024-10-11T13:53:29.728Z,0.0637,-0.9751,0.1576,-0.2202,-0.0712,0.3222,0.0214,-0.0253,0.0193,2.6966,1.3798,2.9281
2024-10-11T13:53:29.738Z,0.0590,-0.9802,0.1581,-0.2016,-0.0391,0.2794,0.0266,-0.0220,0.0197,2.6933,1.3794,2.9303
2024-10-11T13:53:29.748Z,0.0591,-0.9856,0.1624,-0.2016,-0.0391,0.2794,0.0275,-0.0224,0.0234,2.6933,1.3794,2.9303
2024-10-11T13:53:29.758Z,0.0596,-0.9892,0.1660,-0.2016,-0.0391,0.2794,0.0276,-0.0177,0.0219,2.6933,1.3794,2.9303
2024-10-11T13:53:29.768Z,0.0589,-0.9911,0.1705,-0.2000,0.0888,0.1727,0.0299,-0.0219,0.0234,2.6891,1.3787,2.9336
2024-10-11T13:53:29.778Z,0.0563,-0.9922,0.1809,-0.2000,0.0888,0.1727,0.0300,-0.0165,0.0224,2.6891,1.3787,2.9336
2024-10-11T13:53:29.788Z,0.0551,-0.9940,0.1851,-0.2000,0.0888,0.1727,0.0300,-0.0165,0.0224,2.6891,1.3787,2.9336
2024-10-11T13:53:29.798Z,0.0541,-0.9928,0.1860,-0.1544,0.1171,0.0212,0.0283,-0.0259,0.0225,2.6845,1.3780,2.9372
2024-10-11T13:53:29.809Z,0.0533,-0.9886,0.1863,-0.1544,0.1171,0.0212,0.0234,-0.0325,0.0223,2.6845,1.3780,2.9372
2024-10-11T13:53:29.819Z,0.0439,-0.9872,0.1893,-0.1544,0.1171,0.0212,0.0234,-0.0346,0.0230,2.6845,1.3780,2.9372
2024-10-11T13:53:29.828Z,0.0364,-0.9866,0.1910,0.0087,0.0477,-0.0153,0.0209,-0.0367,0.0214,2.6803,1.3774,2.9400
2024-10-11T13:53:29.838Z,0.0377,-0.9846,0.1907,0.0087,0.0477,-0.0153,0.0227,-0.0412,0.0189,2.6803,1.3774,2.9400
2024-10-11T13:53:29.848Z,0.0391,-0.9823,0.1903,0.0087,0.0477,-0.0153,0.0170,-0.0406,0.0191,2.6803,1.3774,2.9400
2024-10-11T13:53:29.858Z,0.0420,-0.9808,0.1923,-0.0230,-0.0003,-0.0245,0.0191,-0.0412,0.0179,2.6769,1.3770,2.9420
2024-10-11T13:53:29.868Z,0.0403,-0.9794,0.1959,-0.0230,-0.0003,-0.0245,0.0163,-0.0425,0.0156,2.6769,1.3770,2.9420
2024-10-11T13:53:29.878Z,0.0344,-0.9792,0.1958,-0.0230,-0.0003,-0.0245,0.0135,-0.0376,0.0152,2.6769,1.3770,2.9420
2024-10-11T13:53:29.889Z,0.0273,-0.9785,0.1977,0.0830,-0.0228,-0.0701,0.0133,-0.0352,0.0121,2.6739,1.3766,2.9434
2024-10-11T13:53:29.898Z,0.0201,-0.9767,0.1983,0.0830,-0.0228,-0.0701,0.0082,-0.0321,0.0117,2.6739,1.3766,2.9434
2024-10-11T13:53:29.908Z,0.0196,-0.9773,0.2006,0.0830,-0.0228,-0.0701,0.0087,-0.0303,0.0111,2.6739,1.3766,2.9434
2024-10-11T13:53:29.918Z,0.0212,-0.9749,0.2007,0.1677,-0.0520,-0.1137,0.0050,-0.0279,0.0055,2.6720,1.3764,2.9441
2024-10-11T13:53:29.928Z,0.0147,-0.9738,0.2033,0.1677,-0.0520,-0.1137,0.0046,-0.0254,0.0028,2.6720,1.3764,2.9441
2024-10-11T13:53:29.939Z,0.0092,-0.9744,0.2026,0.1677,-0.0520,-0.1137,0.0041,-0.0245,0.0024,2.6720,1.3764,2.9441
2024-10-11T13:53:29.948Z,0.0095,-0.9751,0.1978,0.2793,-0.0628,-0.0925,0.0014,-0.0210,-0.0025,2.6713,1.3762,2.9438
2024-10-11T13:53:29.958Z,0.0086,-0.9773,0.1940,0.2793,-0.0628,-0.0925,-0.0004,-0.0192,-0.0059,2.6713,1.3762,2.9438
2024-10-11T13:53:29.968Z,0.0041,-0.9767,0.1897,0.2793,-0.0628,-0.0925,0.0006,-0.0113,-0.0100,2.6713,1.3762,2.9438
2024-10-11T13:53:29.978Z,0.0007,-0.9780,0.1868,0.3637,-0.0361,0.0204,0.0027,-0.0060,-0.0083,2.6717,1.3761,2.9426
2024-10-11T13:53:29.988Z,-0.0018,-0.9810,0.1833,0.3637,-0.0361,0.0204,0.0027,-0.0060,-0.0083,2.6717,1.3761,2.9426
2024-10-11T13:53:29.999Z,-0.0023,-0.9827,0.1841,0.3637,-0.0361,0.0204,0.0009,0.0070,-0.0113,2.6717,1.3761,2.9426
2024-10-11T13:53:30.008Z,-0.0042,-0.9822,0.1861,0.4059,0.0075,0.0453,0.0004,0.0142,-0.0137,2.6729,1.3760,2.9414
2024-10-11T13:53:30.019Z,-0.0074,-0.9855,0.1884,0.4059,0.0075,0.0453,-0.0023,0.0205,-0.0153,2.6729,1.3760,2.9414
2024-10-11T13:53:30.028Z,-0.0080,-0.9897,0.1864,0.4059,0.0075,0.0453,-0.0005,0.0233,-0.0160,2.6729,1.3760,2.9414
2024-10-11T13:53:30.039Z,-0.0064,-0.9948,0.1888,0.4540,0.1127,0.0147,-0.0012,0.0283,-0.0177,2.6748,1.3760,2.9398
2024-10-11T13:53:30.048Z,-0.0028,-0.9975,0.1870,0.4540,0.1127,0.0147,-0.0038,0.0354,-0.0237,2.6748,1.3760,2.9398
2024-10-11T13:53:30.058Z,0.0002,-1.0007,0.1849,0.4540,0.1127,0.0147,-0.0014,0.0488,-0.0226,2.6748,1.3760,2.9398
2024-10-11T13:53:30.068Z,0.0004,-1.0011,0.1852,0.3758,0.1991,0.0419,-0.0055,0.0591,-0.0247,2.6776,1.3759,2.9380
2024-10-11T13:53:30.078Z,-0.0007,-1.0003,0.1873,0.3758,0.1991,0.0419,-0.0058,0.0702,-0.0221,2.6776,1.3759,2.9380
2024-10-11T13:53:30.088Z,-0.0039,-0.9988,0.1923,0.3758,0.1991,0.0419,-0.0077,0.0802,-0.0235,2.6776,1.3759,2.9380
2024-10-11T13:53:30.098Z,-0.0046,-0.9982,0.1914,0.4265,0.1715,-0.0346,-0.0110,0.0922,-0.0250,2.6809,1.3760,2.9367
2024-10-11T13:53:30.108Z,-0.0102,-0.9969,0.1903,0.4265,0.1715,-0.0346,-0.0129,0.1058,-0.0225,2.6809,1.3760,2.9367
2024-10-11T13:53:30.118Z,-0.0102,-0.9939,0.1897,0.4265,0.1715,-0.0346,-0.0117,0.1185,-0.0251,2.6809,1.3760,2.9367
2024-10-11T13:53:30.128Z,-0.0155,-0.9955,0.1882,0.5122,0.1339,0.0008,-0.0124,0.1325,-0.0233,2.6843,1.3761,2.9364
2024-10-11T13:53:30.139Z,-0.0194,-0.9986,0.1833,0.5122,0.1339,0.0008,-0.0144,0.1515,-0.0236,2.6843,1.3761,2.9364
2024-10-11T13:53:30.148Z,-0.0247,-1.0006,0.1811,0.5122,0.1339,0.0008,-0.0162,0.1723,-0.0236,2.6843,1.3761,2.9364
2024-10-11T13:53:30.158Z,-0.0391,-1.0014,0.1900,0.7085,0.1970,0.0368,-0.0190,0.2008,-0.0248,2.6880,1.3764,2.9373
2024-10-11T13:53:30.168Z,-0.0558,-1.0022,0.1976,0.7085,0.1970,0.0368,-0.0187,0.2245,-0.0249,2.6880,1.3764,2.9373
2024-10-11T13:53:30.178Z,-0.0668,-1.0023,0.1995,0.7085,0.1970,0.0368,-0.0199,0.2530,-0.0264,2.6880,1.3764,2.9373
2024-10-11T13:53:30.189Z,-0.0716,-0.9987,0.1967,1.0728,0.1808,-0.0928,-0.0207,0.2723,-0.0276,2.6925,1.3768,2.9396
2024-10-11T13:53:30.198Z,-0.0658,-0.9921,0.1929,1.0728,0.1808,-0.0928,-0.0224,0.2860,-0.0316,2.6925,1.3768,2.9396
2024-10-11T13:53:30.208Z,-0.0528,-0.9848,0.1908,1.0728,0.1808,-0.0928,-0.0265,0.2945,-0.0335,2.6925,1.3768,2.9396
2024-10-11T13:53:30.218Z,-0.0422,-0.9808,0.1904,0.8158,0.0074,-0.0229,-0.0227,0.2942,-0.0366,2.6977,1.3773,2.9428
2024-10-11T13:53:30.228Z,-0.0308,-0.9774,0.1867,0.8158,0.0074,-0.0229,-0.0250,0.2899,-0.0433,2.6977,1.3773,2.9428
2024-10-11T13:53:30.239Z,-0.0110,-0.9761,0.1856,0.8158,0.0074,-0.0229,-0.0262,0.2713,-0.0469,2.6977,1.3773,2.9428
2024-10-11T13:53:30.248Z,0.0240,-0.9754,0.1828,0.2707,-0.0529,0.0425,-0.0259,0.2419,-0.0487,2.7046,1.3778,2.9442
2024-10-11T13:53:30.259Z,0.0620,-0.9755,0.1813,0.2707,-0.0529,0.0425,-0.0232,0.2046,-0.0545,2.7046,1.3778,2.9442
2024-10-11T13:53:30.268Z,0.0952,-0.9751,0.1786,0.2707,-0.0529,0.0425,-0.0250,0.1665,-0.0548,2.7046,1.3778,2.9442
2024-10-11T13:53:30.278Z,0.1185,-0.9828,0.1801,-0.7098,-0.0263,0.0702,-0.0229,0.1272,-0.0598,2.7131,1.3782,2.9415
2024-10-11T13:53:30.289Z,0.1406,-0.9835,0.1781,-0.7098,-0.0263,0.0702,-0.0225,0.0777,-0.0573,2.7131,1.3782,2.9415
2024-10-11T13:53:30.298Z,0.1686,-0.9808,0.1766,-0.7098,-0.0263,0.0702,-0.0234,0.0407,-0.0607,2.7131,1.3782,2.9415
2024-10-11T13:53:30.308Z,0.1648,-0.9747,0.1781,-1.3101,-0.0513,0.0933,-0.0176,0.0267,-0.0591,2.7226,1.3785,2.9341
2024-10-11T13:53:30.318Z,0.1308,-0.9734,0.1808,-1.3101,-0.0513,0.0933,-0.0155,0.0121,-0.0540,2.7226,1.3785,2.9341
2024-10-11T13:53:30.328Z,0.1248,-0.9687,0.1789,-1.3101,-0.0513,0.0933,-0.0163,-0.0052,-0.0500,2.7226,1.3785,2.9341
2024-10-11T13:53:30.338Z,0.1377,-0.9582,0.1750,-0.8855,-0.2082,0.1088,-0.0125,-0.0239,-0.0434,2.7312,1.3787,2.9257
2024-10-11T13:53:30.348Z,0.1512,-0.9563,0.1767,-0.8855,-0.2082,0.1088,-0.0122,-0.0356,-0.0383,2.7312,1.3787,2.9257
2024-10-11T13:53:30.358Z,0.1394,-0.9533,0.1755,-0.8855,-0.2082,0.1088,-0.0108,-0.0449,-0.0320,2.7312,1.3787,2.9257
2024-10-11T13:53:30.368Z,0.1378,-0.9569,0.1769,-0.9362,-0.2559,0.1013,-0.0072,-0.0516,-0.0248,2.7371,1.3788,2.9186
2024-10-11T13:53:30.377Z,0.1358,-0.9566,0.1776,-0.9362,-0.2559,0.1013,-0.0049,-0.0577,-0.0196,2.7371,1.3788,2.9186
2024-10-11T13:53:30.388Z,0.1378,-0.9614,0.1768,-0.9362,-0.2559,0.1013,-0.0043,-0.0656,-0.0126,2.7371,1.3788,2.9186
2024-10-11T13:53:30.398Z,0.1392,-0.9545,0.1632,-0.9158,-0.2050,0.1339,0.0072,-0.1152,-0.0068,2.7399,1.3788,2.9138
2024-10-11T13:53:30.408Z,0.2023,-0.9126,0.1172,-0.9158,-0.2050,0.1339,0.0133,-0.1176,-0.0065,2.7399,1.3788,2.9138
2024-10-11T13:53:30.418Z,0.1652,-0.9592,0.1475,-0.9158,-0.2050,0.1339,0.0159,-0.1323,-0.0040,2.7399,1.3788,2.9138
2024-10-11T13:53:30.428Z,0.1457,-0.9666,0.1269,-0.7521,0.0789,0.4880,0.0246,-0.1668,-0.0045,2.7402,1.3783,2.9094
2024-10-11T13:53:30.439Z,0.2054,-0.9516,0.1428,-0.7521,0.0789,0.4880,0.0245,-0.1690,-0.0034,2.7402,1.3783,2.9094
2024-10-11T13:53:30.448Z,0.1303,-0.9873,0.1691,-0.7521,0.0789,0.4880,0.0277,-0.1802,-0.0011,2.7402,1.3783,2.9094
2024-10-11T13:53:30.458Z,0.1413,-0.9572,0.1947,-0.9294,-0.1518,-0.0517,0.0378,-0.1591,-0.0013,2.7394,1.3775,2.9048
2024-10-11T13:53:30.468Z,0.0899,-0.9516,0.2044,-0.9294,-0.1518,-0.0517,0.0398,-0.1344,0.0020,2.7394,1.3775,2.9048
2024-10-11T13:53:30.477Z,0.0680,-0.9552,0.2283,-0.9294,-0.1518,-0.0517,0.0400,-0.0811,0.0073,2.7394,1.3775,2.9048
2024-10-11T13:53:30.488Z,0.0135,-0.9673,0.2342,0.0796,-0.1640,-0.4780,0.0362,-0.0408,0.0144,2.7374,1.3764,2.9031
2024-10-11T13:53:30.498Z,-0.0063,-0.9776,0.2239,0.0796,-0.1640,-0.4780,0.0313,-0.0156,0.0219,2.7374,1.3764,2.9031
2024-10-11T13:53:30.507Z,0.0160,-0.9913,0.1956,0.0796,-0.1640,-0.4780,0.0246,0.0048,0.0284,2.7374,1.3764,2.9031
2024-10-11T13:53:30.517Z,0.0217,-0.9835,0.1731,0.2368,0.0311,0.0960,0.0224,0.0384,0.0269,2.7329,1.3757,2.9069
2024-10-11T13:53:30.527Z,-0.0004,-0.9948,0.1684,0.2368,0.0311,0.0960,0.0190,0.0889,0.0270,2.7329,1.3757,2.9069
2024-10-11T13:53:30.538Z,-0.0516,-1.0106,0.1769,0.2368,0.0311,0.0960,0.0157,0.1362,0.0280,2.7329,1.3757,2.9069
2024-10-11T13:53:30.548Z,-0.0676,-1.0191,0.1826,1.0822,0.3602,0.0748,0.0107,0.1743,0.0263,2.7281,1.3753,2.9144
2024-10-11T13:53:30.557Z,-0.0547,-1.0204,0.1767,1.0822,0.3602,0.0748,0.0077,0.1981,0.0248,2.7281,1.3753,2.9144
2024-10-11T13:53:30.568Z,-0.0430,-1.0240,0.1949,1.0822,0.3602,0.0748,0.0038,0.2283,0.0243,2.7281,1.3753,2.9144
2024-10-11T13:53:30.578Z,-0.0474,-1.0216,0.1810,0.8606,0.4209,0.0253,0.0037,0.2528,0.0218,2.7240,1.3753,2.9244
2024-10-11T13:53:30.588Z,-0.0477,-1.0177,0.1828,0.8606,0.4209,0.0253,0.0011,0.2739,0.0177,2.7240,1.3753,2.9244
2024-10-11T13:53:30.598Z,-0.0518,-1.0115,0.1834,0.8606,0.4209,0.0253,-0.0009,0.2908,0.0147,2.7240,1.3753,2.9244
2024-10-11T13:53:30.607Z,-0.0485,-1.0045,0.1767,0.8942,0.2508,0.0998,0.0029,0.3059,0.0110,2.7212,1.3753,2.9351
2024-10-11T13:53:30.618Z,-0.0370,-0.9981,0.1692,0.8942,0.2508,0.0998,0.0004,0.3159,0.0079,2.7212,1.3753,2.9351
2024-10-11T13:53:30.628Z,-0.0315,-0.9970,0.1664,0.8942,0.2508,0.0998,0.0026,0.3276,0.0030,2.7212,1.3753,2.9351
2024-10-11T13:53:30.639Z,-0.0363,-0.9981,0.1670,0.7043,0.1700,0.2179,0.0035,0.3399,0.0012,2.7200,1.3753,2.9457
2024-10-11T13:53:30.648Z,-0.0378,-0.9936,0.1705,0.7043,0.1700,0.2179,-0.0008,0.3754,-0.0035,2.7200,1.3753,2.9457
2024-10-11T13:53:30.657Z,-0.0269,-0.9943,0.1736,0.7043,0.1700,0.2179,0.0064,0.3541,-0.0046,2.7200,1.3753,2.9457
2024-10-11T13:53:30.668Z,-0.0211,-0.9884,0.1775,0.5445,0.0822,0.1764,0.0034,0.3589,-0.0085,2.7201,1.3751,2.9556
2024-10-11T13:53:30.678Z,-0.0359,-0.9887,0.1761,0.5445,0.0822,0.1764,0.0045,0.3673,-0.0153,2.7201,1.3751,2.9556
2024-10-11T13:53:30.689Z,-0.0409,-0.9945,0.1763,0.5445,0.0822,0.1764,0.0005,0.3793,-0.0195,2.7201,1.3751,2.9556
2024-10-11T13:53:30.698Z,-0.0452,-0.9962,0.1801,0.7665,0.1713,0.1286,0.0028,0.3832,-0.0176,2.7221,1.3749,2.9647
2024-10-11T13:53:30.707Z,-0.0464,-0.9903,0.1857,0.7665,0.1713,0.1286,-0.0032,0.3881,-0.0232,2.7221,1.3749,2.9647
2024-10-11T13:53:30.718Z,-0.0480,-0.9989,0.1939,0.7665,0.1713,0.1286,-0.0025,0.3959,-0.0263,2.7221,1.3749,2.9647
2024-10-11T13:53:30.728Z,-0.0470,-0.9849,0.1933,0.8020,0.0780,-0.0009,-0.0062,0.4015,-0.0309,2.7258,1.3748,2.9726
2024-10-11T13:53:30.738Z,-0.0451,-0.9821,0.1921,0.8020,0.0780,-0.0009,-0.0114,0.4107,-0.0352,2.7258,1.3748,2.9726
2024-10-11T13:53:30.748Z,-0.0455,-0.9842,0.1981,0.8020,0.0780,-0.0009,-0.0086,0.4195,-0.0390,2.7258,1.3748,2.9726
2024-10-11T13:53:30.758Z,-0.0451,-0.9820,0.1974,0.7504,-0.0049,-0.0160,-0.0128,0.4334,-0.0406,2.7313,1.3749,2.9793
2024-10-11T13:53:30.768Z,-0.0518,-0.9884,0.1920,0.7504,-0.0049,-0.0160,-0.0138,0.4513,-0.0436,2.7313,1.3749,2.9793
2024-10-11T13:53:30.778Z,-0.0535,-0.9842,0.2020,0.7504,-0.0049,-0.0160,-0.0174,0.4578,-0.0438,2.7313,1.3749,2.9793
2024-10-11T13:53:30.788Z,-0.0329,-0.9865,0.1977,0.7100,0.0806,-0.0877,-0.0193,0.4556,-0.0437,2.7379,1.3752,2.9860
2024-10-11T13:53:30.798Z,-0.0155,-0.9803,0.2071,0.7100,0.0806,-0.0877,-0.0232,0.4566,-0.0482,2.7379,1.3752,2.9860
2024-10-11T13:53:30.808Z,-0.0087,-0.9791,0.2049,0.7100,0.0806,-0.0877,-0.0246,0.4491,-0.0492,2.7379,1.3752,2.9860
2024-10-11T13:53:30.818Z,-0.0012,-0.9746,0.2016,0.3239,-0.0383,-0.1073,-0.0248,0.4401,-0.0553,2.7453,1.3756,2.9920
2024-10-11T13:53:30.828Z,0.0123,-0.9747,0.2055,0.3239,-0.0383,-0.1073,-0.0263,0.4208,-0.0564,2.7453,1.3756,2.9920
2024-10-11T13:53:30.838Z,0.0288,-0.9704,0.2019,0.3239,-0.0383,-0.1073,-0.0226,0.4037,-0.0607,2.7453,1.3756,2.9920
2024-10-11T13:53:30.848Z,0.0401,-0.9619,0.1973,-0.0841,-0.1654,-0.0835,-0.0209,0.3782,-0.0596,2.7542,1.3760,2.9954
2024-10-11T13:53:30.858Z,0.0549,-0.9702,0.2092,-0.0841,-0.1654,-0.0835,-0.0188,0.3528,-0.0656,2.7542,1.3760,2.9954
2024-10-11T13:53:30.868Z,0.0623,-0.9629,0.2039,-0.0841,-0.1654,-0.0835,-0.0190,0.3263,-0.0660,2.7542,1.3760,2.9954
2024-10-11T13:53:30.878Z,0.0728,-0.9535,0.2043,-0.3716,-0.2851,-0.0836,-0.0140,0.2924,-0.0707,2.7643,1.3763,2.9956
2024-10-11T13:53:30.889Z,0.0996,-0.9644,0.2141,-0.3716,-0.2851,-0.0836,-0.0167,0.2546,-0.0723,2.7643,1.3763,2.9956
2024-10-11T13:53:30.898Z,0.1128,-0.9574,0.2124,-0.3716,-0.2851,-0.0836,-0.0173,0.2050,-0.0761,2.7643,1.3763,2.9956
2024-10-11T13:53:30.907Z,0.1468,-0.9635,0.2188,-1.0281,-0.2224,-0.2565,-0.0166,0.1689,-0.0771,2.7756,1.3765,2.9915
2024-10-11T13:53:30.918Z,0.1522,-0.9701,0.2174,-1.0281,-0.2224,-0.2565,-0.0178,0.1334,-0.0781,2.7756,1.3765,2.9915
2024-10-11T13:53:30.928Z,0.1557,-0.9646,0.2141,-1.0281,-0.2224,-0.2565,-0.0178,0.0908,-0.0780,2.7756,1.3765,2.9915
2024-10-11T13:53:30.938Z,0.1747,-0.9694,0.2106,-1.3705,-0.1290,-0.1964,-0.0178,0.0548,-0.0755,2.7875,1.3766,2.9833
2024-10-11T13:53:30.948Z,0.1824,-0.9657,0.2127,-1.3705,-0.1290,-0.1964,-0.0142,0.0216,-0.0751,2.7875,1.3766,2.9833
2024-10-11T13:53:30.958Z,0.1837,-0.9659,0.2017,-1.3705,-0.1290,-0.1964,-0.0145,0.0065,-0.0738,2.7875,1.3766,2.9833
2024-10-11T13:53:30.967Z,0.1674,-0.9695,0.1933,-1.3876,-0.1232,-0.0694,-0.0133,-0.0111,-0.0691,2.7990,1.3767,2.9724
2024-10-11T13:53:30.977Z,0.1571,-0.9662,0.1898,-1.3876,-0.1232,-0.0694,-0.0102,-0.0281,-0.0660,2.7990,1.3767,2.9724
2024-10-11T13:53:30.988Z,0.1631,-0.9662,0.1835,-1.3876,-0.1232,-0.0694,-0.0038,-0.0445,-0.0637,2.7990,1.3767,2.9724
2024-10-11T13:53:30.998Z,0.1607,-0.9631,0.1770,-1.2611,-0.1613,0.1090,-0.0034,-0.0575,-0.0591,2.8091,1.3766,2.9612
2024-10-11T13:53:31.008Z,0.1540,-0.9614,0.1795,-1.2611,-0.1613,0.1090,-0.0005,-0.0684,-0.0557,2.8091,1.3766,2.9612
2024-10-11T13:53:31.018Z,0.1505,-0.9566,0.1802,-1.2611,-0.1613,0.1090,0.0048,-0.0937,-0.0510,2.8091,1.3766,2.9612
2024-10-11T13:53:31.028Z,0.1774,-0.9394,0.1826,-1.1980,-0.3312,0.0915,0.0181,-0.1390,-0.0444,2.8173,1.3762,2.9506
2024-10-11T13:53:31.038Z,0.2287,-0.9231,0.1739,-1.1980,-0.3312,0.0915,0.0221,-0.1626,-0.0446,2.8173,1.3762,2.9506
2024-10-11T13:53:31.048Z,0.2204,-0.9105,0.1401,-1.1980,-0.3312,0.0915,0.0244,-0.1806,-0.0388,2.8173,1.3762,2.9506
2024-10-11T13:53:31.058Z,0.2184,-0.9548,0.1444,-1.8830,-0.5059,0.5106,0.0239,-0.1541,-0.0367,2.8232,1.3753,2.9397
2024-10-11T13:53:31.068Z,0.1265,-1.0067,0.1693,-1.8830,-0.5059,0.5106,0.0209,-0.1219,-0.0330,2.8232,1.3753,2.9397
2024-10-11T13:53:31.078Z,0.0836,-0.9810,0.1621,-1.8830,-0.5059,0.5106,0.0269,-0.0992,-0.0231,2.8232,1.3753,2.9397
2024-10-11T13:53:31.089Z,0.0803,-0.9720,0.1516,-0.3723,-0.1163,0.3541,0.0366,-0.0811,-0.0169,2.8265,1.3744,2.9325
2024-10-11T13:53:31.098Z,0.0732,-0.9508,0.1415,-0.3723,-0.1163,0.3541,0.0395,-0.0599,-0.0123,2.8265,1.3744,2.9325
2024-10-11T13:53:31.108Z,0.0414,-0.9642,0.1682,-0.3723,-0.1163,0.3541,0.0457,-0.0133,-0.0089,2.8265,1.3744,2.9325
2024-10-11T13:53:31.118Z,-0.0294,-0.9825,0.1852,0.3883,0.0199,0.1241,0.0472,0.0375,-0.0089,2.8268,1.3731,2.9308
2024-10-11T13:53:31.129Z,-0.0765,-0.9855,0.1897,0.3883,0.0199,0.1241,0.0468,0.0846,-0.0125,2.8268,1.3731,2.9308
2024-10-11T13:53:31.140Z,-0.0922,-0.9949,0.1960,0.3883,0.0199,0.1241,0.0454,0.1268,-0.0145,2.8268,1.3731,2.9308
2024-10-11T13:53:31.148Z,-0.1147,-0.9933,0.1971,1.4803,0.1286,-0.0232,0.0447,0.1610,-0.0212,2.8269,1.3716,2.9331
2024-10-11T13:53:31.158Z,-0.1186,-1.0010,0.2044,1.4803,0.1286,-0.0232,0.0409,0.1944,-0.0267,2.8269,1.3716,2.9331
2024-10-11T13:53:31.168Z,-0.1263,-1.0073,0.2123,1.4803,0.1286,-0.0232,0.0379,0.2230,-0.0338,2.8269,1.3716,2.9331
2024-10-11T13:53:31.178Z,-0.1202,-1.0117,0.2109,1.6159,0.2944,-0.1571,0.0307,0.2447,-0.0429,2.8299,1.3702,2.9359
2024-10-11T13:53:31.188Z,-0.1114,-1.0128,0.2070,1.6159,0.2944,-0.1571,0.0259,0.2623,-0.0523,2.8299,1.3702,2.9359
2024-10-11T13:53:31.198Z,-0.1048,-1.0093,0.2013,1.6159,0.2944,-0.1571,0.0221,0.2872,-0.0582,2.8299,1.3702,2.9359
2024-10-11T13:53:31.208Z,-0.0946,-1.0107,0.2045,1.3682,0.2937,-0.0830,0.0211,0.3096,-0.0660,2.8366,1.3692,2.9371
2024-10-11T13:53:31.218Z,-0.0847,-1.0081,0.2031,1.3682,0.2937,-0.0830,0.0196,0.3290,-0.0692,2.8366,1.3692,2.9371
2024-10-11T13:53:31.228Z,-0.0707,-1.0068,0.1978,1.3682,0.2937,-0.0830,0.0177,0.3530,-0.0715,2.8366,1.3692,2.9371
2024-10-11T13:53:31.239Z,-0.0501,-1.0078,0.1971,0.9642,0.2805,0.0063,0.0172,0.3717,-0.0719,2.8460,1.3681,2.9376
2024-10-11T13:53:31.248Z,-0.0332,-1.0086,0.1915,0.9642,0.2805,0.0063,0.0093,0.4100,-0.0711,2.8460,1.3681,2.9376
2024-10-11T13:53:31.258Z,-0.0020,-1.0099,0.1908,0.9642,0.2805,0.0063,0.0125,0.4195,-0.0701,2.8460,1.3681,2.9376
2024-10-11T13:53:31.268Z,-0.0001,-1.0077,0.1863,0.4132,0.2905,0.0995,0.0113,0.4318,-0.0652,2.8552,1.3673,2.9400
2024-10-11T13:53:31.278Z,0.0156,-1.0111,0.1883,0.4132,0.2905,0.0995,0.0082,0.4419,-0.0591,2.8552,1.3673,2.9400
2024-10-11T13:53:31.289Z,0.0341,-1.0120,0.1935,0.4132,0.2905,0.0995,0.0099,0.4381,-0.0520,2.8552,1.3673,2.9400
2024-10-11T13:53:31.298Z,0.0528,-1.0125,0.1929,-0.0469,0.3178,0.0598,0.0049,0.4357,-0.0455,2.8627,1.3666,2.9452
2024-10-11T13:53:31.308Z,0.0712,-1.0129,0.1972,-0.0469,0.3178,0.0598,0.0042,0.4270,-0.0420,2.8627,1.3666,2.9452
2024-10-11T13:53:31.318Z,0.0806,-1.0070,0.1947,-0.0469,0.3178,0.0598,0.0052,0.4194,-0.0348,2.8627,1.3666,2.9452
2024-10-11T13:53:31.328Z,0.0884,-1.0021,0.1989,-0.4726,0.2432,0.0260,0.0024,0.4116,-0.0323,2.8682,1.3663,2.9524
2024-10-11T13:53:31.339Z,0.0909,-0.9942,0.1949,-0.4726,0.2432,0.0260,0.0022,0.4062,-0.0279,2.8682,1.3663,2.9524
2024-10-11T13:53:31.348Z,0.0991,-0.9855,0.1968,-0.4726,0.2432,0.0260,-0.0012,0.3987,-0.0230,2.8682,1.3663,2.9524
2024-10-11T13:53:31.359Z,0.1003,-0.9794,0.2009,-0.6290,0.0096,0.0105,-0.0046,0.3954,-0.0187,2.8718,1.3661,2.9608
2024-10-11T13:53:31.368Z,0.0934,-0.9771,0.2065,-0.6290,0.0096,0.0105,-0.0059,0.3881,-0.0091,2.8718,1.3661,2.9608
2024-10-11T13:53:31.378Z,0.1008,-0.9655,0.2066,-0.6290,0.0096,0.0105,-0.0105,0.3820,-0.0035,2.8718,1.3661,2.9608
2024-10-11T13:53:31.389Z,0.1072,-0.9582,0.2140,-0.7068,-0.1802,-0.1081,-0.0084,0.3718,0.0056,2.8729,1.3663,2.9709
2024-10-11T13:53:31.398Z,0.1081,-0.9544,0.2161,-0.7068,-0.1802,-0.1081,-0.0158,0.3684,0.0149,2.8729,1.3663,2.9709
2024-10-11T13:53:31.408Z,0.1119,-0.9518,0.2140,-0.7068,-0.1802,-0.1081,-0.0150,0.3560,0.0212,2.8729,1.3663,2.9709
2024-10-11T13:53:31.418Z,0.1094,-0.9521,0.2158,-0.7859,-0.2719,-0.1566,-0.0197,0.3453,0.0256,2.8709,1.3667,2.9835
2024-10-11T13:53:31.428Z,0.1033,-0.9535,0.2135,-0.7859,-0.2719,-0.1566,-0.0191,0.3388,0.0283,2.8709,1.3667,2.9835
2024-10-11T13:53:31.441Z,0.0923,-0.9584,0.2153,-0.5554,-0.1611,-0.1643,-0.0231,0.3280,0.0321,2.8670,1.3675,2.9971
2024-10-11T13:53:31.448Z,0.0842,-0.9644,0.2174,-0.5554,-0.1611,-0.1643,-0.0218,0.3146,0.0326,2.8670,1.3675,2.9971
2024-10-11T13:53:31.458Z,0.0854,-0.9693,0.2126,-0.5554,-0.1611,-0.1643,-0.0269,0.3006,0.0317,2.8670,1.3675,2.9971
2024-10-11T13:53:31.468Z,0.0731,-0.9738,0.2088,-0.5554,-0.1611,-0.1643,-0.0261,0.2818,0.0273,2.8670,1.3675,2.9971
2024-10-11T13:53:31.478Z,0.0564,-0.9771,0.2109,-0.3432,-0.0330,-0.1137,-0.0289,0.2643,0.0267,2.8629,1.3684,3.0097
2024-10-11T13:53:31.489Z,0.0491,-0.9782,0.2088,-0.3432,-0.0330,-0.1137,-0.0329,0.2449,0.0222,2.8629,1.3684,3.0097
2024-10-11T13:53:31.498Z,0.0413,-0.9791,0.2155,-0.3432,-0.0330,-0.1137,-0.0328,0.2264,0.0168,2.8629,1.3684,3.0097
2024-10-11T13:53:31.508Z,0.0350,-0.9800,0.2148,-0.1371,0.0034,-0.1706,-0.0356,0.2056,0.0118,2.8603,1.3693,3.0192
2024-10-11T13:53:31.519Z,0.0246,-0.9775,0.2165,-0.1371,0.0034,-0.1706,-0.0369,0.1854,0.0060,2.8603,1.3693,3.0192
2024-10-11T13:53:31.527Z,0.0246,-0.9775,0.2165,-0.1371,0.0034,-0.1706,-0.0340,0.1642,-0.0010,2.8603,1.3693,3.0192
2024-10-11T13:53:31.539Z,0.0170,-0.9787,0.2094,0.0120,-0.0174,-0.1460,-0.0336,0.1388,-0.0060,2.8605,1.3704,3.0242
2024-10-11T13:53:31.548Z,0.0148,-0.9796,0.2053,0.0120,-0.0174,-0.1460,-0.0287,0.1242,-0.0096,2.8605,1.3704,3.0242
2024-10-11T13:53:31.558Z,0.0055,-0.9776,0.1970,0.0120,-0.0174,-0.1460,-0.0303,0.1314,-0.0197,2.8605,1.3704,3.0242
2024-10-11T13:53:31.568Z,-0.0105,-0.9805,0.1901,0.2660,-0.0172,0.0364,-0.0280,0.1327,-0.0244,2.8635,1.3713,3.0257
2024-10-11T13:53:31.579Z,-0.0038,-0.9808,0.1734,0.2660,-0.0172,0.0364,-0.0186,0.1316,-0.0288,2.8635,1.3713,3.0257
2024-10-11T13:53:31.592Z,-0.0012,-0.9820,0.1734,0.2579,0.0207,0.2383,-0.0161,0.1234,-0.0332,2.8681,1.3718,3.0247
2024-10-11T13:53:31.598Z,-0.0012,-0.9820,0.1734,0.2579,0.0207,0.2383,-0.0152,0.1100,-0.0400,2.8681,1.3718,3.0247
2024-10-11T13:53:31.609Z,0.0112,-0.9843,0.1809,0.2579,0.0207,0.2383,-0.0098,0.0992,-0.0432,2.8681,1.3718,3.0247
2024-10-11T13:53:31.619Z,0.0247,-0.9845,0.1837,0.2579,0.0207,0.2383,-0.0061,0.0871,-0.0498,2.8681,1.3718,3.0247
2024-10-11T13:53:31.629Z,0.0380,-0.9832,0.1810,0.0469,0.0361,0.1291,-0.0023,0.0741,-0.0570,2.8750,1.3719,3.0205
2024-10-11T13:53:31.640Z,0.0427,-0.9848,0.1819,0.0469,0.0361,0.1291,-0.0023,0.0618,-0.0607,2.8750,1.3719,3.0205
2024-10-11T13:53:31.648Z,0.0427,-0.9848,0.1819,0.0469,0.0361,0.1291,0.0010,0.0510,-0.0636,2.8750,1.3719,3.0205
2024-10-11T13:53:31.659Z,0.0489,-0.9864,0.1868,-0.1743,0.0541,0.1531,0.0023,0.0430,-0.0683,2.8842,1.3716,3.0131
2024-10-11T13:53:31.669Z,0.0545,-0.9829,0.1848,-0.1743,0.0541,0.1531,0.0039,0.0326,-0.0711,2.8842,1.3716,3.0131
2024-10-11T13:53:31.678Z,0.0527,-0.9823,0.1837,-0.1743,0.0541,0.1531,0.0086,0.0306,-0.0728,2.8842,1.3716,3.0131
2024-10-11T13:53:31.690Z,0.0490,-0.9779,0.1801,-0.2617,0.0238,0.1271,0.0077,0.0289,-0.0746,2.8947,1.3712,3.0035
2024-10-11T13:53:31.698Z,0.0490,-0.9779,0.1801,-0.2617,0.0238,0.1271,0.0099,0.0282,-0.0755,2.8947,1.3712,3.0035
2024-10-11T13:53:31.709Z,0.0523,-0.9687,0.1694,-0.2617,0.0238,0.1271,0.0154,0.0276,-0.0735,2.8947,1.3712,3.0035
2024-10-11T13:53:31.718Z,0.0472,-0.9677,0.1733,-0.2191,-0.0991,0.2713,0.0156,0.0236,-0.0727,2.9053,1.3705,2.9937
2024-10-11T13:53:31.729Z,0.0487,-0.9681,0.1814,-0.2191,-0.0991,0.2713,0.0188,0.0211,-0.0745,2.9053,1.3705,2.9937
2024-10-11T13:53:31.739Z,0.0578,-0.9676,0.1911,-0.2191,-0.0991,0.2713,0.0181,0.0158,-0.0718,2.9053,1.3705,2.9937
2024-10-11T13:53:31.748Z,0.0578,-0.9676,0.1911,-0.2262,-0.1212,0.0874,0.0199,0.0129,-0.0744,2.9157,1.3697,2.9839
2024-10-11T13:53:31.759Z,0.0603,-0.9632,0.1959,-0.2262,-0.1212,0.0874,0.0180,0.0107,-0.0780,2.9157,1.3697,2.9839
2024-10-11T13:53:31.770Z,0.0554,-0.9647,0.1983,-0.2363,-0.1467,-0.0005,0.0214,0.0096,-0.0759,2.9261,1.3687,2.9737
2024-10-11T13:53:31.778Z,0.0554,-0.9647,0.1983,-0.2363,-0.1467,-0.0005,0.0195,0.0111,-0.0773,2.9261,1.3687,2.9737
2024-10-11T13:53:31.789Z,0.0435,-0.9627,0.2018,-0.2363,-0.1467,-0.0005,0.0184,0.0125,-0.0772,2.9261,1.3687,2.9737
2024-10-11T13:53:31.798Z,0.0435,-0.9627,0.2018,-0.2363,-0.1467,-0.0005,0.0230,0.0194,-0.0791,2.9261,1.3687,2.9737
2024-10-11T13:53:31.809Z,0.0335,-0.9762,0.2058,-0.0873,-0.1218,-0.0359,0.0195,0.0281,-0.0828,2.9371,1.3676,2.9632
2024-10-11T13:53:31.819Z,0.0251,-0.9815,0.2029,-0.0873,-0.1218,-0.0359,0.0180,0.0392,-0.0841,2.9371,1.3676,2.9632
2024-10-11T13:53:31.829Z,0.0237,-0.9845,0.2057,-0.0873,-0.1218,-0.0359,0.0161,0.0475,-0.0833,2.9371,1.3676,2.9632
2024-10-11T13:53:31.838Z,0.0361,-0.9829,0.2101,0.1522,0.0431,-0.0457,0.0134,0.0557,-0.0845,2.9486,1.3666,2.9529
2024-10-11T13:53:31.848Z,0.0451,-0.9882,0.2142,0.1522,0.0431,-0.0457,0.0111,0.0681,-0.0822,2.9486,1.3666,2.9529
2024-10-11T13:53:31.860Z,0.0451,-0.9882,0.2142,-0.0687,0.0931,-0.0974,0.0076,0.0846,-0.0784,2.9597,1.3658,2.9440
2024-10-11T13:53:31.868Z,0.0615,-0.9735,0.1943,-0.0687,0.0931,-0.0974,0.0076,0.0976,-0.0748,2.9597,1.3658,2.9440
2024-10-11T13:53:31.878Z,0.0809,-0.9712,0.1898,-0.0687,0.0931,-0.0974,0.0056,0.1069,-0.0704,2.9597,1.3658,2.9440
2024-10-11T13:53:31.888Z,0.0848,-0.9767,0.1906,-0.0687,0.0931,-0.0974,0.0074,0.1200,-0.0605,2.9597,1.3658,2.9440
2024-10-11T13:53:31.898Z,0.0921,-0.9867,0.1955,-0.4208,-0.0402,0.0836,0.0072,0.1350,-0.0565,2.9691,1.3652,2.9378
2024-10-11T13:53:31.907Z,0.0921,-0.9867,0.1955,-0.4208,-0.0402,0.0836,0.0025,0.1479,-0.0505,2.9691,1.3652,2.9378
2024-10-11T13:53:31.918Z,0.0853,-0.9991,0.1989,-0.4208,-0.0402,0.0836,0.0010,0.1672,-0.0423,2.9691,1.3652,2.9378
2024-10-11T13:53:31.928Z,0.0938,-0.9978,0.1918,-0.4305,0.1896,0.0088,0.0031,0.1758,-0.0331,2.9756,1.3648,2.9358
2024-10-11T13:53:31.938Z,0.0976,-0.9891,0.1821,-0.4305,0.1896,0.0088,0.0016,0.1830,-0.0252,2.9756,1.3648,2.9358
2024-10-11T13:53:31.948Z,0.0955,-0.9895,0.1848,-0.4305,0.1896,0.0088,0.0004,0.1922,-0.0178,2.9756,1.3648,2.9358
2024-10-11T13:53:31.958Z,0.0955,-0.9895,0.1848,-0.5393,0.0945,0.1657,-0.0014,0.2091,-0.0132,2.9790,1.3646,2.9378
2024-10-11T13:53:31.968Z,0.0826,-0.9816,0.1862,-0.5393,0.0945,0.1657,0.0017,0.2239,-0.0046,2.9790,1.3646,2.9378
2024-10-11T13:53:31.979Z,0.0936,-0.9747,0.1858,-0.4959,-0.0228,0.1513,-0.0034,0.2359,0.0041,2.9791,1.3645,2.9442
2024-10-11T13:53:31.988Z,0.0944,-0.9717,0.1856,-0.4959,-0.0228,0.1513,-0.0011,0.2479,0.0130,2.9791,1.3645,2.9442
2024-10-11T13:53:31.998Z,0.0958,-0.9723,0.1876,-0.4959,-0.0228,0.1513,-0.0017,0.2653,0.0237,2.9791,1.3645,2.9442
2024-10-11T13:53:32.008Z,0.0974,-0.9737,0.1898,-0.4959,-0.0228,0.1513,-0.0060,0.2806,0.0329,2.9791,1.3645,2.9442
2024-10-11T13:53:32.018Z,0.0969,-0.9765,0.1896,-0.5777,-0.0533,0.1218,-0.0071,0.2948,0.0429,2.9754,1.3648,2.9556
2024-10-11T13:53:32.028Z,0.0977,-0.9815,0.1949,-0.5777,-0.0533,0.1218,-0.0086,0.3029,0.0524,2.9754,1.3648,2.9556
2024-10-11T13:53:32.038Z,0.0920,-0.9871,0.1946,-0.5777,-0.0533,0.1218,-0.0070,0.3114,0.0590,2.9754,1.3648,2.9556
2024-10-11T13:53:32.048Z,0.0867,-0.9934,0.1898,-0.5792,0.0481,0.0570,-0.0095,0.3127,0.0664,2.9679,1.3653,2.9718
2024-10-11T13:53:32.058Z,0.0827,-0.9993,0.1890,-0.5792,0.0481,0.0570,-0.0102,0.3053,0.0702,2.9679,1.3653,2.9718
2024-10-11T13:53:32.068Z,0.0782,-1.0060,0.1926,-0.5792,0.0481,0.0570,-0.0101,0.2939,0.0665,2.9679,1.3653,2.9718
2024-10-11T13:53:32.078Z,0.0777,-1.0072,0.1951,-0.4775,0.2420,0.0999,-0.0148,0.2755,0.0656,2.9583,1.3659,2.9900
2024-10-11T13:53:32.088Z,0.0730,-1.0119,0.1997,-0.4775,0.2420,0.0999,-0.0175,0.2487,0.0603,2.9583,1.3659,2.9900
2024-10-11T13:53:32.098Z,0.0671,-1.0104,0.1998,-0.4775,0.2420,0.0999,-0.0213,0.2180,0.0542,2.9583,1.3659,2.9900
2024-10-11T13:53:32.109Z,0.0769,-1.0073,0.2031,-0.3898,0.3245,0.0199,-0.0255,0.1743,0.0442,2.9501,1.3667,3.0048
2024-10-11T13:53:32.118Z,0.0925,-0.9984,0.2044,-0.3898,0.3245,0.0199,-0.0291,0.1233,0.0370,2.9501,1.3667,3.0048
2024-10-11T13:53:32.129Z,0.1002,-0.9900,0.2110,-0.7302,0.1332,-0.0906,-0.0343,0.0677,0.0242,2.9460,1.3677,3.0119
2024-10-11T13:53:32.138Z,0.0924,-0.9847,0.2195,-0.7302,0.1332,-0.0906,-0.0446,0.0542,0.0116,2.9460,1.3677,3.0119
2024-10-11T13:53:32.148Z,0.1036,-0.9816,0.2197,-0.7302,0.1332,-0.0906,-0.0405,-0.0016,0.0096,2.9460,1.3677,3.0119
2024-10-11T13:53:32.159Z,0.0850,-0.9774,0.2144,-0.7302,0.1332,-0.0906,-0.0399,-0.0424,0.0013,2.9460,1.3677,3.0119
2024-10-11T13:53:32.168Z,0.1143,-0.9978,0.2169,-0.6083,-0.0161,-0.1497,-0.0361,-0.1057,-0.0027,2.9453,1.3687,3.0111
2024-10-11T13:53:32.178Z,0.1223,-1.0132,0.2062,-0.6083,-0.0161,-0.1497,-0.0401,-0.1544,-0.0068,2.9453,1.3687,3.0111
2024-10-11T13:53:32.190Z,0.1081,-1.0141,0.1984,-0.8375,0.3394,-0.0404,-0.0442,-0.1799,-0.0122,2.9477,1.3700,3.0045
2024-10-11T13:53:32.198Z,0.1020,-1.0109,0.1880,-0.8375,0.3394,-0.0404,-0.0454,-0.1983,-0.0184,2.9477,1.3700,3.0045
2024-10-11T13:53:32.208Z,0.0846,-1.0063,0.1837,-0.8375,0.3394,-0.0404,-0.0411,-0.2093,-0.0188,2.9477,1.3700,3.0045
2024-10-11T13:53:32.219Z,0.0842,-1.0087,0.1915,-0.5352,0.2706,0.0629,-0.0417,-0.2184,-0.0149,2.9510,1.3711,2.9946
2024-10-11T13:53:32.229Z,0.0798,-1.0037,0.1998,-0.5352,0.2706,0.0629,-0.0385,-0.2212,-0.0154,2.9510,1.3711,2.9946
2024-10-11T13:53:32.239Z,0.0707,-1.0033,0.2088,-0.5352,0.2706,0.0629,-0.0338,-0.2251,-0.0107,2.9510,1.3711,2.9946
2024-10-11T13:53:32.248Z,0.0694,-0.9919,0.2106,-0.5352,0.2706,0.0629,-0.0341,-0.2270,-0.0108,2.9510,1.3711,2.9946
2024-10-11T13:53:32.259Z,0.0672,-0.9874,0.2177,-0.3735,0.1589,-0.1350,-0.0294,-0.2304,-0.0056,2.9532,1.3720,2.9853
2024-10-11T13:53:32.268Z,0.0562,-0.9866,0.2210,-0.3735,0.1589,-0.1350,-0.0211,-0.2310,-0.0051,2.9532,1.3720,2.9853
2024-10-11T13:53:32.279Z,0.0532,-0.9844,0.2217,-0.2088,0.0448,-0.2659,-0.0186,-0.2272,-0.0074,2.9544,1.3725,2.9770
2024-10-11T13:53:32.288Z,0.0543,-0.9803,0.2296,-0.2088,0.0448,-0.2659,-0.0152,-0.2267,-0.0098,2.9544,1.3725,2.9770
2024-10-11T13:53:32.298Z,0.0556,-0.9780,0.2328,-0.2088,0.0448,-0.2659,-0.0132,-0.2274,-0.0084,2.9544,1.3725,2.9770
2024-10-11T13:53:32.309Z,0.0556,-0.9780,0.2328,-0.2082,-0.0261,-0.4130,-0.0122,-0.2182,-0.0122,2.9559,1.3728,2.9684
2024-10-11T13:53:32.318Z,0.0662,-0.9731,0.2349,-0.2082,-0.0261,-0.4130,-0.0063,-0.2162,-0.0070,2.9559,1.3728,2.9684
2024-10-11T13:53:32.328Z,0.0675,-0.9736,0.2302,-0.2082,-0.0261,-0.4130,-0.0066,-0.2168,-0.0060,2.9559,1.3728,2.9684
2024-10-11T13:53:32.339Z,0.0664,-0.9684,0.2286,-0.3042,-0.1048,-0.3440,-0.0051,-0.2102,-0.0048,2.9569,1.3729,2.9608
2024-10-11T13:53:32.348Z,0.0664,-0.9660,0.2266,-0.3042,-0.1048,-0.3440,-0.0072,-0.1995,-0.0021,2.9569,1.3729,2.9608
2024-10-11T13:53:32.359Z,0.0553,-0.9613,0.2258,-0.3042,-0.1048,-0.3440,-0.0080,-0.1884,-0.0017,2.9569,1.3729,2.9608
2024-10-11T13:53:32.369Z,0.0433,-0.9588,0.2241,-0.0977,-0.1988,-0.3119,-0.0088,-0.1751,0.0012,2.9573,1.3732,2.9546
2024-10-11T13:53:32.378Z,0.0339,-0.9540,0.2229,-0.0977,-0.1988,-0.3119,-0.0144,-0.1617,0.0012,2.9573,1.3732,2.9546
2024-10-11T13:53:32.388Z,0.0247,-0.9526,0.2173,-0.0977,-0.1988,-0.3119,-0.0150,-0.1471,-0.0003,2.9573,1.3732,2.9546
2024-10-11T13:53:32.398Z,0.0247,-0.9526,0.2173,0.2196,-0.2627,-0.2141,-0.0176,-0.1394,-0.0025,2.9577,1.3736,2.9495
2024-10-11T13:53:32.408Z,0.0109,-0.9541,0.2144,0.2196,-0.2627,-0.2141,-0.0191,-0.1284,-0.0019,2.9577,1.3736,2.9495
2024-10-11T13:53:32.418Z,0.0045,-0.9511,0.2050,0.2196,-0.2627,-0.2141,-0.0221,-0.1203,-0.0029,2.9577,1.3736,2.9495
2024-10-11T13:53:32.429Z,-0.0021,-0.9511,0.1956,0.3703,-0.2818,-0.0881,-0.0237,-0.1049,-0.0047,2.9588,1.3742,2.9447
2024-10-11T13:53:32.438Z,-0.0081,-0.9428,0.1827,0.3703,-0.2818,-0.0881,-0.0240,-0.0950,-0.0043,2.9588,1.3742,2.9447
2024-10-11T13:53:32.448Z,-0.0135,-0.9364,0.1802,0.3703,-0.2818,-0.0881,-0.0206,-0.0896,-0.0044,2.9588,1.3742,2.9447
2024-10-11T13:53:32.458Z,-0.0135,-0.9364,0.1802,0.5132,-0.4552,0.1084,-0.0203,-0.0850,-0.0090,2.9603,1.3747,2.9404
2024-10-11T13:53:32.468Z,-0.0186,-0.9329,0.1771,0.5132,-0.4552,0.1084,-0.0148,-0.0795,-0.0068,2.9603,1.3747,2.9404
2024-10-11T13:53:32.478Z,-0.0245,-0.9325,0.1753,0.5132,-0.4552,0.1084,-0.0126,-0.0704,-0.0102,2.9603,1.3747,2.9404
2024-10-11T13:53:32.489Z,-0.0266,-0.9316,0.1729,0.6450,-0.4817,0.1644,-0.0096,-0.0656,-0.0164,2.9626,1.3750,2.9359
2024-10-11T13:53:32.498Z,-0.0211,-0.9344,0.1732,0.6450,-0.4817,0.1644,-0.0091,-0.0597,-0.0192,2.9626,1.3750,2.9359
2024-10-11T13:53:32.508Z,-0.0223,-0.9395,0.1726,0.6450,-0.4817,0.1644,-0.0062,-0.0475,-0.0214,2.9626,1.3750,2.9359
2024-10-11T13:53:32.518Z,-0.0251,-0.9448,0.1660,0.6512,-0.3847,0.2221,-0.0045,-0.0396,-0.0240,2.9658,1.3749,2.9310
2024-10-11T13:53:32.528Z,-0.0209,-0.9558,0.1667,0.6512,-0.3847,0.2221,0.0003,-0.0380,-0.0280,2.9658,1.3749,2.9310
2024-10-11T13:53:32.538Z,-0.0233,-0.9557,0.1618,0.6512,-0.3847,0.2221,0.0064,-0.0325,-0.0322,2.9658,1.3749,2.9310
2024-10-11T13:53:32.548Z,-0.0074,-0.9659,0.1606,0.5528,-0.1879,0.2913,0.0140,-0.0272,-0.0316,2.9702,1.3745,2.9254
2024-10-11T13:53:32.558Z,0.0062,-0.9676,0.1563,0.5528,-0.1879,0.2913,0.0141,-0.0259,-0.0345,2.9702,1.3745,2.9254
2024-10-11T13:53:32.568Z,0.0140,-0.9717,0.1569,0.5528,-0.1879,0.2913,0.0208,-0.0246,-0.0354,2.9702,1.3745,2.9254
2024-10-11T13:53:32.579Z,0.0156,-0.9802,0.1564,0.2658,-0.0327,0.3193,0.0235,-0.0209,-0.0363,2.9747,1.3736,2.9201
2024-10-11T13:53:32.588Z,0.0264,-0.9856,0.1507,0.2658,-0.0327,0.3193,0.0265,-0.0204,-0.0339,2.9747,1.3736,2.9201
2024-10-11T13:53:32.598Z,0.0344,-0.9895,0.1562,0.2658,-0.0327,0.3193,0.0265,-0.0167,-0.0323,2.9747,1.3736,2.9201
2024-10-11T13:53:32.611Z,0.0409,-0.9920,0.1569,0.0613,0.1002,0.3429,0.0301,-0.0142,-0.0299,2.9786,1.3726,2.9156
2024-10-11T13:53:32.618Z,0.0515,-0.9947,0.1606,0.0613,0.1002,0.3429,0.0320,-0.0072,-0.0310,2.9786,1.3726,2.9156
2024-10-11T13:53:32.628Z,0.0602,-0.9925,0.1644,0.0613,0.1002,0.3429,0.0381,-0.0051,-0.0221,2.9786,1.3726,2.9156
2024-10-11T13:53:32.639Z,0.0631,-0.9926,0.1680,-0.1640,0.1198,0.2537,0.0337,0.0015,-0.0169,2.9805,1.3714,2.9134
2024-10-11T13:53:32.648Z,0.0708,-0.9894,0.1710,-0.1640,0.1198,0.2537,0.0368,0.0050,-0.0089,2.9805,1.3714,2.9134
2024-10-11T13:53:32.659Z,0.0808,-0.9864,0.1727,-0.1640,0.1198,0.2537,0.0360,0.0085,-0.0052,2.9805,1.3714,2.9134
2024-10-11T13:53:32.668Z,0.0865,-0.9830,0.1740,-0.3991,0.0424,0.2047,0.0335,0.0145,0.0053,2.9793,1.3705,2.9147
2024-10-11T13:53:32.679Z,0.0837,-0.9789,0.1782,-0.3991,0.0424,0.2047,0.0338,0.0251,0.0120,2.9793,1.3705,2.9147
2024-10-11T13:53:32.688Z,0.0835,-0.9792,0.1795,-0.3991,0.0424,0.2047,0.0328,0.0344,0.0168,2.9793,1.3705,2.9147
2024-10-11T13:53:32.698Z,0.0823,-0.9783,0.1805,-0.3927,-0.0041,0.1381,0.0320,0.0385,0.0264,2.9750,1.3697,2.9196
2024-10-11T13:53:32.708Z,0.0745,-0.9802,0.1816,-0.3927,-0.0041,0.1381,0.0324,0.0434,0.0324,2.9750,1.3697,2.9196
2024-10-11T13:53:32.718Z,0.0679,-0.9803,0.1882,-0.3927,-0.0041,0.1381,0.0310,0.0527,0.0377,2.9750,1.3697,2.9196
2024-10-11T13:53:32.728Z,0.0651,-0.9809,0.1954,-0.2334,0.0040,0.0255,0.0280,0.0600,0.0419,2.9683,1.3691,2.9275
2024-10-11T13:53:32.738Z,0.0592,-0.9829,0.1968,-0.2334,0.0040,0.0255,0.0266,0.0605,0.0478,2.9683,1.3691,2.9275
2024-10-11T13:53:32.748Z,0.0562,-0.9818,0.1988,-0.2334,0.0040,0.0255,0.0243,0.0617,0.0499,2.9683,1.3691,2.9275
2024-10-11T13:53:32.759Z,0.0551,-0.9829,0.2001,-0.1477,0.0236,-0.0282,0.0240,0.0594,0.0503,2.9602,1.3686,2.9370
2024-10-11T13:53:32.768Z,0.0523,-0.9851,0.2005,-0.1477,0.0236,-0.0282,0.0212,0.0579,0.0540,2.9602,1.3686,2.9370
2024-10-11T13:53:32.777Z,0.0527,-0.9830,0.1980,-0.1477,0.0236,-0.0282,0.0166,0.0600,0.0547,2.9602,1.3686,2.9370
2024-10-11T13:53:32.788Z,0.0551,-0.9860,0.2008,-0.1495,0.0499,-0.0307,0.0138,0.0520,0.0554,2.9516,1.3684,2.9469
2024-10-11T13:53:32.798Z,0.0602,-0.9893,0.1961,-0.1495,0.0499,-0.0307,0.0136,0.0444,0.0579,2.9516,1.3684,2.9469
2024-10-11T13:53:32.808Z,0.0620,-0.9935,0.1975,-0.1495,0.0499,-0.0307,0.0100,0.0380,0.0570,2.9516,1.3684,2.9469
2024-10-11T13:53:32.818Z,0.0650,-0.9941,0.1949,-0.2603,0.1392,0.0109,0.0075,0.0329,0.0581,2.9429,1.3685,2.9563
2024-10-11T13:53:32.828Z,0.0665,-0.9976,0.1945,-0.2603,0.1392,0.0109,0.0069,0.0244,0.0607,2.9429,1.3685,2.9563
2024-10-11T13:53:32.837Z,0.0710,-0.9996,0.1957,-0.2603,0.1392,0.0109,0.0036,0.0226,0.0608,2.9429,1.3685,2.9563
2024-10-11T13:53:32.848Z,0.0803,-0.9986,0.1949,-0.4096,0.1958,0.0377,0.0020,0.0157,0.0604,2.9338,1.3687,2.9656
2024-10-11T13:53:32.859Z,0.0813,-1.0004,0.1949,-0.4096,0.1958,0.0377,-0.0032,0.0132,0.0617,2.9338,1.3687,2.9656
2024-10-11T13:53:32.868Z,0.0774,-1.0019,0.1966,-0.4096,0.1958,0.0377,-0.0018,0.0023,0.0664,2.9338,1.3687,2.9656
2024-10-11T13:53:32.878Z,0.0749,-0.9992,0.1969,-0.4127,0.2044,0.0049,-0.0056,0.0004,0.0683,2.9242,1.3691,2.9748
2024-10-11T13:53:32.888Z,0.0730,-0.9977,0.1962,-0.4127,0.2044,0.0049,-0.0122,0.0114,0.0656,2.9242,1.3691,2.9748
2024-10-11T13:53:32.899Z,0.0844,-0.9977,0.1965,-0.4127,0.2044,0.0049,-0.0073,-0.0126,0.0685,2.9242,1.3691,2.9748
2024-10-11T13:53:32.910Z,0.0761,-0.9956,0.1956,-0.4715,0.1544,0.0013,-0.0102,-0.0256,0.0722,2.9143,1.3696,2.9837
2024-10-11T13:53:32.918Z,0.0718,-0.9991,0.1975,-0.4715,0.1544,0.0013,-0.0084,-0.0314,0.0686,2.9143,1.3696,2.9837
2024-10-11T13:53:32.927Z,0.0744,-0.9974,0.1983,-0.4715,0.1544,0.0013,-0.0078,-0.0430,0.0712,2.9143,1.3696,2.9837
2024-10-11T13:53:32.938Z,0.0772,-0.9959,0.1993,-0.4651,0.1751,-0.0236,-0.0080,-0.0462,0.0695,2.9040,1.3702,2.9923
2024-10-11T13:53:32.948Z,0.0752,-0.9906,0.1946,-0.4651,0.1751,-0.0236,-0.0050,-0.0617,0.0725,2.9040,1.3702,2.9923
2024-10-11T13:53:32.958Z,0.0757,-0.9878,0.1957,-0.4651,0.1751,-0.0236,-0.0067,-0.0599,0.0718,2.9040,1.3702,2.9923
2024-10-11T13:53:32.968Z,0.0695,-0.9838,0.1971,-0.4339,0.0593,0.0010,-0.0078,-0.0643,0.0727,2.8936,1.3707,3.0002
2024-10-11T13:53:32.977Z,0.0654,-0.9784,0.2023,-0.4339,0.0593,0.0010,-0.0077,-0.0719,0.0756,2.8936,1.3707,3.0002
2024-10-11T13:53:32.987Z,0.0611,-0.9788,0.2057,-0.4339,0.0593,0.0010,-0.0120,-0.0798,0.0714,2.8936,1.3707,3.0002
2024-10-11T13:53:32.998Z,0.0486,-0.9801,0.2038,-0.2626,-0.0034,-0.0749,-0.0115,-0.0860,0.0703,2.8833,1.3713,3.0077
2024-10-11T13:53:33.008Z,0.0396,-0.9784,0.1998,-0.2626,-0.0034,-0.0749,-0.0171,-0.0863,0.0664,2.8833,1.3713,3.0077
2024-10-11T13:53:33.018Z,0.0262,-0.9789,0.1996,-0.2626,-0.0034,-0.0749,-0.0165,-0.0961,0.0616,2.8833,1.3713,3.0077
2024-10-11T13:53:33.028Z,0.0262,-0.9789,0.1996,0.0320,-0.0044,-0.0064,-0.0174,-0.1048,0.0553,2.8750,1.3719,3.0126
2024-10-11T13:53:33.038Z,0.0085,-0.9790,0.1965,0.0320,-0.0044,-0.0064,-0.0164,-0.1142,0.0472,2.8750,1.3719,3.0126
2024-10-11T13:53:33.048Z,-0.0061,-0.9816,0.1922,0.0320,-0.0044,-0.0064,-0.0164,-0.1231,0.0394,2.8750,1.3719,3.0126
2024-10-11T13:53:33.058Z,-0.0071,-0.9830,0.1867,0.3183,0.0285,0.0650,-0.0164,-0.1329,0.0304,2.8697,1.3725,3.0137
2024-10-11T13:53:33.068Z,-0.0104,-0.9815,0.1812,0.3183,0.0285,0.0650,-0.0130,-0.1439,0.0218,2.8697,1.3725,3.0137
2024-10-11T13:53:33.078Z,-0.0131,-0.9817,0.1787,0.3183,0.0285,0.0650,-0.0103,-0.1524,0.0120,2.8697,1.3725,3.0137
2024-10-11T13:53:33.088Z,-0.0139,-0.9806,0.1777,0.3929,0.0015,0.1647,-0.0069,-0.1655,0.0055,2.8684,1.3728,3.0100
2024-10-11T13:53:33.098Z,-0.0139,-0.9802,0.1807,0.3929,0.0015,0.1647,-0.0072,-0.1736,-0.0073,2.8684,1.3728,3.0100
2024-10-11T13:53:33.109Z,-0.0082,-0.9803,0.1783,0.3929,0.0015,0.1647,-0.0042,-0.1799,-0.0123,2.8684,1.3728,3.0100
2024-10-11T13:53:33.118Z,-0.0008,-0.9792,0.1741,0.3059,-0.0097,0.1991,-0.0033,-0.1839,-0.0188,2.8708,1.3729,3.0020
2024-10-11T13:53:33.128Z,0.0126,-0.9793,0.1762,0.3059,-0.0097,0.1991,0.0024,-0.1854,-0.0228,2.8708,1.3729,3.0020
2024-10-11T13:53:33.138Z,0.0277,-0.9773,0.1787,0.3059,-0.0097,0.1991,0.0032,-0.1831,-0.0256,2.8708,1.3729,3.0020
2024-10-11T13:53:33.148Z,0.0376,-0.9750,0.1794,-0.0499,-0.0481,0.1392,0.0072,-0.1755,-0.0246,2.8744,1.3726,2.9928
2024-10-11T13:53:33.158Z,0.0486,-0.9756,0.1775,-0.0499,-0.0481,0.1392,0.0113,-0.1668,-0.0234,2.8744,1.3726,2.9928
2024-10-11T13:53:33.168Z,0.0487,-0.9771,0.1788,-0.0499,-0.0481,0.1392,0.0121,-0.1574,-0.0213,2.8744,1.3726,2.9928
2024-10-11T13:53:33.178Z,0.0544,-0.9785,0.1803,-0.1984,-0.0264,0.1518,0.0112,-0.1451,-0.0166,2.8771,1.3721,2.9852
2024-10-11T13:53:33.188Z,0.0642,-0.9768,0.1835,-0.1984,-0.0264,0.1518,0.0144,-0.1344,-0.0140,2.8771,1.3721,2.9852
2024-10-11T13:53:33.198Z,0.0629,-0.9787,0.1912,-0.1984,-0.0264,0.1518,0.0192,-0.1234,-0.0082,2.8771,1.3721,2.9852
2024-10-11T13:53:33.208Z,0.0567,-0.9808,0.1945,-0.2829,-0.0077,0.0260,0.0181,-0.1131,-0.0064,2.8779,1.3716,2.9805
2024-10-11T13:53:33.218Z,0.0461,-0.9846,0.2029,-0.2829,-0.0077,0.0260,0.0187,-0.1052,-0.0036,2.8779,1.3716,2.9805
2024-10-11T13:53:33.228Z,0.0405,-0.9862,0.2087,-0.2829,-0.0077,0.0260,0.0175,-0.1026,-0.0030,2.8779,1.3716,2.9805
2024-10-11T13:53:33.238Z,0.0371,-0.9850,0.2134,-0.0576,0.0478,-0.1602,0.0161,-0.0953,-0.0019,2.8781,1.3710,2.9772
2024-10-11T13:53:33.248Z,0.0396,-0.9864,0.2183,-0.0576,0.0478,-0.1602,0.0119,-0.0885,-0.0028,2.8781,1.3710,2.9772
2024-10-11T13:53:33.258Z,0.0454,-0.9808,0.2169,-0.0576,0.0478,-0.1602,0.0096,-0.0775,-0.0009,2.8781,1.3710,2.9772
2024-10-11T13:53:33.268Z,0.0450,-0.9791,0.2164,-0.1215,0.0024,-0.1832,0.0080,-0.0742,0.0026,2.8779,1.3707,2.9747
2024-10-11T13:53:33.278Z,0.0438,-0.9753,0.2174,-0.1215,0.0024,-0.1832,0.0029,-0.0574,0.0019,2.8779,1.3707,2.9747
2024-10-11T13:53:33.288Z,0.0495,-0.9721,0.2214,-0.1215,0.0024,-0.1832,0.0002,-0.0517,0.0098,2.8779,1.3707,2.9747
2024-10-11T13:53:33.298Z,0.0555,-0.9671,0.2214,-0.1914,-0.1055,-0.2534,-0.0036,-0.0411,0.0129,2.8765,1.3708,2.9744
2024-10-11T13:53:33.309Z,0.0556,-0.9642,0.2231,-0.1914,-0.1055,-0.2534,-0.0072,-0.0353,0.0206,2.8765,1.3708,2.9744
2024-10-11T13:53:33.318Z,0.0529,-0.9630,0.2240,-0.1914,-0.1055,-0.2534,-0.0125,-0.0289,0.0256,2.8765,1.3708,2.9744
2024-10-11T13:53:33.330Z,0.0455,-0.9661,0.2196,-0.1565,-0.1573,-0.2539,-0.0126,-0.0256,0.0259,2.8732,1.3712,2.9766
2024-10-11T13:53:33.339Z,0.0422,-0.9713,0.2208,-0.1565,-0.1573,-0.2539,-0.0158,-0.0200,0.0272,2.8732,1.3712,2.9766
2024-10-11T13:53:33.348Z,0.0459,-0.9715,0.2182,-0.1565,-0.1573,-0.2539,-0.0163,-0.0200,0.0282,2.8732,1.3712,2.9766
2024-10-11T13:53:33.358Z,0.0413,-0.9753,0.2179,-0.1197,-0.0677,-0.2271,-0.0173,-0.0169,0.0302,2.8691,1.3718,2.9798
2024-10-11T13:53:33.368Z,0.0373,-0.9782,0.2147,-0.1197,-0.0677,-0.2271,-0.0203,-0.0151,0.0322,2.8691,1.3718,2.9798
2024-10-11T13:53:33.378Z,0.0295,-0.9775,0.2125,-0.1197,-0.0677,-0.2271,-0.0230,-0.0153,0.0330,2.8691,1.3718,2.9798
2024-10-11T13:53:33.388Z,0.0203,-0.9795,0.2067,0.0757,-0.0096,-0.1316,-0.0192,-0.0192,0.0311,2.8648,1.3726,2.9832
2024-10-11T13:53:33.398Z,0.0194,-0.9852,0.2045,0.0757,-0.0096,-0.1316,-0.0207,-0.0235,0.0303,2.8648,1.3726,2.9832
2024-10-11T13:53:33.409Z,0.0106,-0.9817,0.1903,0.0757,-0.0096,-0.1316,-0.0195,-0.0264,0.0273,2.8648,1.3726,2.9832
2024-10-11T13:53:33.418Z,0.0042,-0.9854,0.1852,0.2398,0.0166,0.0555,-0.0183,-0.0282,0.0239,2.8614,1.3732,2.9854
2024-10-11T13:53:33.428Z,-0.0078,-0.9870,0.1759,0.2398,0.0166,0.0555,-0.0167,-0.0261,0.0210,2.8614,1.3732,2.9854
2024-10-11T13:53:33.438Z,-0.0198,-0.9870,0.1758,0.2398,0.0166,0.0555,-0.0113,-0.0232,0.0179,2.8614,1.3732,2.9854
2024-10-11T13:53:33.448Z,-0.0219,-0.9880,0.1726,0.5281,0.0736,0.1896,-0.0025,-0.0420,0.0151,2.8592,1.3736,2.9869
2024-10-11T13:53:33.459Z,-0.0223,-0.9850,0.1771,0.5281,0.0736,0.1896,-0.0058,-0.0259,0.0080,2.8592,1.3736,2.9869
2024-10-11T13:53:33.468Z,-0.0282,-0.9834,0.1765,0.5281,0.0736,0.1896,-0.0025,-0.0187,0.0037,2.8592,1.3736,2.9869
2024-10-11T13:53:33.478Z,-0.0239,-0.9796,0.1768,0.5377,0.0203,0.1883,-0.0001,-0.0199,-0.0024,2.8585,1.3736,2.9868
2024-10-11T13:53:33.488Z,-0.0204,-0.9730,0.1777,0.5377,0.0203,0.1883,0.0033,-0.0235,-0.0065,2.8585,1.3736,2.9868
2024-10-11T13:53:33.498Z,-0.0193,-0.9753,0.1726,0.5377,0.0203,0.1883,0.0075,-0.0172,-0.0098,2.8585,1.3736,2.9868
2024-10-11T13:53:33.509Z,-0.0263,-0.9737,0.1706,0.5348,-0.0547,0.2228,0.0100,-0.0126,-0.0142,2.8593,1.3733,2.9851
2024-10-11T13:53:33.518Z,-0.0245,-0.9734,0.1666,0.5348,-0.0547,0.2228,0.0162,-0.0090,-0.0154,2.8593,1.3733,2.9851
2024-10-11T13:53:33.528Z,-0.0162,-0.9738,0.1640,0.5348,-0.0547,0.2228,0.0197,-0.0012,-0.0186,2.8593,1.3733,2.9851
2024-10-11T13:53:33.538Z,-0.0067,-0.9764,0.1645,0.4118,-0.0397,0.3020,0.0231,0.0031,-0.0213,2.8608,1.3726,2.9834
2024-10-11T13:53:33.548Z,0.0021,-0.9766,0.1672,0.4118,-0.0397,0.3020,0.0256,0.0077,-0.0224,2.8608,1.3726,2.9834
2024-10-11T13:53:33.560Z,0.0051,-0.9822,0.1687,0.4118,-0.0397,0.3020,0.0264,0.0160,-0.0233,2.8608,1.3726,2.9834
2024-10-11T13:53:33.568Z,0.0108,-0.9770,0.1720,0.2470,-0.0119,0.2235,0.0277,0.0183,-0.0239,2.8632,1.3717,2.9813
2024-10-11T13:53:33.578Z,0.0226,-0.9789,0.1749,0.2470,-0.0119,0.2235,0.0290,0.0249,-0.0232,2.8632,1.3717,2.9813
2024-10-11T13:53:33.588Z,0.0234,-0.9788,0.1780,0.2470,-0.0119,0.2235,0.0292,0.0323,-0.0227,2.8632,1.3717,2.9813
2024-10-11T13:53:33.598Z,0.0276,-0.9786,0.1837,0.0759,-0.0167,0.1428,0.0276,0.0402,-0.0208,2.8650,1.3708,2.9803
2024-10-11T13:53:33.609Z,0.0354,-0.9769,0.1907,0.0759,-0.0167,0.1428,0.0313,0.0459,-0.0173,2.8650,1.3708,2.9803
2024-10-11T13:53:33.618Z,0.0348,-0.9725,0.1933,0.0759,-0.0167,0.1428,0.0304,0.0532,-0.0119,2.8650,1.3708,2.9803
2024-10-11T13:53:33.628Z,0.0368,-0.9721,0.1973,-0.0377,-0.0744,0.0148,0.0276,0.0608,-0.0091,2.8655,1.3699,2.9812
2024-10-11T13:53:33.638Z,0.0337,-0.9713,0.1984,-0.0377,-0.0744,0.0148,0.0283,0.0668,-0.0045,2.8655,1.3699,2.9812
2024-10-11T13:53:33.648Z,0.0337,-0.9694,0.2000,-0.0377,-0.0744,0.0148,0.0263,0.0757,-0.0045,2.8655,1.3699,2.9812
2024-10-11T13:53:33.659Z,0.0312,-0.9671,0.2048,-0.0199,-0.1177,-0.0536,0.0227,0.0867,-0.0012,2.8648,1.3692,2.9840
2024-10-11T13:53:33.668Z,0.0260,-0.9649,0.2078,-0.0199,-0.1177,-0.0536,0.0191,0.0920,0.0013,2.8648,1.3692,2.9840
2024-10-11T13:53:33.678Z,0.0170,-0.9649,0.2089,-0.0199,-0.1177,-0.0536,0.0183,0.0975,0.0002,2.8648,1.3692,2.9840
2024-10-11T13:53:33.688Z,0.0105,-0.9657,0.2085,0.1882,-0.1430,-0.0989,0.0194,0.1000,0.0005,2.8642,1.3686,2.9873
2024-10-11T13:53:33.698Z,0.0115,-0.9681,0.2090,0.1882,-0.1430,-0.0989,0.0142,0.1035,-0.0036,2.8642,1.3686,2.9873
2024-10-11T13:53:33.709Z,0.0110,-0.9713,0.2132,0.1882,-0.1430,-0.0989,0.0116,0.0982,-0.0064,2.8642,1.3686,2.9873
2024-10-11T13:53:33.718Z,0.0078,-0.9769,0.2158,0.2077,-0.0523,-0.1612,0.0100,0.1017,-0.0075,2.8647,1.3682,2.9896
2024-10-11T13:53:33.728Z,0.0065,-0.9816,0.2162,0.2077,-0.0523,-0.1612,0.0081,0.0975,-0.0113,2.8647,1.3682,2.9896
2024-10-11T13:53:33.739Z,0.0074,-0.9871,0.2138,0.2077,-0.0523,-0.1612,-0.0002,0.0872,-0.0172,2.8647,1.3682,2.9896
2024-10-11T13:53:33.749Z,0.0096,-0.9942,0.2098,0.2163,0.1099,-0.1229,-0.0012,0.0811,-0.0228,2.8669,1.3681,2.9899
2024-10-11T13:53:33.760Z,0.0136,-0.9987,0.2102,0.2163,0.1099,-0.1229,-0.0012,0.0811,-0.0228,2.8669,1.3681,2.9899
2024-10-11T13:53:33.768Z,0.0235,-1.0037,0.2052,0.2163,0.1099,-0.1229,0.0007,0.0731,-0.0250,2.8669,1.3681,2.9899
2024-10-11T13:53:33.779Z,0.0309,-1.0054,0.2065,-0.0100,0.2509,-0.0697,-0.0042,0.0809,-0.0273,2.8703,1.3680,2.9887
2024-10-11T13:53:33.789Z,0.0210,-1.0069,0.2023,-0.0100,0.2509,-0.0697,-0.0060,0.0733,-0.0300,2.8703,1.3680,2.9887
2024-10-11T13:53:33.798Z,0.0197,-1.0082,0.1993,-0.0100,0.2509,-0.0697,-0.0060,0.0733,-0.0300,2.8703,1.3680,2.9887
2024-10-11T13:53:33.810Z,0.0235,-1.0052,0.1965,0.0930,0.2538,0.0225,-0.0087,0.0686,-0.0322,2.8748,1.3680,2.9862
2024-10-11T13:53:33.818Z,0.0253,-1.0054,0.1986,0.0930,0.2538,0.0225,-0.0070,0.0658,-0.0305,2.8748,1.3680,2.9862
2024-10-11T13:53:33.828Z,0.0273,-1.0018,0.2008,0.0930,0.2538,0.0225,-0.0075,0.0696,-0.0316,2.8748,1.3680,2.9862
2024-10-11T13:53:33.839Z,0.0287,-0.9967,0.2016,0.0217,0.1849,-0.0201,-0.0069,0.0750,-0.0278,2.8793,1.3681,2.9836
2024-10-11T13:53:33.849Z,0.0247,-0.9930,0.2053,0.0217,0.1849,-0.0201,-0.0097,0.0783,-0.0312,2.8793,1.3681,2.9836
2024-10-11T13:53:33.860Z,0.0249,-0.9886,0.2093,0.0217,0.1849,-0.0201,-0.0090,0.0798,-0.0302,2.8793,1.3681,2.9836
2024-10-11T13:53:33.869Z,0.0238,-0.9836,0.2112,0.0803,0.0552,-0.1253,-0.0097,0.0817,-0.0336,2.8839,1.3682,2.9812
2024-10-11T13:53:33.879Z,0.0264,-0.9780,0.2096,0.0803,0.0552,-0.1253,-0.0093,0.0856,-0.0341,2.8839,1.3682,2.9812
2024-10-11T13:53:33.889Z,0.0317,-0.9726,0.2092,0.0803,0.0552,-0.1253,-0.0137,0.0869,-0.0326,2.8839,1.3682,2.9812
2024-10-11T13:53:33.898Z,0.0367,-0.9670,0.2049,-0.0120,-0.1121,-0.0781,-0.0137,0.0869,-0.0326,2.8888,1.3682,2.9786
2024-10-11T13:53:33.910Z,0.0412,-0.9654,0.2013,-0.0120,-0.1121,-0.0781,-0.0089,0.0790,-0.0327,2.8888,1.3682,2.9786
2024-10-11T13:53:33.919Z,0.0454,-0.9629,0.1996,-0.0120,-0.1121,-0.0781,-0.0060,0.0751,-0.0331,2.8888,1.3682,2.9786
2024-10-11T13:53:33.929Z,0.0530,-0.9642,0.2003,-0.1683,-0.1547,-0.0224,-0.0057,0.0672,-0.0346,2.8938,1.3683,2.9757
2024-10-11T13:53:33.939Z,0.0582,-0.9662,0.1991,-0.1683,-0.1547,-0.0224,-0.0066,0.0626,-0.0296,2.8938,1.3683,2.9757
2024-10-11T13:53:33.948Z,0.0668,-0.9704,0.2004,-0.1683,-0.1547,-0.0224,-0.0059,0.0561,-0.0305,2.8938,1.3683,2.9757
2024-10-11T13:53:33.959Z,0.0656,-0.9720,0.1973,-0.3323,-0.0753,0.0022,-0.0081,0.0525,-0.0316,2.8987,1.3683,2.9727
2024-10-11T13:53:33.968Z,0.0649,-0.9752,0.2002,-0.3323,-0.0753,0.0022,-0.0083,0.0451,-0.0333,2.8987,1.3683,2.9727
2024-10-11T13:53:33.978Z,0.0672,-0.9773,0.1989,-0.3323,-0.0753,0.0022,-0.0083,0.0451,-0.0333,2.8987,1.3683,2.9727
2024-10-11T13:53:33.988Z,0.0606,-0.9770,0.1980,-0.2756,-0.0216,-0.0106,-0.0085,0.0374,-0.0276,2.9035,1.3683,2.9690
2024-10-11T13:53:33.999Z,0.0628,-0.9779,0.1982,-0.2756,-0.0216,-0.0106,-0.0078,0.0225,-0.0307,2.9035,1.3683,2.9690
2024-10-11T13:53:34.009Z,0.0614,-0.9764,0.1979,-0.2756,-0.0216,-0.0106,-0.0094,0.0133,-0.0340,2.9035,1.3683,2.9690
2024-10-11T13:53:34.019Z,0.0551,-0.9783,0.1978,-0.2196,-0.0247,-0.0001,-0.0067,0.0047,-0.0340,2.9081,1.3684,2.9648
2024-10-11T13:53:34.029Z,0.0482,-0.9789,0.1979,-0.2196,-0.0247,-0.0001,-0.0077,0.0055,-0.0358,2.9081,1.3684,2.9648
2024-10-11T13:53:34.039Z,0.0448,-0.9806,0.1969,-0.2196,-0.0247,-0.0001,-0.0090,-0.0068,-0.0383,2.9081,1.3684,2.9648
2024-10-11T13:53:34.048Z,0.0504,-0.9817,0.1954,-0.1123,0.0164,0.0239,-0.0078,-0.0110,-0.0393,2.9135,1.3683,2.9591
2024-10-11T13:53:34.059Z,0.0485,-0.9832,0.1935,-0.1123,0.0164,0.0239,-0.0053,-0.0151,-0.0384,2.9135,1.3683,2.9591
2024-10-11T13:53:34.068Z,0.0495,-0.9866,0.1929,-0.1123,0.0164,0.0239,-0.0017,-0.0157,-0.0382,2.9135,1.3683,2.9591
2024-10-11T13:53:34.079Z,0.0588,-0.9858,0.1946,-0.1725,0.0648,0.0361,0.0013,-0.0155,-0.0398,2.9192,1.3682,2.9528
2024-10-11T13:53:34.088Z,0.0652,-0.9861,0.1941,-0.1725,0.0648,0.0361,-0.0013,-0.0117,-0.0352,2.9192,1.3682,2.9528
2024-10-11T13:53:34.098Z,0.0734,-0.9851,0.1944,-0.1725,0.0648,0.0361,-0.0003,-0.0088,-0.0318,2.9192,1.3682,2.9528
2024-10-11T13:53:34.108Z,0.0809,-0.9860,0.1974,-0.3722,0.0546,-0.0009,0.0022,-0.0058,-0.0275,2.9241,1.3679,2.9474
2024-10-11T13:53:34.119Z,0.0933,-0.9848,0.1961,-0.3722,0.0546,-0.0009,0.0038,-0.0062,-0.0224,2.9241,1.3679,2.9474
2024-10-11T13:53:34.127Z,0.0971,-0.9833,0.1991,-0.3722,0.0546,-0.0009,0.0038,-0.0062,-0.0224,2.9241,1.3679,2.9474
2024-10-11T13:53:34.139Z,0.1028,-0.9817,0.1978,-0.6038,0.0341,-0.0091,0.0062,-0.0106,-0.0116,2.9267,1.3677,2.9444
2024-10-11T13:53:34.148Z,0.1001,-0.9792,0.1949,-0.6038,0.0341,-0.0091,0.0063,-0.0127,-0.0073,2.9267,1.3677,2.9444
2024-10-11T13:53:34.159Z,0.0948,-0.9763,0.1976,-0.6038,0.0341,-0.0091,0.0044,-0.0187,-0.0030,2.9267,1.3677,2.9444
2024-10-11T13:53:34.168Z,0.0875,-0.9770,0.1996,-0.4976,-0.0212,-0.0173,0.0052,-0.0237,-0.0021,2.9274,1.3674,2.9430
2024-10-11T13:53:34.178Z,0.0817,-0.9756,0.2014,-0.4976,-0.0212,-0.0173,0.0052,-0.0237,-0.0021,2.9274,1.3674,2.9430
2024-10-11T13:53:34.188Z,0.0829,-0.9743,0.2027,-0.4976,-0.0212,-0.0173,0.0027,-0.0348,0.0011,2.9274,1.3674,2.9430
2024-10-11T13:53:34.198Z,0.0850,-0.9719,0.2047,-0.4381,-0.0636,-0.0418,0.0046,-0.0342,0.0050,2.9272,1.3672,2.9420
2024-10-11T13:53:34.208Z,0.0825,-0.9702,0.2087,-0.4381,-0.0636,-0.0418,-0.0008,-0.0368,0.0069,2.9272,1.3672,2.9420
2024-10-11T13:53:34.218Z,0.0821,-0.9703,0.2096,-0.4381,-0.0636,-0.0418,-0.0013,-0.0344,0.0102,2.9272,1.3672,2.9420
2024-10-11T13:53:34.229Z,0.0808,-0.9720,0.2097,-0.4047,-0.0757,-0.1161,-0.0033,-0.0396,0.0093,2.9263,1.3672,2.9416
2024-10-11T13:53:34.238Z,0.0791,-0.9733,0.2081,-0.4047,-0.0757,-0.1161,-0.0042,-0.0369,0.0160,2.9263,1.3672,2.9416
2024-10-11T13:53:34.248Z,0.0815,-0.9733,0.2074,-0.4047,-0.0757,-0.1161,-0.0032,-0.0392,0.0196,2.9263,1.3672,2.9416
2024-10-11T13:53:34.259Z,0.0867,-0.9749,0.2072,-0.4407,-0.0479,-0.0922,-0.0038,-0.0418,0.0238,2.9242,1.3674,2.9423
2024-10-11T13:53:34.268Z,0.0872,-0.9767,0.2076,-0.4407,-0.0479,-0.0922,-0.0068,-0.0424,0.0262,2.9242,1.3674,2.9423
2024-10-11T13:53:34.278Z,0.0855,-0.9811,0.2098,-0.4407,-0.0479,-0.0922,-0.0071,-0.0419,0.0300,2.9242,1.3674,2.9423
2024-10-11T13:53:34.288Z,0.0853,-0.9820,0.2130,-0.4536,0.0237,-0.1462,-0.0103,-0.0452,0.0316,2.9207,1.3677,2.9442
2024-10-11T13:53:34.298Z,0.0842,-0.9814,0.2098,-0.4536,0.0237,-0.1462,-0.0094,-0.0515,0.0331,2.9207,1.3677,2.9442
2024-10-11T13:53:34.308Z,0.0822,-0.9808,0.2124,-0.4536,0.0237,-0.1462,-0.0087,-0.0528,0.0328,2.9207,1.3677,2.9442
2024-10-11T13:53:34.318Z,0.0746,-0.9771,0.2077,-0.3732,-0.0081,-0.1132,-0.0096,-0.0599,0.0334,2.9164,1.3681,2.9466
2024-10-11T13:53:34.329Z,0.0684,-0.9773,0.2091,-0.3732,-0.0081,-0.1132,-0.0129,-0.0635,0.0335,2.9164,1.3681,2.9466
2024-10-11T13:53:34.338Z,0.0619,-0.9769,0.2043,-0.3732,-0.0081,-0.1132,-0.0141,-0.0680,0.0317,2.9164,1.3681,2.9466
2024-10-11T13:53:34.348Z,0.0551,-0.9785,0.2024,-0.1807,-0.0147,-0.0558,-0.0157,-0.0736,0.0295,2.9119,1.3686,2.9488
2024-10-11T13:53:34.358Z,0.0521,-0.9792,0.1989,-0.1807,-0.0147,-0.0558,-0.0163,-0.0768,0.0286,2.9119,1.3686,2.9488
2024-10-11T13:53:34.368Z,0.0451,-0.9801,0.1935,-0.1807,-0.0147,-0.0558,-0.0129,-0.0830,0.0265,2.9119,1.3686,2.9488
2024-10-11T13:53:34.379Z,0.0369,-0.9818,0.1892,-0.0176,0.0113,0.0610,-0.0138,-0.0905,0.0224,2.9086,1.3692,2.9494
2024-10-11T13:53:34.388Z,0.0273,-0.9826,0.1876,-0.0176,0.0113,0.0610,-0.0106,-0.0951,0.0159,2.9086,1.3692,2.9494
2024-10-11T13:53:34.399Z,0.0218,-0.9818,0.1866,-0.0176,0.0113,0.0610,-0.0153,-0.0893,0.0112,2.9086,1.3692,2.9494
2024-10-11T13:53:34.408Z,0.0289,-0.9815,0.1868,0.1471,0.0231,0.0903,-0.0107,-0.0974,0.0087,2.9067,1.3696,2.9481
2024-10-11T13:53:34.419Z,0.0264,-0.9782,0.1839,0.1471,0.0231,0.0903,-0.0096,-0.1010,0.0026,2.9067,1.3696,2.9481
2024-10-11T13:53:34.429Z,0.0235,-0.9809,0.1821,0.1471,0.0231,0.0903,-0.0066,-0.1025,-0.0014,2.9067,1.3696,2.9481
2024-10-11T13:53:34.438Z,0.0279,-0.9828,0.1821,0.1107,0.0256,0.1355,-0.0051,-0.1079,-0.0021,2.9065,1.3698,2.9447
2024-10-11T13:53:34.449Z,0.0247,-0.9841,0.1814,0.1107,0.0256,0.1355,-0.0058,-0.1124,-0.0060,2.9065,1.3698,2.9447
2024-10-11T13:53:34.458Z,0.0285,-0.9857,0.1852,0.1107,0.0256,0.1355,-0.0025,-0.1103,-0.0069,2.9065,1.3698,2.9447
2024-10-11T13:53:34.468Z,0.0271,-0.9872,0.1870,0.1235,0.0631,0.0971,-0.0030,-0.1074,-0.0074,2.9076,1.3699,2.9403
2024-10-11T13:53:34.479Z,0.0315,-0.9888,0.1882,0.1235,0.0631,0.0971,-0.0028,-0.1037,-0.0119,2.9076,1.3699,2.9403
2024-10-11T13:53:34.488Z,0.0349,-0.9902,0.1852,0.1235,0.0631,0.0971,-0.0032,-0.1007,-0.0115,2.9076,1.3699,2.9403
2024-10-11T13:53:34.498Z,0.0386,-0.9888,0.1829,0.0404,0.0960,0.1100,-0.0012,-0.0946,-0.0103,2.9092,1.3699,2.9354
2024-10-11T13:53:34.508Z,0.0377,-0.9878,0.1815,0.0404,0.0960,0.1100,-0.0002,-0.0838,-0.0103,2.9092,1.3699,2.9354
2024-10-11T13:53:34.518Z,0.0369,-0.9889,0.1837,0.0404,0.0960,0.1100,0.0032,-0.0764,-0.0078,2.9092,1.3699,2.9354
2024-10-11T13:53:34.529Z,0.0441,-0.9852,0.1823,0.0077,0.0725,0.1128,-0.0013,-0.0701,-0.0054,2.9106,1.3698,2.9312
2024-10-11T13:53:34.538Z,0.0580,-0.9818,0.1810,0.0077,0.0725,0.1128,0.0003,-0.0617,-0.0027,2.9106,1.3698,2.9312
2024-10-11T13:53:34.548Z,0.0693,-0.9817,0.1826,0.0077,0.0725,0.1128,0.0003,-0.0556,-0.0006,2.9106,1.3698,2.9312
2024-10-11T13:53:34.558Z,0.0686,-0.9806,0.1804,-0.2712,0.0066,0.1482,-0.0004,-0.0481,0.0049,2.9108,1.3697,2.9289
2024-10-11T13:53:34.568Z,0.0678,-0.9803,0.1806,-0.2712,0.0066,0.1482,-0.0013,-0.0419,0.0084,2.9108,1.3697,2.9289
2024-10-11T13:53:34.579Z,0.0664,-0.9758,0.1838,-0.2712,0.0066,0.1482,-0.0002,-0.0345,0.0103,2.9108,1.3697,2.9289
2024-10-11T13:53:34.588Z,0.0637,-0.9760,0.1849,-0.2168,-0.0338,0.0986,-0.0048,-0.0314,0.0123,2.9096,1.3698,2.9286
2024-10-11T13:53:34.598Z,0.0610,-0.9731,0.1904,-0.2168,-0.0338,0.0986,-0.0044,-0.0300,0.0160,2.9096,1.3698,2.9286
2024-10-11T13:53:34.608Z,0.0550,-0.9717,0.1885,-0.2168,-0.0338,0.0986,-0.0056,-0.0310,0.0152,2.9096,1.3698,2.9286
2024-10-11T13:53:34.618Z,0.0482,-0.9714,0.1928,-0.0814,-0.0883,0.0398,-0.0068,-0.0333,0.0117,2.9077,1.3699,2.9293
2024-10-11T13:53:34.629Z,0.0469,-0.9696,0.1930,-0.0814,-0.0883,0.0398,-0.0050,-0.0384,0.0105,2.9077,1.3699,2.9293
2024-10-11T13:53:34.638Z,0.0407,-0.9694,0.1960,-0.0814,-0.0883,0.0398,-0.0089,-0.0418,0.0093,2.9077,1.3699,2.9293
2024-10-11T13:53:34.648Z,0.0424,-0.9675,0.2003,0.0118,-0.1139,-0.0569,-0.0089,-0.0436,0.0082,2.9061,1.3702,2.9294
2024-10-11T13:53:34.658Z,0.0423,-0.9691,0.1970,0.0118,-0.1139,-0.0569,-0.0103,-0.0454,0.0069,2.9061,1.3702,2.9294
2024-10-11T13:53:34.669Z,0.0424,-0.9698,0.1975,0.0118,-0.1139,-0.0569,-0.0050,-0.0504,0.0077,2.9061,1.3702,2.9294
2024-10-11T13:53:34.679Z,0.0377,-0.9698,0.1957,0.0263,-0.1084,-0.0213,-0.0089,-0.0504,0.0069,2.9052,1.3705,2.9287
2024-10-11T13:53:34.688Z,0.0401,-0.9739,0.1967,0.0263,-0.1084,-0.0213,-0.0070,-0.0543,0.0044,2.9052,1.3705,2.9287
2024-10-11T13:53:34.698Z,0.0440,-0.9766,0.1973,0.0263,-0.1084,-0.0213,-0.0085,-0.0547,0.0027,2.9052,1.3705,2.9287
2024-10-11T13:53:34.708Z,0.0437,-0.9774,0.1965,-0.0130,-0.0300,-0.0190,-0.0063,-0.0544,0.0015,2.9045,1.3707,2.9274
2024-10-11T13:53:34.718Z,0.0435,-0.9773,0.1929,-0.0130,-0.0300,-0.0190,-0.0079,-0.0513,0.0032,2.9045,1.3707,2.9274
2024-10-11T13:53:34.729Z,0.0422,-0.9784,0.1879,-0.0130,-0.0300,-0.0190,-0.0042,-0.0497,0.0035,2.9045,1.3707,2.9274
2024-10-11T13:53:34.738Z,0.0497,-0.9777,0.1865,-0.0291,-0.0198,0.0781,-0.0030,-0.0566,0.0059,2.9042,1.3708,2.9258
2024-10-11T13:53:34.748Z,0.0488,-0.9776,0.1853,-0.0291,-0.0198,0.0781,-0.0027,-0.0487,0.0057,2.9042,1.3708,2.9258
2024-10-11T13:53:34.758Z,0.0485,-0.9799,0.1813,-0.0291,-0.0198,0.0781,-0.0010,-0.0444,0.0073,2.9042,1.3708,2.9258
2024-10-11T13:53:34.768Z,0.0581,-0.9808,0.1833,-0.1138,0.0149,0.1179,0.0013,-0.0424,0.0080,2.9034,1.3709,2.9250
2024-10-11T13:53:34.779Z,0.0610,-0.9798,0.1826,-0.1138,0.0149,0.1179,0.0000,-0.0408,0.0069,2.9034,1.3709,2.9250
2024-10-11T13:53:34.788Z,0.0627,-0.9797,0.1853,-0.1138,0.0149,0.1179,0.0022,-0.0432,0.0102,2.9034,1.3709,2.9250
2024-10-11T13:53:34.798Z,0.0605,-0.9791,0.1855,-0.1779,-0.0049,0.0814,0.0014,-0.0432,0.0128,2.9017,1.3710,2.9251
2024-10-11T13:53:34.807Z,0.0627,-0.9785,0.1871,-0.1779,-0.0049,0.0814,0.0048,-0.0485,0.0129,2.9017,1.3710,2.9251
2024-10-11T13:53:34.818Z,0.0686,-0.9767,0.1887,-0.1779,-0.0049,0.0814,0.0042,-0.0537,0.0148,2.9017,1.3710,2.9251
2024-10-11T13:53:34.829Z,0.0701,-0.9745,0.1881,-0.2642,-0.0544,0.0546,0.0063,-0.0580,0.0148,2.8996,1.3709,2.9255
2024-10-11T13:53:34.838Z,0.0681,-0.9723,0.1897,-0.2642,-0.0544,0.0546,0.0085,-0.0659,0.0157,2.8996,1.3709,2.9255
2024-10-11T13:53:34.848Z,0.0646,-0.9698,0.1893,-0.2642,-0.0544,0.0546,0.0118,-0.0680,0.0138,2.8996,1.3709,2.9255
2024-10-11T13:53:34.858Z,0.0644,-0.9715,0.1893,-0.2046,-0.0890,0.0488,0.0117,-0.0709,0.0162,2.8970,1.3706,2.9260
2024-10-11T13:53:34.868Z,0.0673,-0.9731,0.1874,-0.2046,-0.0890,0.0488,0.0163,-0.0697,0.0168,2.8970,1.3706,2.9260
2024-10-11T13:53:34.879Z,0.0661,-0.9745,0.1847,-0.2046,-0.0890,0.0488,0.0157,-0.0698,0.0164,2.8970,1.3706,2.9260
2024-10-11T13:53:34.887Z,0.0671,-0.9759,0.1833,-0.2279,-0.0414,0.1113,0.0219,-0.0710,0.0192,2.8939,1.3703,2.9266
2024-10-11T13:53:34.898Z,0.0689,-0.9757,0.1848,-0.2279,-0.0414,0.1113,0.0215,-0.0672,0.0246,2.8939,1.3703,2.9266
2024-10-11T13:53:34.908Z,0.0690,-0.9759,0.1865,-0.2279,-0.0414,0.1113,0.0223,-0.0681,0.0248,2.8939,1.3703,2.9266
2024-10-11T13:53:34.918Z,0.0681,-0.9757,0.1871,-0.2529,-0.0419,0.0886,0.0227,-0.0664,0.0270,2.8897,1.3698,2.9284
2024-10-11T13:53:34.928Z,0.0704,-0.9747,0.1884,-0.2529,-0.0419,0.0886,0.0268,-0.0653,0.0269,2.8897,1.3698,2.9284
2024-10-11T13:53:34.938Z,0.0787,-0.9734,0.1861,-0.2529,-0.0419,0.0886,0.0277,-0.0687,0.0332,2.8897,1.3698,2.9284
2024-10-11T13:53:34.947Z,0.0830,-0.9742,0.1891,-0.3884,-0.0600,0.0753,0.0262,-0.0714,0.0341,2.8845,1.3692,2.9312
2024-10-11T13:53:34.958Z,0.0823,-0.9754,0.1903,-0.3884,-0.0600,0.0753,0.0307,-0.0767,0.0369,2.8845,1.3692,2.9312
2024-10-11T13:53:34.968Z,0.0779,-0.9784,0.1920,-0.3884,-0.0600,0.0753,0.0325,-0.0791,0.0379,2.8845,1.3692,2.9312
2024-10-11T13:53:34.978Z,0.0747,-0.9836,0.1926,-0.3350,0.0253,0.0402,0.0304,-0.0803,0.0382,2.8782,1.3685,2.9348
2024-10-11T13:53:34.988Z,0.0710,-0.9852,0.1897,-0.3350,0.0253,0.0402,0.0328,-0.0856,0.0371,2.8782,1.3685,2.9348
2024-10-11T13:53:34.997Z,0.0695,-0.9890,0.1889,-0.3350,0.0253,0.0402,0.0336,-0.0887,0.0395,2.8782,1.3685,2.9348
2024-10-11T13:53:35.008Z,0.0693,-0.9898,0.1904,-0.2915,0.1007,0.0773,0.0306,-0.0889,0.0411,2.8716,1.3677,2.9384
2024-10-11T13:53:35.018Z,0.0640,-0.9912,0.1937,-0.2915,0.1007,0.0773,0.0317,-0.0924,0.0421,2.8716,1.3677,2.9384
2024-10-11T13:53:35.028Z,0.0627,-0.9902,0.1961,-0.2915,0.1007,0.0773,0.0312,-0.0900,0.0414,2.8716,1.3677,2.9384
2024-10-11T13:53:35.038Z,0.0613,-0.9867,0.1973,-0.2153,0.0851,0.0076,0.0315,-0.0839,0.0459,2.8644,1.3670,2.9425
2024-10-11T13:53:35.047Z,0.0578,-0.9843,0.2011,-0.2153,0.0851,0.0076,0.0253,-0.0796,0.0485,2.8644,1.3670,2.9425
2024-10-11T13:53:35.058Z,0.0586,-0.9779,0.2003,-0.2153,0.0851,0.0076,0.0256,-0.0740,0.0483,2.8644,1.3670,2.9425
2024-10-11T13:53:35.068Z,0.0559,-0.9768,0.2028,-0.1692,-0.0264,-0.0154,0.0219,-0.0677,0.0510,2.8566,1.3665,2.9476
2024-10-11T13:53:35.080Z,0.0526,-0.9769,0.2050,-0.1692,-0.0264,-0.0154,0.0198,-0.0610,0.0550,2.8566,1.3665,2.9476
2024-10-11T13:53:35.088Z,0.0435,-0.9739,0.2054,-0.1692,-0.0264,-0.0154,0.0186,-0.0560,0.0560,2.8566,1.3665,2.9476
2024-10-11T13:53:35.097Z,0.0389,-0.9734,0.2057,-0.0219,-0.0563,-0.0591,0.0125,-0.0528,0.0553,2.8481,1.3663,2.9539
2024-10-11T13:53:35.109Z,0.0354,-0.9697,0.2023,-0.0219,-0.0563,-0.0591,0.0139,-0.0470,0.0546,2.8481,1.3663,2.9539
2024-10-11T13:53:35.118Z,0.0291,-0.9705,0.1995,-0.0219,-0.0563,-0.0591,0.0108,-0.0422,0.0525,2.8481,1.3663,2.9539
2024-10-11T13:53:35.128Z,0.0221,-0.9724,0.1967,0.1262,-0.0630,0.0182,0.0107,-0.0382,0.0512,2.8400,1.3662,2.9601
2024-10-11T13:53:35.138Z,0.0202,-0.9725,0.1946,0.1262,-0.0630,0.0182,0.0089,-0.0302,0.0506,2.8400,1.3662,2.9601
2024-10-11T13:53:35.147Z,0.0167,-0.9744,0.1895,0.1262,-0.0630,0.0182,0.0058,-0.0185,0.0496,2.8400,1.3662,2.9601
2024-10-11T13:53:35.158Z,0.0146,-0.9735,0.1863,0.2029,-0.0509,0.1199,0.0058,-0.0138,0.0479,2.8323,1.3662,2.9666
2024-10-11T13:53:35.168Z,0.0053,-0.9759,0.1808,0.2029,-0.0509,0.1199,0.0066,-0.0002,0.0475,2.8323,1.3662,2.9666
2024-10-11T13:53:35.178Z,-0.0040,-0.9799,0.1771,0.2029,-0.0509,0.1199,0.0073,0.0102,0.0474,2.8323,1.3662,2.9666
2024-10-11T13:53:35.188Z,-0.0039,-0.9828,0.1713,0.3693,0.0161,0.2673,0.0083,0.0218,0.0450,2.8252,1.3662,2.9733
2024-10-11T13:53:35.198Z,-0.0049,-0.9897,0.1716,0.3693,0.0161,0.2673,0.0101,0.0310,0.0450,2.8252,1.3662,2.9733
2024-10-11T13:53:35.207Z,-0.0049,-0.9927,0.1694,0.3693,0.0161,0.2673,0.0082,0.0437,0.0474,2.8252,1.3662,2.9733
2024-10-11T13:53:35.218Z,-0.0042,-0.9949,0.1679,0.3742,0.1482,0.3110,0.0078,0.0558,0.0431,2.8183,1.3662,2.9809
2024-10-11T13:53:35.229Z,0.0003,-0.9966,0.1645,0.3742,0.1482,0.3110,0.0109,0.0648,0.0425,2.8183,1.3662,2.9809
2024-10-11T13:53:35.238Z,-0.0013,-0.9999,0.1644,0.3742,0.1482,0.3110,0.0113,0.0746,0.0413,2.8183,1.3662,2.9809
2024-10-11T13:53:35.248Z,-0.0010,-1.0021,0.1637,0.3263,0.2208,0.3650,0.0129,0.0831,0.0412,2.8119,1.3660,2.9889
2024-10-11T13:53:35.258Z,0.0011,-1.0011,0.1644,0.3263,0.2208,0.3650,0.0139,0.0909,0.0373,2.8119,1.3660,2.9889
2024-10-11T13:53:35.268Z,-0.0009,-1.0015,0.1691,0.3263,0.2208,0.3650,0.0144,0.1016,0.0349,2.8119,1.3660,2.9889
2024-10-11T13:53:35.278Z,0.0011,-1.0028,0.1732,0.2892,0.2283,0.2962,0.0150,0.1073,0.0330,2.8061,1.3658,2.9971
2024-10-11T13:53:35.288Z,0.0004,-1.0026,0.1762,0.2892,0.2283,0.2962,0.0135,0.1135,0.0305,2.8061,1.3658,2.9971
2024-10-11T13:53:35.298Z,-0.0013,-1.0035,0.1803,0.2892,0.2283,0.2962,0.0110,0.1133,0.0251,2.8061,1.3658,2.9971
2024-10-11T13:53:35.308Z,-0.0058,-1.0035,0.1863,0.3127,0.2392,0.1704,0.0097,0.1139,0.0180,2.8016,1.3655,3.0045
2024-10-11T13:53:35.318Z,-0.0083,-1.0050,0.1879,0.3127,0.2392,0.1704,0.0074,0.1116,0.0131,2.8016,1.3655,3.0045
2024-10-11T13:53:35.329Z,-0.0135,-1.0030,0.1890,0.3127,0.2392,0.1704,0.0037,0.1090,0.0066,2.8016,1.3655,3.0045
2024-10-11T13:53:35.338Z,-0.0194,-1.0023,0.1905,0.4430,0.2378,0.1189,-0.0017,0.1085,-0.0022,2.7997,1.3654,3.0095
2024-10-11T13:53:35.348Z,-0.0139,-0.9986,0.1895,0.4430,0.2378,0.1189,-0.0049,0.1057,-0.0080,2.7997,1.3654,3.0095
2024-10-11T13:53:35.358Z,-0.0117,-0.9954,0.1920,0.4430,0.2378,0.1189,-0.0095,0.1030,-0.0142,2.7997,1.3654,3.0095
2024-10-11T13:53:35.368Z,-0.0095,-0.9881,0.1901,0.3606,0.1207,0.1096,-0.0137,0.1023,-0.0188,2.8009,1.3656,3.0112
2024-10-11T13:53:35.379Z,-0.0055,-0.9827,0.1906,0.3606,0.1207,0.1096,-0.0161,0.1022,-0.0233,2.8009,1.3656,3.0112
2024-10-11T13:53:35.388Z,0.0014,-0.9796,0.1915,0.3606,0.1207,0.1096,-0.0200,0.1016,-0.0289,2.8009,1.3656,3.0112
2024-10-11T13:53:35.398Z,0.0067,-0.9751,0.1912,0.2186,-0.0188,0.0966,-0.0236,0.1025,-0.0332,2.8046,1.3659,3.0104
2024-10-11T13:53:35.408Z,0.0107,-0.9714,0.1893,0.2186,-0.0188,0.0966,-0.0240,0.1049,-0.0386,2.8046,1.3659,3.0104
2024-10-11T13:53:35.418Z,0.0086,-0.9669,0.1883,0.2186,-0.0188,0.0966,-0.0241,0.1110,-0.0391,2.8046,1.3659,3.0104
2024-10-11T13:53:35.429Z,0.0107,-0.9660,0.1874,0.1651,-0.1287,0.1290,-0.0240,0.1197,-0.0444,2.8104,1.3665,3.0075
2024-10-11T13:53:35.438Z,0.0125,-0.9647,0.1861,0.1651,-0.1287,0.1290,-0.0236,0.1255,-0.0489,2.8104,1.3665,3.0075
2024-10-11T13:53:35.448Z,0.0155,-0.9627,0.1799,0.1651,-0.1287,0.1290,-0.0212,0.1382,-0.0537,2.8104,1.3665,3.0075
2024-10-11T13:53:35.458Z,0.0121,-0.9684,0.1819,0.1426,-0.1241,0.1908,-0.0189,0.1481,-0.0551,2.8180,1.3670,3.0037
2024-10-11T13:53:35.468Z,0.0249,-0.9694,0.1762,0.1426,-0.1241,0.1908,-0.0142,0.1607,-0.0551,2.8180,1.3670,3.0037
2024-10-11T13:53:35.478Z,0.0316,-0.9718,0.1741,0.1426,-0.1241,0.1908,-0.0122,0.1722,-0.0561,2.8180,1.3670,3.0037
2024-10-11T13:53:35.488Z,0.0395,-0.9728,0.1732,-0.0699,-0.0684,0.2559,-0.0093,0.1779,-0.0564,2.8263,1.3672,3.0002
2024-10-11T13:53:35.498Z,0.0523,-0.9715,0.1723,-0.0699,-0.0684,0.2559,-0.0053,0.1866,-0.0560,2.8263,1.3672,3.0002
2024-10-11T13:53:35.508Z,0.0522,-0.9720,0.1763,-0.0699,-0.0684,0.2559,-0.0006,0.1923,-0.0567,2.8263,1.3672,3.0002
2024-10-11T13:53:35.518Z,0.0578,-0.9724,0.1790,-0.2602,-0.0682,0.2130,-0.0008,0.1986,-0.0581,2.8346,1.3671,2.9974
2024-10-11T13:53:35.529Z,0.0567,-0.9732,0.1835,-0.2602,-0.0682,0.2130,0.0001,0.2050,-0.0592,2.8346,1.3671,2.9974
2024-10-11T13:53:35.538Z,0.0565,-0.9745,0.1865,-0.2602,-0.0682,0.2130,-0.0000,0.2093,-0.0613,2.8346,1.3671,2.9974
2024-10-11T13:53:35.549Z,0.0533,-0.9772,0.1878,-0.2488,-0.0319,0.1420,-0.0035,0.2138,-0.0614,2.8431,1.3668,2.9950
2024-10-11T13:53:35.558Z,0.0498,-0.9761,0.1914,-0.2488,-0.0319,0.1420,-0.0030,0.2177,-0.0685,2.8431,1.3668,2.9950
2024-10-11T13:53:35.568Z,0.0426,-0.9741,0.1931,-0.2488,-0.0319,0.1420,-0.0045,0.2171,-0.0695,2.8431,1.3668,2.9950
2024-10-11T13:53:35.579Z,0.0406,-0.9736,0.1953,-0.0992,-0.0504,0.0656,-0.0051,0.2223,-0.0751,2.8529,1.3666,2.9916
2024-10-11T13:53:35.588Z,0.0359,-0.9710,0.1981,-0.0992,-0.0504,0.0656,-0.0094,0.2326,-0.0788,2.8529,1.3666,2.9916
2024-10-11T13:53:35.598Z,0.0345,-0.9688,0.1999,-0.0992,-0.0504,0.0656,-0.0073,0.2360,-0.0818,2.8529,1.3666,2.9916
2024-10-11T13:53:35.607Z,0.0363,-0.9706,0.2020,-0.0463,-0.0882,-0.0111,-0.0070,0.2439,-0.0884,2.8645,1.3664,2.9870
2024-10-11T13:53:35.618Z,0.0338,-0.9684,0.2025,-0.0463,-0.0882,-0.0111,-0.0032,0.2492,-0.0916,2.8645,1.3664,2.9870
2024-10-11T13:53:35.629Z,0.0357,-0.9673,0.2058,-0.0463,-0.0882,-0.0111,-0.0037,0.2566,-0.0966,2.8645,1.3664,2.9870
2024-10-11T13:53:35.638Z,0.0401,-0.9653,0.2093,-0.0701,-0.1289,-0.0822,-0.0004,0.2582,-0.1012,2.8780,1.3661,2.9810
2024-10-11T13:53:35.648Z,0.0372,-0.9621,0.2142,-0.0701,-0.1289,-0.0822,0.0020,0.2603,-0.1063,2.8780,1.3661,2.9810
2024-10-11T13:53:35.658Z,0.0425,-0.9630,0.2153,-0.0701,-0.1289,-0.0822,0.0037,0.2618,-0.1112,2.8780,1.3661,2.9810
2024-10-11T13:53:35.668Z,0.0470,-0.9606,0.2142,-0.1207,-0.1698,-0.1412,0.0074,0.2605,-0.1118,2.8933,1.3655,2.9735
2024-10-11T13:53:35.678Z,0.0491,-0.9574,0.2150,-0.1207,-0.1698,-0.1412,0.0052,0.2602,-0.1175,2.8933,1.3655,2.9735
2024-10-11T13:53:35.688Z,0.0506,-0.9540,0.2174,-0.1207,-0.1698,-0.1412,0.0086,0.2608,-0.1153,2.8933,1.3655,2.9735
2024-10-11T13:53:35.698Z,0.0541,-0.9536,0.2165,-0.1465,-0.2481,-0.1548,0.0086,0.2633,-0.1205,2.9098,1.3647,2.9650
2024-10-11T13:53:35.708Z,0.0563,-0.9547,0.2185,-0.1465,-0.2481,-0.1548,0.0105,0.2641,-0.1230,2.9098,1.3647,2.9650
2024-10-11T13:53:35.718Z,0.0691,-0.9567,0.2202,-0.1465,-0.2481,-0.1548,0.0108,0.2655,-0.1232,2.9098,1.3647,2.9650
2024-10-11T13:53:35.729Z,0.0704,-0.9574,0.2154,-0.3720,-0.2130,-0.1453,0.0116,0.2693,-0.1255,2.9271,1.3638,2.9557
2024-10-11T13:53:35.738Z,0.0617,-0.9624,0.2148,-0.3720,-0.2130,-0.1453,0.0142,0.2658,-0.1247,2.9271,1.3638,2.9557
2024-10-11T13:53:35.748Z,0.0778,-0.9593,0.2171,-0.3720,-0.2130,-0.1453,0.0178,0.2595,-0.1218,2.9271,1.3638,2.9557
2024-10-11T13:53:35.757Z,0.0747,-0.9589,0.2207,-0.3619,-0.2032,-0.1614,0.0199,0.2506,-0.1224,2.9441,1.3626,2.9466
2024-10-11T13:53:35.769Z,0.0769,-0.9651,0.2225,-0.3619,-0.2032,-0.1614,0.0230,0.2410,-0.1203,2.9441,1.3626,2.9466
2024-10-11T13:53:35.781Z,0.0861,-0.9670,0.2253,-0.4886,-0.1028,-0.2162,0.0300,0.2312,-0.1175,2.9602,1.3611,2.9378
2024-10-11T13:53:35.788Z,0.0926,-0.9695,0.2249,-0.4886,-0.1028,-0.2162,0.0333,0.2203,-0.1132,2.9602,1.3611,2.9378
2024-10-11T13:53:35.797Z,0.0933,-0.9779,0.2240,-0.4886,-0.1028,-0.2162,0.0357,0.2066,-0.1113,2.9602,1.3611,2.9378
2024-10-11T13:53:35.808Z,0.1058,-0.9832,0.2205,-0.4886,-0.1028,-0.2162,0.0441,0.1949,-0.1081,2.9602,1.3611,2.9378
2024-10-11T13:53:35.818Z,0.1050,-0.9919,0.2194,-0.5803,0.0972,-0.1384,0.0485,0.1924,-0.1063,2.9746,1.3593,2.9297
2024-10-11T13:53:35.829Z,0.1026,-0.9994,0.2145,-0.5803,0.0972,-0.1384,0.0525,0.1759,-0.0981,2.9746,1.3593,2.9297
2024-10-11T13:53:35.838Z,0.1222,-1.0053,0.2094,-0.5803,0.0972,-0.1384,0.0585,0.1650,-0.0894,2.9746,1.3593,2.9297
2024-10-11T13:53:35.848Z,0.1039,-1.0112,0.2067,-0.6498,0.3154,-0.0185,0.0600,0.1554,-0.0805,2.9859,1.3571,2.9235
2024-10-11T13:53:35.858Z,0.1013,-1.0188,0.2048,-0.6498,0.3154,-0.0185,0.0639,0.1479,-0.0728,2.9859,1.3571,2.9235
2024-10-11T13:53:35.868Z,0.0993,-1.0196,0.2054,-0.6498,0.3154,-0.0185,0.0653,0.1444,-0.0706,2.9859,1.3571,2.9235
2024-10-11T13:53:35.879Z,0.1007,-1.0244,0.2111,-0.5222,0.4455,0.0035,0.0639,0.1426,-0.0617,2.9940,1.3548,2.9199
2024-10-11T13:53:35.888Z,0.0957,-1.0274,0.2150,-0.5222,0.4455,0.0035,0.0656,0.1370,-0.0519,2.9940,1.3548,2.9199
2024-10-11T13:53:35.898Z,0.0943,-1.0301,0.2180,-0.5222,0.4455,0.0035,0.0683,0.1239,-0.0410,2.9940,1.3548,2.9199
2024-10-11T13:53:35.908Z,0.0955,-1.0317,0.2235,-0.4789,0.5377,-0.1086,0.0649,0.1213,-0.0330,2.9987,1.3525,2.9191
2024-10-11T13:53:35.918Z,0.0894,-1.0320,0.2282,-0.4789,0.5377,-0.1086,0.0668,0.1130,-0.0194,2.9987,1.3525,2.9191
2024-10-11T13:53:35.931Z,0.0889,-1.0307,0.2323,-0.3858,0.5202,-0.2097,0.0693,0.1075,-0.0073,2.9988,1.3505,2.9220
2024-10-11T13:53:35.938Z,0.0843,-1.0289,0.2356,-0.3858,0.5202,-0.2097,0.0678,0.0934,0.0047,2.9988,1.3505,2.9220
2024-10-11T13:53:35.948Z,0.0791,-1.0268,0.2356,-0.3858,0.5202,-0.2097,0.0689,0.0806,0.0216,2.9988,1.3505,2.9220
2024-10-11T13:53:35.959Z,0.0683,-1.0244,0.2383,-0.3858,0.5202,-0.2097,0.0657,0.0669,0.0318,2.9988,1.3505,2.9220
2024-10-11T13:53:35.969Z,0.0643,-1.0230,0.2361,-0.2405,0.4849,-0.2271,0.0658,0.0508,0.0447,2.9937,1.3487,2.9291
2024-10-11T13:53:35.980Z,0.0643,-1.0230,0.2361,-0.2405,0.4849,-0.2271,0.0617,0.0356,0.0592,2.9937,1.3487,2.9291
2024-10-11T13:53:35.988Z,0.0600,-1.0217,0.2386,-0.2405,0.4849,-0.2271,0.0604,0.0247,0.0713,2.9937,1.3487,2.9291
2024-10-11T13:53:35.998Z,0.0525,-1.0163,0.2414,-0.1028,0.4319,-0.2296,0.0533,0.0126,0.0831,2.9834,1.3472,2.9398
2024-10-11T13:53:36.009Z,0.0424,-1.0116,0.2371,-0.1028,0.4319,-0.2296,0.0514,-0.0022,0.0940,2.9834,1.3472,2.9398
2024-10-11T13:53:36.018Z,0.0424,-1.0116,0.2371,-0.1028,0.4319,-0.2296,0.0475,-0.0117,0.0991,2.9834,1.3472,2.9398
2024-10-11T13:53:36.030Z,0.0361,-1.0116,0.2340,0.0303,0.3632,-0.1604,0.0388,-0.0191,0.1114,2.9691,1.3463,2.9533
2024-10-11T13:53:36.038Z,0.0296,-1.0118,0.2305,0.0303,0.3632,-0.1604,0.0329,-0.0338,0.1165,2.9691,1.3463,2.9533
2024-10-11T13:53:36.048Z,0.0271,-1.0126,0.2245,0.0303,0.3632,-0.1604,0.0235,-0.0396,0.1206,2.9691,1.3463,2.9533
2024-10-11T13:53:36.059Z,0.0263,-1.0065,0.2195,0.1261,0.3583,-0.0303,0.0205,-0.0513,0.1253,2.9526,1.3460,2.9681
2024-10-11T13:53:36.069Z,0.0237,-1.0055,0.2154,0.1261,0.3583,-0.0303,0.0136,-0.0654,0.1287,2.9526,1.3460,2.9681
2024-10-11T13:53:36.082Z,0.0160,-1.0051,0.2149,0.1667,0.3005,0.0514,0.0037,-0.0750,0.1301,2.9352,1.3464,2.9829
2024-10-11T13:53:36.088Z,0.0160,-1.0051,0.2149,0.1667,0.3005,0.0514,-0.0004,-0.0839,0.1275,2.9352,1.3464,2.9829
2024-10-11T13:53:36.099Z,0.0218,-1.0013,0.2166,0.1667,0.3005,0.0514,-0.0075,-0.0963,0.1303,2.9352,1.3464,2.9829
2024-10-11T13:53:36.109Z,0.0186,-1.0015,0.2118,0.1667,0.3005,0.0514,-0.0134,-0.1044,0.1252,2.9352,1.3464,2.9829
2024-10-11T13:53:36.118Z,0.0159,-0.9982,0.2136,0.1288,0.2508,0.0643,-0.0169,-0.1125,0.1252,2.9182,1.3471,2.9963
2024-10-11T13:53:36.130Z,0.0088,-0.9967,0.2105,0.1288,0.2508,0.0643,-0.0240,-0.1190,0.1234,2.9182,1.3471,2.9963
2024-10-11T13:53:36.139Z,0.0139,-0.9932,0.2126,0.1288,0.2508,0.0643,-0.0217,-0.1367,0.1219,2.9182,1.3471,2.9963
2024-10-11T13:53:36.149Z,0.0058,-0.9817,0.2157,0.2057,0.1945,0.0728,-0.0254,-0.1383,0.1204,2.9023,1.3483,3.0081
2024-10-11T13:53:36.159Z,-0.0105,-0.9692,0.2206,0.2057,0.1945,0.0728,-0.0328,-0.1266,0.1177,2.9023,1.3483,3.0081
2024-10-11T13:53:36.169Z,-0.0139,-0.9534,0.2231,0.2057,0.1945,0.0728,-0.0422,-0.1258,0.1132,2.9023,1.3483,3.0081
2024-10-11T13:53:36.180Z,-0.0234,-0.9322,0.2304,0.3747,-0.1494,-0.0470,-0.0503,-0.1248,0.1059,2.8875,1.3499,3.0187
2024-10-11T13:53:36.188Z,-0.0234,-0.9322,0.2304,0.3747,-0.1494,-0.0470,-0.0598,-0.1249,0.1009,2.8875,1.3499,3.0187
2024-10-11T13:53:36.199Z,-0.0239,-0.8906,0.2452,0.3747,-0.1494,-0.0470,-0.0689,-0.1279,0.0964,2.8875,1.3499,3.0187
2024-10-11T13:53:36.209Z,-0.0271,-0.8690,0.2526,0.4410,-0.7574,-0.2547,-0.0763,-0.1332,0.0933,2.8745,1.3520,3.0273
2024-10-11T13:53:36.217Z,-0.0271,-0.8690,0.2526,0.4410,-0.7574,-0.2547,-0.0840,-0.1416,0.0898,2.8745,1.3520,3.0273
2024-10-11T13:53:36.229Z,-0.0416,-0.8332,0.2637,0.4410,-0.7574,-0.2547,-0.0861,-0.1458,0.0852,2.8745,1.3520,3.0273
2024-10-11T13:53:36.237Z,-0.0416,-0.8332,0.2637,0.5870,-1.3455,-0.4888,-0.0882,-0.1488,0.0820,2.8631,1.3548,3.0339
2024-10-11T13:53:36.249Z,-0.0482,-0.8058,0.2764,0.5870,-1.3455,-0.4888,-0.0842,-0.1625,0.0830,2.8631,1.3548,3.0339
2024-10-11T13:53:36.259Z,-0.0597,-0.7933,0.2791,0.5870,-1.3455,-0.4888,-0.0808,-0.1643,0.0835,2.8631,1.3548,3.0339
2024-10-11T13:53:36.268Z,-0.0692,-0.7820,0.2772,0.7477,-1.7655,-0.6593,-0.0746,-0.1661,0.0818,2.8526,1.3575,3.0391
2024-10-11T13:53:36.278Z,-0.0743,-0.7681,0.2744,0.7477,-1.7655,-0.6593,-0.0665,-0.1731,0.0829,2.8526,1.3575,3.0391
2024-10-11T13:53:36.289Z,-0.0809,-0.7592,0.2719,0.7477,-1.7655,-0.6593,-0.0531,-0.1780,0.0838,2.8526,1.3575,3.0391
2024-10-11T13:53:36.297Z,-0.0809,-0.7592,0.2719,0.9652,-2.1200,-0.6244,-0.0442,-0.1852,0.0839,2.8415,1.3595,3.0444
2024-10-11T13:53:36.307Z,-0.0786,-0.7513,0.2724,0.9652,-2.1200,-0.6244,-0.0345,-0.1882,0.0861,2.8415,1.3595,3.0444
2024-10-11T13:53:36.318Z,-0.0842,-0.7489,0.2542,0.9652,-2.1200,-0.6244,-0.0208,-0.1990,0.0893,2.8415,1.3595,3.0444
2024-10-11T13:53:36.328Z,-0.0839,-0.7541,0.2488,1.0148,-2.2568,-0.4929,-0.0113,-0.2141,0.0945,2.8292,1.3606,3.0503
2024-10-11T13:53:36.339Z,-0.0835,-0.7643,0.2427,1.0148,-2.2568,-0.4929,-0.0039,-0.2248,0.1013,2.8292,1.3606,3.0503
2024-10-11T13:53:36.349Z,-0.0666,-0.7776,0.2272,1.0148,-2.2568,-0.4929,0.0041,-0.2291,0.1033,2.8292,1.3606,3.0503
2024-10-11T13:53:36.358Z,-0.0640,-0.8010,0.2141,0.8687,-2.0272,-0.2529,0.0107,-0.2421,0.1129,2.8147,1.3610,3.0576
2024-10-11T13:53:36.368Z,-0.0632,-0.8317,0.2008,0.8687,-2.0272,-0.2529,0.0212,-0.2554,0.1226,2.8147,1.3610,3.0576
2024-10-11T13:53:36.378Z,-0.0620,-0.8683,0.1840,0.8687,-2.0272,-0.2529,0.0309,-0.2575,0.1312,2.8147,1.3610,3.0576
2024-10-11T13:53:36.388Z,-0.0408,-0.9140,0.1568,0.7578,-1.2207,0.1752,0.0439,-0.2711,0.1390,2.7965,1.3606,3.0677
2024-10-11T13:53:36.398Z,-0.0408,-0.9140,0.1568,0.7578,-1.2207,0.1752,0.0515,-0.2870,0.1537,2.7965,1.3606,3.0677
2024-10-11T13:53:36.408Z,-0.0437,-1.0303,0.0744,0.7578,-1.2207,0.1752,0.0595,-0.2916,0.1661,2.7965,1.3606,3.0677
2024-10-11T13:53:36.418Z,-0.0206,-1.0752,0.0475,0.5480,0.3058,1.1845,0.0699,-0.3117,0.1816,2.7733,1.3592,3.0816
2024-10-11T13:53:36.428Z,-0.0414,-1.1047,0.0371,0.5480,0.3058,1.1845,0.0835,-0.3056,0.1953,2.7733,1.3592,3.0816
2024-10-11T13:53:36.438Z,-0.0554,-1.1244,0.0405,0.5480,0.3058,1.1845,0.0933,-0.3007,0.1991,2.7733,1.3592,3.0816
2024-10-11T13:53:36.449Z,-0.0397,-1.1240,0.0504,0.7788,1.4104,1.7309,0.1014,-0.2595,0.1951,2.7453,1.3570,3.1001
2024-10-11T13:53:36.458Z,-0.0892,-1.1363,0.0726,0.7788,1.4104,1.7309,0.1093,-0.2047,0.1894,2.7453,1.3570,3.1001
2024-10-11T13:53:36.468Z,-0.0482,-1.1393,0.0948,0.7788,1.4104,1.7309,0.1067,-0.1626,0.1796,2.7453,1.3570,3.1001
2024-10-11T13:53:36.478Z,-0.1010,-1.1345,0.1087,0.5437,1.6190,1.2496,0.1065,-0.0960,0.1639,2.7187,1.3539,3.1200
2024-10-11T13:53:36.488Z,-0.0788,-1.1389,0.1205,0.5437,1.6190,1.2496,0.1081,-0.0585,0.1489,2.7187,1.3539,3.1200
2024-10-11T13:53:36.498Z,-0.0813,-1.1363,0.1239,0.5437,1.6190,1.2496,0.1048,-0.0125,0.1341,2.7187,1.3539,3.1200
2024-10-11T13:53:36.508Z,-0.0714,-1.1349,0.1329,0.7333,1.5890,0.9433,0.1045,0.0232,0.1169,2.6982,1.3507,3.1383
2024-10-11T13:53:36.518Z,-0.0502,-1.1311,0.1454,0.7333,1.5890,0.9433,0.1058,0.0492,0.1059,2.6982,1.3507,3.1383
2024-10-11T13:53:36.529Z,-0.0662,-1.1159,0.1574,0.5705,1.4419,0.6907,0.1043,0.0783,0.0967,2.6838,1.3475,-3.1294
2024-10-11T13:53:36.538Z,-0.0503,-1.1077,0.1783,0.5705,1.4419,0.6907,0.1011,0.0940,0.0864,2.6838,1.3475,-3.1294
2024-10-11T13:53:36.548Z,-0.0535,-1.0995,0.1945,0.5705,1.4419,0.6907,0.1002,0.1211,0.0758,2.6838,1.3475,-3.1294
2024-10-11T13:53:36.559Z,-0.0478,-1.0949,0.2048,0.4654,1.1982,0.2402,0.0991,0.1395,0.0642,2.6741,1.3445,-3.1163
2024-10-11T13:53:36.568Z,-0.0393,-1.0843,0.2221,0.4654,1.1982,0.2402,0.0931,0.1579,0.0536,2.6741,1.3445,-3.1163
2024-10-11T13:53:36.578Z,-0.0440,-1.0720,0.2350,0.4654,1.1982,0.2402,0.0922,0.1783,0.0446,2.6741,1.3445,-3.1163
2024-10-11T13:53:36.589Z,-0.0249,-1.0566,0.2474,0.2518,0.8525,-0.1649,0.0902,0.1854,0.0380,2.6685,1.3418,-3.1057
2024-10-11T13:53:36.599Z,-0.0249,-1.0566,0.2474,0.2518,0.8525,-0.1649,0.0836,0.1935,0.0318,2.6685,1.3418,-3.1057
2024-10-11T13:53:36.608Z,-0.0243,-1.0412,0.2646,0.2518,0.8525,-0.1649,0.0762,0.2042,0.0244,2.6685,1.3418,-3.1057
2024-10-11T13:53:36.619Z,-0.0202,-1.0330,0.2745,0.0864,0.6055,-0.4031,0.0719,0.2074,0.0149,2.6658,1.3395,-3.0971
2024-10-11T13:53:36.628Z,-0.0287,-1.0281,0.2871,0.0864,0.6055,-0.4031,0.0686,0.2226,0.0040,2.6658,1.3395,-3.0971
2024-10-11T13:53:36.638Z,-0.0189,-1.0218,0.2940,0.0864,0.6055,-0.4031,0.0562,0.2345,-0.0105,2.6658,1.3395,-3.0971
2024-10-11T13:53:36.649Z,-0.0189,-1.0218,0.2940,0.0366,0.4620,-0.6194,0.0490,0.2480,-0.0256,2.6675,1.3378,-3.0918
2024-10-11T13:53:36.658Z,-0.0050,-1.0187,0.2963,0.0366,0.4620,-0.6194,0.0397,0.2568,-0.0377,2.6675,1.3378,-3.0918
2024-10-11T13:53:36.668Z,-0.0057,-1.0229,0.2959,0.0366,0.4620,-0.6194,0.0345,0.2675,-0.0555,2.6675,1.3378,-3.0918
2024-10-11T13:53:36.679Z,0.0031,-1.0286,0.2972,-0.0971,0.5246,-0.6375,0.0276,0.2743,-0.0725,2.6750,1.3370,-3.0913
2024-10-11T13:53:36.688Z,0.0145,-1.0348,0.2990,-0.0971,0.5246,-0.6375,0.0218,0.2741,-0.0863,2.6750,1.3370,-3.0913
2024-10-11T13:53:36.699Z,0.0233,-1.0417,0.2995,-0.0971,0.5246,-0.6375,0.0154,0.2703,-0.0986,2.6750,1.3370,-3.0913
2024-10-11T13:53:36.710Z,0.0425,-1.0488,0.2994,-0.4539,0.7180,-0.6600,0.0128,0.2569,-0.1093,2.6879,1.3366,-3.0963
2024-10-11T13:53:36.718Z,0.0548,-1.0571,0.2969,-0.4539,0.7180,-0.6600,0.0067,0.2393,-0.1159,2.6879,1.3366,-3.0963
2024-10-11T13:53:36.728Z,0.0743,-1.0686,0.2802,-0.4539,0.7180,-0.6600,0.0004,0.2235,-0.1216,2.6879,1.3366,-3.0963
2024-10-11T13:53:36.739Z,0.0968,-1.0782,0.2655,-0.9503,1.0133,-0.3952,-0.0039,0.2062,-0.1250,2.7034,1.3367,-3.1051
2024-10-11T13:53:36.749Z,0.1225,-1.0837,0.2374,-0.9503,1.0133,-0.3952,-0.0054,0.1965,-0.1238,2.7034,1.3367,-3.1051
2024-10-11T13:53:36.758Z,0.1644,-1.0888,0.2189,-0.9503,1.0133,-0.3952,-0.0077,0.1740,-0.1158,2.7034,1.3367,-3.1051
2024-10-11T13:53:36.769Z,0.1461,-1.0825,0.2324,-1.6335,1.1018,0.0343,-0.0123,0.1589,-0.1137,2.7183,1.3371,-3.1147
2024-10-11T13:53:36.778Z,0.1322,-1.0834,0.2423,-1.6335,1.1018,0.0343,-0.0190,0.1413,-0.1129,2.7183,1.3371,-3.1147
2024-10-11T13:53:36.788Z,0.1435,-1.0737,0.2352,-1.6335,1.1018,0.0343,-0.0229,0.1248,-0.1103,2.7183,1.3371,-3.1147
2024-10-11T13:53:36.799Z,0.1435,-1.0737,0.2352,-1.4042,0.9161,-0.0259,-0.0319,0.1083,-0.1084,2.7322,1.3379,-3.1249
2024-10-11T13:53:36.808Z,0.1386,-1.0469,0.2365,-1.4042,0.9161,-0.0259,-0.0375,0.0884,-0.1080,2.7322,1.3379,-3.1249
2024-10-11T13:53:36.818Z,0.1320,-1.0316,0.2372,-1.4042,0.9161,-0.0259,-0.0425,0.0721,-0.1057,2.7322,1.3379,-3.1249
2024-10-11T13:53:36.828Z,0.1320,-1.0316,0.2372,-1.3023,0.4664,-0.0542,-0.0499,0.0562,-0.1014,2.7454,1.3393,-3.1360
2024-10-11T13:53:36.838Z,0.1244,-1.0003,0.2272,-1.3023,0.4664,-0.0542,-0.0534,0.0427,-0.1001,2.7454,1.3393,-3.1360
2024-10-11T13:53:36.848Z,0.1213,-0.9833,0.2212,-1.3023,0.4664,-0.0542,-0.0554,0.0268,-0.0982,2.7454,1.3393,-3.1360
2024-10-11T13:53:36.858Z,0.1160,-0.9656,0.2185,-1.1224,-0.0215,0.1018,-0.0579,0.0187,-0.0964,2.7583,1.3410,3.1353
2024-10-11T13:53:36.869Z,0.1140,-0.9489,0.2186,-1.1224,-0.0215,0.1018,-0.0625,0.0081,-0.0949,2.7583,1.3410,3.1353
2024-10-11T13:53:36.878Z,0.1021,-0.9335,0.2210,-1.1224,-0.0215,0.1018,-0.0666,0.0000,-0.0947,2.7583,1.3410,3.1353
2024-10-11T13:53:36.889Z,0.1020,-0.9170,0.2242,-0.9362,-0.4906,0.0127,-0.0705,-0.0095,-0.0939,2.7708,1.3429,3.1227
2024-10-11T13:53:36.899Z,0.0969,-0.8992,0.2181,-0.9362,-0.4906,0.0127,-0.0745,-0.0247,-0.0933,2.7708,1.3429,3.1227
2024-10-11T13:53:36.908Z,0.0862,-0.8873,0.2143,-0.9362,-0.4906,0.0127,-0.0768,-0.0310,-0.0944,2.7708,1.3429,3.1227
2024-10-11T13:53:36.919Z,0.0843,-0.8750,0.2164,-0.7646,-0.9268,0.0807,-0.0793,-0.0434,-0.0911,2.7832,1.3451,3.1094
2024-10-11T13:53:36.928Z,0.0763,-0.8627,0.2209,-0.7646,-0.9268,0.0807,-0.0848,-0.0561,-0.0910,2.7832,1.3451,3.1094
2024-10-11T13:53:36.938Z,0.0641,-0.8560,0.2203,-0.7646,-0.9268,0.0807,-0.0901,-0.0700,-0.0926,2.7832,1.3451,3.1094
2024-10-11T13:53:36.949Z,0.0641,-0.8560,0.2203,-0.4640,-1.1871,0.0240,-0.0962,-0.0786,-0.0930,2.7960,1.3478,3.0946
2024-10-11T13:53:36.958Z,0.0629,-0.8518,0.2045,-0.4640,-1.1871,0.0240,-0.0952,-0.0932,-0.0945,2.7960,1.3478,3.0946
2024-10-11T13:53:36.968Z,0.0562,-0.8537,0.1944,-0.4640,-1.1871,0.0240,-0.1001,-0.0956,-0.0949,2.7960,1.3478,3.0946
2024-10-11T13:53:36.978Z,0.0417,-0.8591,0.1822,-0.3169,-1.1737,0.3135,-0.0985,-0.1039,-0.0970,2.8097,1.3506,3.0782
2024-10-11T13:53:36.988Z,0.0376,-0.8681,0.1734,-0.3169,-1.1737,0.3135,-0.0980,-0.1093,-0.1008,2.8097,1.3506,3.0782
2024-10-11T13:53:36.998Z,0.0397,-0.8749,0.1670,-0.3169,-1.1737,0.3135,-0.0896,-0.1238,-0.1015,2.8097,1.3506,3.0782
2024-10-11T13:53:37.008Z,0.0417,-0.8836,0.1680,-0.2382,-0.9433,0.4833,-0.0878,-0.1351,-0.1036,2.8245,1.3530,3.0597
2024-10-11T13:53:37.018Z,0.0396,-0.8912,0.1739,-0.2382,-0.9433,0.4833,-0.0828,-0.1482,-0.1038,2.8245,1.3530,3.0597
2024-10-11T13:53:37.028Z,0.0420,-0.8995,0.1759,-0.2382,-0.9433,0.4833,-0.0788,-0.1627,-0.0994,2.8245,1.3530,3.0597
2024-10-11T13:53:37.038Z,0.0420,-0.8995,0.1759,-0.2474,-0.7420,0.3373,-0.0770,-0.1775,-0.0978,2.8393,1.3551,3.0400
2024-10-11T13:53:37.049Z,0.0488,-0.9047,0.1869,-0.2474,-0.7420,0.3373,-0.0756,-0.1860,-0.0932,2.8393,1.3551,3.0400
2024-10-11T13:53:37.058Z,0.0444,-0.9052,0.1969,-0.2474,-0.7420,0.3373,-0.0746,-0.1910,-0.0833,2.8393,1.3551,3.0400
2024-10-11T13:53:37.069Z,0.0370,-0.9070,0.2066,-0.1349,-0.6966,0.0768,-0.0754,-0.1893,-0.0801,2.8526,1.3570,3.0211
2024-10-11T13:53:37.078Z,0.0307,-0.9124,0.2158,-0.1349,-0.6966,0.0768,-0.0753,-0.1850,-0.0777,2.8526,1.3570,3.0211
2024-10-11T13:53:37.088Z,0.0228,-0.9158,0.2255,-0.1349,-0.6966,0.0768,-0.0758,-0.1679,-0.0776,2.8526,1.3570,3.0211
2024-10-11T13:53:37.100Z,0.0168,-0.9185,0.2331,0.0940,-0.5896,-0.2177,-0.0750,-0.1446,-0.0809,2.8652,1.3589,3.0038
2024-10-11T13:53:37.108Z,-0.0002,-0.9237,0.2390,0.0940,-0.5896,-0.2177,-0.0706,-0.1202,-0.0894,2.8652,1.3589,3.0038
2024-10-11T13:53:37.118Z,-0.0103,-0.9279,0.2420,0.0940,-0.5896,-0.2177,-0.0651,-0.0915,-0.0948,2.8652,1.3589,3.0038
2024-10-11T13:53:37.128Z,-0.0098,-0.9352,0.2421,0.4140,-0.4502,-0.3492,-0.0603,-0.0634,-0.1037,2.8802,1.3604,2.9863
2024-10-11T13:53:37.138Z,-0.0189,-0.9466,0.2389,0.4140,-0.4502,-0.3492,-0.0547,-0.0266,-0.1125,2.8802,1.3604,2.9863
2024-10-11T13:53:37.148Z,-0.0226,-0.9574,0.2362,0.4140,-0.4502,-0.3492,-0.0501,0.0117,-0.1251,2.8802,1.3604,2.9863
2024-10-11T13:53:37.158Z,-0.0361,-0.9668,0.2310,0.6548,-0.1506,-0.2757,-0.0441,0.0495,-0.1383,2.8994,1.3611,2.9679
2024-10-11T13:53:37.167Z,-0.0288,-0.9762,0.2244,0.6548,-0.1506,-0.2757,-0.0357,0.0905,-0.1527,2.8994,1.3611,2.9679
2024-10-11T13:53:37.178Z,-0.0198,-0.9889,0.2184,0.6548,-0.1506,-0.2757,-0.0331,0.1223,-0.1653,2.8994,1.3611,2.9679
2024-10-11T13:53:37.188Z,-0.0120,-1.0023,0.2081,0.5507,0.1912,-0.0840,-0.0305,0.1536,-0.1734,2.9236,1.3612,2.9479
2024-10-11T13:53:37.198Z,-0.0075,-1.0145,0.1952,0.5507,0.1912,-0.0840,-0.0302,0.1828,-0.1866,2.9236,1.3612,2.9479
2024-10-11T13:53:37.208Z,0.0033,-1.0211,0.1797,0.5507,0.1912,-0.0840,-0.0291,0.2047,-0.1946,2.9236,1.3612,2.9479
2024-10-11T13:53:37.218Z,0.0033,-1.0211,0.1797,0.3461,0.4113,0.3213,-0.0257,0.2170,-0.2002,2.9518,1.3608,2.9263
2024-10-11T13:53:37.228Z,0.0168,-1.0191,0.1572,0.3461,0.4113,0.3213,-0.0227,0.2221,-0.2048,2.9518,1.3608,2.9263
2024-10-11T13:53:37.238Z,0.0235,-1.0146,0.1503,0.3461,0.4113,0.3213,-0.0167,0.2190,-0.2096,2.9518,1.3608,2.9263
2024-10-11T13:53:37.248Z,0.0235,-1.0146,0.1503,0.2110,0.3426,0.5439,-0.0112,0.2173,-0.2119,2.9813,1.3598,2.9037
2024-10-11T13:53:37.258Z,0.0369,-1.0065,0.1371,0.2110,0.3426,0.5439,-0.0037,0.2118,-0.2105,2.9813,1.3598,2.9037
2024-10-11T13:53:37.267Z,0.0444,-1.0033,0.1324,0.2110,0.3426,0.5439,0.0047,0.2131,-0.2123,2.9813,1.3598,2.9037
2024-10-11T13:53:37.278Z,0.0672,-0.9971,0.1313,-0.0645,0.2312,0.7151,0.0191,0.1927,-0.2110,3.0103,1.3580,2.8816
2024-10-11T13:53:37.288Z,0.0685,-0.9902,0.1250,-0.0645,0.2312,0.7151,0.0312,0.1936,-0.2131,3.0103,1.3580,2.8816
2024-10-11T13:53:37.299Z,0.0766,-0.9890,0.1184,-0.0645,0.2312,0.7151,0.0422,0.1941,-0.2117,3.0103,1.3580,2.8816
2024-10-11T13:53:37.308Z,0.0951,-0.9793,0.1153,-0.2743,0.0657,0.8759,0.0553,0.1861,-0.2075,3.0370,1.3551,2.8610
2024-10-11T13:53:37.317Z,0.1036,-0.9738,0.1136,-0.2743,0.0657,0.8759,0.0701,0.1762,-0.2044,3.0370,1.3551,2.8610
2024-10-11T13:53:37.328Z,0.1172,-0.9666,0.1103,-0.2743,0.0657,0.8759,0.0850,0.1677,-0.1975,3.0370,1.3551,2.8610
2024-10-11T13:53:37.338Z,0.1264,-0.9632,0.1024,-0.5771,-0.1123,1.0243,0.0974,0.1595,-0.1904,3.0592,1.3509,2.8440
2024-10-11T13:53:37.348Z,0.1387,-0.9594,0.0996,-0.5771,-0.1123,1.0243,0.1069,0.1568,-0.1818,3.0592,1.3509,2.8440
2024-10-11T13:53:37.358Z,0.1593,-0.9525,0.0991,-0.5771,-0.1123,1.0243,0.1216,0.1504,-0.1687,3.0592,1.3509,2.8440
2024-10-11T13:53:37.368Z,0.1683,-0.9470,0.0993,-0.9793,-0.2552,1.1213,0.1325,0.1426,-0.1577,3.0754,1.3459,2.8323
2024-10-11T13:53:37.378Z,0.1678,-0.9451,0.1033,-0.9793,-0.2552,1.1213,0.1378,0.1388,-0.1439,3.0754,1.3459,2.8323
2024-10-11T13:53:37.388Z,0.1645,-0.9468,0.1122,-0.9793,-0.2552,1.1213,0.1501,0.1304,-0.1298,3.0754,1.3459,2.8323
2024-10-11T13:53:37.399Z,0.1627,-0.9465,0.1244,-0.9098,-0.2668,0.9578,0.1571,0.1221,-0.1134,3.0851,1.3405,2.8264
2024-10-11T13:53:37.408Z,0.1570,-0.9508,0.1365,-0.9098,-0.2668,0.9578,0.1640,0.1127,-0.1031,3.0851,1.3405,2.8264
2024-10-11T13:53:37.418Z,0.1561,-0.9522,0.1526,-0.9098,-0.2668,0.9578,0.1702,0.1015,-0.0870,3.0851,1.3405,2.8264
2024-10-11T13:53:37.428Z,0.1486,-0.9597,0.1708,-0.7641,-0.1459,0.5646,0.1730,0.0956,-0.0739,3.0886,1.3348,2.8258
2024-10-11T13:53:37.438Z,0.1445,-0.9646,0.1906,-0.7641,-0.1459,0.5646,0.1764,0.0863,-0.0559,3.0886,1.3348,2.8258
2024-10-11T13:53:37.448Z,0.1375,-0.9692,0.2063,-0.7641,-0.1459,0.5646,0.1780,0.0782,-0.0436,3.0886,1.3348,2.8258
2024-10-11T13:53:37.458Z,0.1295,-0.9738,0.2207,-0.5767,0.0084,0.1133,0.1785,0.0721,-0.0314,3.0864,1.3294,2.8301
2024-10-11T13:53:37.468Z,0.1214,-0.9818,0.2339,-0.5767,0.0084,0.1133,0.1746,0.0737,-0.0188,3.0864,1.3294,2.8301
2024-10-11T13:53:37.478Z,0.1066,-0.9889,0.2635,-0.5767,0.0084,0.1133,0.1703,0.0732,-0.0070,3.0864,1.3294,2.8301
2024-10-11T13:53:37.488Z,0.1037,-0.9974,0.3009,-0.2852,0.2395,-0.5919,0.1633,0.0728,0.0022,3.0806,1.3246,2.8376
2024-10-11T13:53:37.499Z,0.1067,-1.0066,0.3035,-0.2852,0.2395,-0.5919,0.1519,0.0701,0.0134,3.0806,1.3246,2.8376
2024-10-11T13:53:37.508Z,0.0986,-1.0158,0.3162,-0.2852,0.2395,-0.5919,0.1395,0.0692,0.0225,3.0806,1.3246,2.8376
2024-10-11T13:53:37.519Z,0.0948,-1.0210,0.3366,-0.2393,0.4867,-0.8986,0.1287,0.0627,0.0337,3.0726,1.3209,2.8470
2024-10-11T13:53:37.528Z,0.0896,-1.0287,0.3549,-0.2393,0.4867,-0.8986,0.1121,0.0576,0.0408,3.0726,1.3209,2.8470
2024-10-11T13:53:37.538Z,0.0854,-1.0309,0.3651,-0.2393,0.4867,-0.8986,0.0951,0.0522,0.0495,3.0726,1.3209,2.8470
2024-10-11T13:53:37.549Z,0.0828,-1.0298,0.3766,-0.1468,0.6031,-1.3080,0.0742,0.0455,0.0567,3.0637,1.3188,2.8569
2024-10-11T13:53:37.558Z,0.0773,-1.0326,0.3855,-0.1468,0.6031,-1.3080,0.0585,0.0380,0.0615,3.0637,1.3188,2.8569
2024-10-11T13:53:37.568Z,0.0789,-1.0315,0.3936,-0.1468,0.6031,-1.3080,0.0361,0.0314,0.0655,3.0637,1.3188,2.8569
2024-10-11T13:53:37.578Z,0.0777,-1.0285,0.3940,-0.0939,0.6039,-1.5182,0.0140,0.0234,0.0702,3.0551,1.3184,2.8658
2024-10-11T13:53:37.588Z,0.0780,-1.0247,0.3885,-0.0939,0.6039,-1.5182,-0.0005,0.0165,0.0722,3.0551,1.3184,2.8658
2024-10-11T13:53:37.598Z,0.0763,-1.0191,0.3872,-0.0939,0.6039,-1.5182,-0.0216,0.0076,0.0761,3.0551,1.3184,2.8658
2024-10-11T13:53:37.608Z,0.0594,-1.0160,0.3707,-0.0173,0.4732,-1.3885,-0.0358,-0.0054,0.0742,3.0473,1.3198,2.8733
2024-10-11T13:53:37.618Z,0.0474,-1.0121,0.3363,-0.0173,0.4732,-1.3885,-0.0497,-0.0111,0.0724,3.0473,1.3198,2.8733
2024-10-11T13:53:37.628Z,0.0478,-1.0057,0.3548,-0.0173,0.4732,-1.3885,-0.0656,-0.0284,0.0738,3.0473,1.3198,2.8733
2024-10-11T13:53:37.638Z,0.0555,-0.9986,0.3617,0.1299,0.3140,-1.2237,-0.0821,-0.0307,0.0730,3.0412,1.3223,2.8783
2024-10-11T13:53:37.649Z,0.0676,-0.9969,0.3495,0.1299,0.3140,-1.2237,-0.0983,-0.0320,0.0722,3.0412,1.3223,2.8783
2024-10-11T13:53:37.658Z,0.0676,-0.9931,0.3297,0.1299,0.3140,-1.2237,-0.1071,-0.0278,0.0758,3.0412,1.3223,2.8783
2024-10-11T13:53:37.669Z,0.0833,-0.9885,0.2966,-0.1233,0.1939,-0.7320,-0.1166,-0.0212,0.0764,3.0355,1.3260,2.8828
2024-10-11T13:53:37.678Z,0.0941,-0.9832,0.2703,-0.1233,0.1939,-0.7320,-0.1221,-0.0145,0.0830,3.0355,1.3260,2.8828
2024-10-11T13:53:37.688Z,0.1031,-0.9743,0.2584,-0.1233,0.1939,-0.7320,-0.1241,-0.0054,0.0938,3.0355,1.3260,2.8828
2024-10-11T13:53:37.699Z,0.1134,-0.9651,0.2504,-0.5105,-0.0213,-0.2293,-0.1249,0.0028,0.1002,3.0279,1.3303,2.8899
2024-10-11T13:53:37.708Z,0.1128,-0.9558,0.2424,-0.5105,-0.0213,-0.2293,-0.1267,0.0181,0.1072,3.0279,1.3303,2.8899
2024-10-11T13:53:37.718Z,0.1166,-0.9496,0.2320,-0.5105,-0.0213,-0.2293,-0.1291,0.0245,0.1200,3.0279,1.3303,2.8899
2024-10-11T13:53:37.728Z,0.1103,-0.9445,0.2175,-0.5702,-0.2546,0.0365,-0.1292,0.0362,0.1273,3.0169,1.3349,2.9011
2024-10-11T13:53:37.738Z,0.1079,-0.9411,0.2010,-0.5702,-0.2546,0.0365,-0.1296,0.0442,0.1369,3.0169,1.3349,2.9011
2024-10-11T13:53:37.750Z,0.1022,-0.9412,0.1853,-0.5702,-0.2546,0.0365,-0.1294,0.0545,0.1472,3.0169,1.3349,2.9011
2024-10-11T13:53:37.758Z,0.0961,-0.9419,0.1674,-0.4681,-0.3118,0.4796,-0.1204,0.0637,0.1566,3.0020,1.3396,2.9171
2024-10-11T13:53:37.768Z,0.0930,-0.9455,0.1516,-0.4681,-0.3118,0.4796,-0.1112,0.0748,0.1603,3.0020,1.3396,2.9171
2024-10-11T13:53:37.778Z,0.0858,-0.9491,0.1443,-0.4681,-0.3118,0.4796,-0.1054,0.0858,0.1665,3.0020,1.3396,2.9171
2024-10-11T13:53:37.788Z,0.0769,-0.9544,0.1395,-0.3290,-0.2130,0.7782,-0.0955,0.0952,0.1696,2.9832,1.3436,2.9377
2024-10-11T13:53:37.799Z,0.0797,-0.9543,0.1372,-0.3290,-0.2130,0.7782,-0.0870,0.1008,0.1747,2.9832,1.3436,2.9377
2024-10-11T13:53:37.808Z,0.0802,-0.9580,0.1360,-0.3290,-0.2130,0.7782,-0.0719,0.1076,0.1809,2.9832,1.3436,2.9377
2024-10-11T13:53:37.818Z,0.0838,-0.9576,0.1330,-0.4295,-0.1756,0.8258,-0.0605,0.1020,0.1861,2.9613,1.3467,2.9622
2024-10-11T13:53:37.828Z,0.0650,-0.9617,0.1336,-0.4295,-0.1756,0.8258,-0.0483,0.1087,0.1828,2.9613,1.3467,2.9622
2024-10-11T13:53:37.838Z,0.0661,-0.9664,0.1320,-0.4295,-0.1756,0.8258,-0.0378,0.1127,0.1875,2.9613,1.3467,2.9622
2024-10-11T13:53:37.848Z,0.0688,-0.9706,0.1318,-0.3530,-0.0608,0.8439,-0.0294,0.1149,0.1866,2.9374,1.3487,2.9887
2024-10-11T13:53:37.858Z,0.0620,-0.9763,0.1384,-0.3530,-0.0608,0.8439,-0.0165,0.1138,0.1881,2.9374,1.3487,2.9887
2024-10-11T13:53:37.868Z,0.0631,-0.9789,0.1480,-0.3530,-0.0608,0.8439,-0.0076,0.1118,0.1856,2.9374,1.3487,2.9887
2024-10-11T13:53:37.878Z,0.0643,-0.9796,0.1585,-0.3657,0.0252,0.6244,0.0018,0.1091,0.1864,2.9125,1.3496,3.0161
2024-10-11T13:53:37.888Z,0.0619,-0.9846,0.1675,-0.3657,0.0252,0.6244,0.0059,0.1049,0.1834,2.9125,1.3496,3.0161
2024-10-11T13:53:37.898Z,0.0625,-0.9851,0.1731,-0.3657,0.0252,0.6244,0.0131,0.1042,0.1858,2.9125,1.3496,3.0161
2024-10-11T13:53:37.908Z,0.0569,-0.9900,0.1792,-0.3731,0.1170,0.4125,0.0226,0.0963,0.1821,2.8876,1.3498,3.0431
2024-10-11T13:53:37.918Z,0.0489,-0.9920,0.1840,-0.3731,0.1170,0.4125,0.0215,0.0917,0.1777,2.8876,1.3498,3.0431
2024-10-11T13:53:37.928Z,0.0489,-0.9949,0.1932,-0.3731,0.1170,0.4125,0.0267,0.0833,0.1756,2.8876,1.3498,3.0431
2024-10-11T13:53:37.938Z,0.0430,-0.9932,0.2067,-0.2880,0.1834,0.1612,0.0292,0.0723,0.1751,2.8636,1.3494,3.0686
2024-10-11T13:53:37.949Z,0.0334,-0.9913,0.2150,-0.2880,0.1834,0.1612,0.0266,0.0627,0.1696,2.8636,1.3494,3.0686
2024-10-11T13:53:37.958Z,0.0257,-0.9898,0.2156,-0.2880,0.1834,0.1612,0.0293,0.0522,0.1654,2.8636,1.3494,3.0686
2024-10-11T13:53:37.968Z,0.0308,-0.9854,0.2135,-0.1535,0.1075,0.0485,0.0266,0.0443,0.1598,2.8412,1.3489,3.0918
2024-10-11T13:53:37.978Z,0.0431,-0.9836,0.2169,-0.1535,0.1075,0.0485,0.0301,0.0377,0.1578,2.8412,1.3489,3.0918
2024-10-11T13:53:37.988Z,0.0481,-0.9798,0.2223,-0.1535,0.1075,0.0485,0.0267,0.0303,0.1536,2.8412,1.3489,3.0918
2024-10-11T13:53:37.999Z,0.0521,-0.9779,0.2234,-0.4356,0.0357,-0.0166,0.0279,0.0233,0.1570,2.8197,1.3482,3.1133
2024-10-11T13:53:38.008Z,0.0560,-0.9744,0.2261,-0.4356,0.0357,-0.0166,0.0249,0.0150,0.1563,2.8197,1.3482,3.1133
2024-10-11T13:53:38.018Z,0.0594,-0.9710,0.2295,-0.4356,0.0357,-0.0166,0.0251,0.0086,0.1569,2.8197,1.3482,3.1133
2024-10-11T13:53:38.028Z,0.0613,-0.9698,0.2325,-0.5838,-0.0533,-0.0879,0.0251,-0.0023,0.1597,2.7982,1.3475,3.1342
2024-10-11T13:53:38.038Z,0.0505,-0.9635,0.2402,-0.5838,-0.0533,-0.0879,0.0235,-0.0091,0.1623,2.7982,1.3475,3.1342
2024-10-11T13:53:38.049Z,0.0408,-0.9519,0.2432,-0.5838,-0.0533,-0.0879,0.0204,-0.0139,0.1621,2.7982,1.3475,3.1342
2024-10-11T13:53:38.058Z,0.0331,-0.9390,0.2461,-0.3900,-0.3036,-0.2258,0.0185,-0.0229,0.1596,2.7766,1.3469,-3.1286
2024-10-11T13:53:38.068Z,0.0194,-0.9286,0.2463,-0.3900,-0.3036,-0.2258,0.0169,-0.0311,0.1596,2.7766,1.3469,-3.1286
2024-10-11T13:53:38.078Z,0.0075,-0.9198,0.2438,-0.3900,-0.3036,-0.2258,0.0161,-0.0378,0.1550,2.7766,1.3469,-3.1286
2024-10-11T13:53:38.088Z,-0.0030,-0.9103,0.2439,-0.0847,-0.6007,-0.1975,0.0123,-0.0455,0.1505,2.7561,1.3464,-3.1101
2024-10-11T13:53:38.100Z,-0.0170,-0.9036,0.2419,-0.0847,-0.6007,-0.1975,0.0070,-0.0527,0.1431,2.7561,1.3464,-3.1101
2024-10-11T13:53:38.108Z,-0.0229,-0.8991,0.2396,-0.0847,-0.6007,-0.1975,0.0056,-0.0650,0.1399,2.7561,1.3464,-3.1101
2024-10-11T13:53:38.118Z,-0.0303,-0.8916,0.2311,0.1669,-0.7925,-0.1164,0.0036,-0.0714,0.1321,2.7383,1.3460,-3.0950
2024-10-11T13:53:38.129Z,-0.0378,-0.8893,0.2216,0.1669,-0.7925,-0.1164,0.0041,-0.0884,0.1172,2.7383,1.3460,-3.0950
2024-10-11T13:53:38.138Z,-0.0444,-0.8905,0.2124,0.1669,-0.7925,-0.1164,0.0041,-0.0884,0.1172,2.7383,1.3460,-3.0950
2024-10-11T13:53:38.149Z,-0.0455,-0.8935,0.2035,0.3108,-0.8132,0.1646,0.0051,-0.0934,0.1119,2.7228,1.3457,-3.0829
2024-10-11T13:53:38.158Z,-0.0496,-0.8963,0.1998,0.3108,-0.8132,0.1646,0.0072,-0.1000,0.1039,2.7228,1.3457,-3.0829
2024-10-11T13:53:38.168Z,-0.0569,-0.9028,0.1928,0.3108,-0.8132,0.1646,0.0088,-0.1070,0.0974,2.7228,1.3457,-3.0829
2024-10-11T13:53:38.178Z,-0.0616,-0.9124,0.1867,0.4485,-0.6496,0.3403,0.0126,-0.1092,0.0910,2.7101,1.3452,-3.0740
2024-10-11T13:53:38.189Z,-0.0626,-0.9238,0.1858,0.4485,-0.6496,0.3403,0.0195,-0.1095,0.0803,2.7101,1.3452,-3.0740
2024-10-11T13:53:38.199Z,-0.0676,-0.9372,0.1862,0.4485,-0.6496,0.3403,0.0197,-0.1112,0.0718,2.7101,1.3452,-3.0740
2024-10-11T13:53:38.208Z,-0.0700,-0.9506,0.1795,0.5193,-0.2850,0.4023,0.0265,-0.1104,0.0655,2.7008,1.3443,-3.0684
2024-10-11T13:53:38.218Z,-0.0763,-0.9606,0.1721,0.5193,-0.2850,0.4023,0.0283,-0.1084,0.0559,2.7008,1.3443,-3.0684
2024-10-11T13:53:38.229Z,-0.0758,-0.9726,0.1638,0.5193,-0.2850,0.4023,0.0436,-0.1024,0.0417,2.7008,1.3443,-3.0684
2024-10-11T13:53:38.238Z,-0.0721,-0.9904,0.1651,0.5471,0.0819,0.5995,0.0436,-0.1024,0.0417,2.6946,1.3430,-3.0658
2024-10-11T13:53:38.250Z,-0.0678,-1.0246,0.1659,0.5471,0.0819,0.5995,0.0485,-0.0977,0.0369,2.6946,1.3430,-3.0658
2024-10-11T13:53:38.258Z,-0.0578,-1.0571,0.1697,0.5471,0.0819,0.5995,0.0570,-0.0976,0.0291,2.6946,1.3430,-3.0658
2024-10-11T13:53:38.269Z,-0.0499,-1.0743,0.1725,0.3350,0.9479,0.5513,0.0667,-0.0860,0.0255,2.6909,1.3412,-3.0652
2024-10-11T13:53:38.279Z,-0.0486,-1.0818,0.1984,0.3350,0.9479,0.5513,0.0637,-0.0802,0.0275,2.6909,1.3412,-3.0652
2024-10-11T13:53:38.289Z,-0.0440,-1.0857,0.2254,0.3350,0.9479,0.5513,0.0616,-0.0764,0.0218,2.6909,1.3412,-3.0652
2024-10-11T13:53:38.301Z,-0.0370,-1.0903,0.2305,0.2161,1.1286,-0.0397,0.0579,-0.0721,0.0205,2.6883,1.3393,-3.0654
2024-10-11T13:53:38.309Z,-0.0346,-1.0877,0.2263,0.2161,1.1286,-0.0397,0.0557,-0.0646,0.0174,2.6883,1.3393,-3.0654
2024-10-11T13:53:38.319Z,-0.0326,-1.0804,0.2405,0.2161,1.1286,-0.0397,0.0520,-0.0591,0.0177,2.6883,1.3393,-3.0654
2024-10-11T13:53:38.329Z,-0.0203,-1.0738,0.2620,0.0883,1.0101,-0.2261,0.0419,-0.0525,0.0210,2.6863,1.3376,-3.0656
2024-10-11T13:53:38.339Z,-0.0118,-1.0677,0.2719,0.0883,1.0101,-0.2261,0.0330,-0.0447,0.0211,2.6863,1.3376,-3.0656
2024-10-11T13:53:38.350Z,-0.0049,-1.0584,0.2709,0.0883,1.0101,-0.2261,0.0285,-0.0390,0.0226,2.6863,1.3376,-3.0656
2024-10-11T13:53:38.359Z,-0.0038,-1.0530,0.2651,-0.1438,0.7999,-0.3335,0.0212,-0.0326,0.0250,2.6839,1.3366,-3.0648
2024-10-11T13:53:38.369Z,-0.0075,-1.0533,0.2704,-0.1438,0.7999,-0.3335,0.0150,-0.0305,0.0255,2.6839,1.3366,-3.0648
2024-10-11T13:53:38.379Z,-0.0107,-1.0574,0.2609,-0.1438,0.7999,-0.3335,0.0059,-0.0261,0.0256,2.6839,1.3366,-3.0648
2024-10-11T13:53:38.389Z,-0.0099,-1.0419,0.2638,-0.0953,0.7625,-0.2902,-0.0038,-0.0247,0.0272,2.6806,1.3361,-3.0627
2024-10-11T13:53:38.398Z,-0.0228,-1.0098,0.2731,-0.0953,0.7625,-0.2902,-0.0038,-0.0247,0.0272,2.6806,1.3361,-3.0627
2024-10-11T13:53:38.409Z,-0.0309,-0.9917,0.2803,-0.0953,0.7625,-0.2902,-0.0220,-0.0319,0.0182,2.6806,1.3361,-3.0627
2024-10-11T13:53:38.419Z,-0.0389,-0.9850,0.2676,0.1637,0.1453,-0.3733,-0.0314,-0.0393,0.0160,2.6776,1.3366,-3.0608
2024-10-11T13:53:38.429Z,-0.0463,-0.9756,0.2806,0.1637,0.1453,-0.3733,-0.0499,-0.0423,0.0119,2.6776,1.3366,-3.0608
2024-10-11T13:53:38.439Z,-0.0489,-0.9638,0.3087,0.1637,0.1453,-0.3733,-0.0638,-0.0489,0.0035,2.6776,1.3366,-3.0608
2024-10-11T13:53:38.449Z,-0.0505,-0.9604,0.3217,0.2972,-0.1149,-0.8997,-0.0799,-0.0513,-0.0044,2.6759,1.3381,-3.0605
2024-10-11T13:53:38.458Z,-0.0526,-0.9527,0.3127,0.2972,-0.1149,-0.8997,-0.0917,-0.0560,-0.0085,2.6759,1.3381,-3.0605
2024-10-11T13:53:38.469Z,-0.0490,-0.9460,0.3019,0.2972,-0.1149,-0.8997,-0.1070,-0.0653,-0.0171,2.6759,1.3381,-3.0605
2024-10-11T13:53:38.478Z,-0.0504,-0.9389,0.3109,0.3153,-0.3287,-0.7514,-0.1203,-0.0755,-0.0240,2.6762,1.3409,-3.0630
2024-10-11T13:53:38.489Z,-0.0445,-0.9405,0.3375,0.3153,-0.3287,-0.7514,-0.1334,-0.0866,-0.0264,2.6762,1.3409,-3.0630
2024-10-11T13:53:38.499Z,-0.0413,-0.9492,0.3477,0.3153,-0.3287,-0.7514,-0.1496,-0.0907,-0.0357,2.6762,1.3409,-3.0630
2024-10-11T13:53:38.508Z,-0.0469,-0.9589,0.3241,0.2820,-0.1640,-1.0602,-0.1626,-0.0958,-0.0451,2.6789,1.3451,-3.0684
2024-10-11T13:53:38.519Z,-0.0501,-0.9583,0.3201,0.2820,-0.1640,-1.0602,-0.1708,-0.1055,-0.0536,2.6789,1.3451,-3.0684
2024-10-11T13:53:38.529Z,-0.0549,-0.9537,0.3091,0.2820,-0.1640,-1.0602,-0.1766,-0.1136,-0.0625,2.6789,1.3451,-3.0684
2024-10-11T13:53:38.539Z,-0.0623,-0.9640,0.2801,0.4278,-0.1586,-0.7532,-0.1811,-0.1291,-0.0711,2.6848,1.3503,-3.0776
2024-10-11T13:53:38.549Z,-0.0699,-0.9705,0.2597,0.4278,-0.1586,-0.7532,-0.1876,-0.1371,-0.0837,2.6848,1.3503,-3.0776
2024-10-11T13:53:38.557Z,-0.0688,-0.9689,0.2502,0.4278,-0.1586,-0.7532,-0.1876,-0.1371,-0.0837,2.6848,1.3503,-3.0776
2024-10-11T13:53:38.568Z,-0.0634,-0.9704,0.2288,0.5503,-0.0881,-0.2516,-0.1878,-0.1523,-0.0984,2.6948,1.3560,-3.0917
2024-10-11T13:53:38.578Z,-0.0570,-0.9779,0.2053,0.5503,-0.0881,-0.2516,-0.1840,-0.1588,-0.1049,2.6948,1.3560,-3.0917
2024-10-11T13:53:38.588Z,-0.0540,-0.9807,0.1904,0.5503,-0.0881,-0.2516,-0.1800,-0.1670,-0.1107,2.6948,1.3560,-3.0917
2024-10-11T13:53:38.598Z,-0.0475,-0.9863,0.1730,0.4330,0.0533,0.2536,-0.1728,-0.1681,-0.1136,2.7086,1.3616,-3.1103
2024-10-11T13:53:38.609Z,-0.0333,-0.9938,0.1660,0.4330,0.0533,0.2536,-0.1623,-0.1677,-0.1150,2.7086,1.3616,-3.1103
2024-10-11T13:53:38.619Z,-0.0210,-0.9973,0.1491,0.4330,0.0533,0.2536,-0.1553,-0.1661,-0.1203,2.7086,1.3616,-3.1103
2024-10-11T13:53:38.628Z,-0.0114,-1.0073,0.1337,0.1082,0.2249,0.6126,-0.1413,-0.1635,-0.1193,2.7250,1.3664,-3.1317
2024-10-11T13:53:38.638Z,-0.0048,-1.0046,0.1263,0.1082,0.2249,0.6126,-0.1337,-0.1638,-0.1213,2.7250,1.3664,-3.1317
2024-10-11T13:53:38.648Z,0.0031,-0.9992,0.1220,0.1082,0.2249,0.6126,-0.1192,-0.1564,-0.1236,2.7250,1.3664,-3.1317
2024-10-11T13:53:38.658Z,0.0076,-0.9968,0.1142,-0.0311,0.1514,0.8349,-0.1109,-0.1559,-0.1200,2.7428,1.3702,3.1288
2024-10-11T13:53:38.668Z,0.0152,-1.0078,0.1040,-0.0311,0.1514,0.8349,-0.1032,-0.1494,-0.1187,2.7428,1.3702,3.1288
2024-10-11T13:53:38.678Z,0.0267,-1.0110,0.1049,-0.0311,0.1514,0.8349,-0.0903,-0.1526,-0.1142,2.7428,1.3702,3.1288
2024-10-11T13:53:38.688Z,0.0423,-1.0100,0.1009,-0.3012,0.2955,0.9132,-0.0832,-0.1552,-0.1104,2.7606,1.3730,3.1065
2024-10-11T13:53:38.698Z,0.0379,-1.0087,0.0886,-0.3012,0.2955,0.9132,-0.0733,-0.1576,-0.1065,2.7606,1.3730,3.1065
2024-10-11T13:53:38.708Z,0.0275,-1.0053,0.0800,-0.3012,0.2955,0.9132,-0.0652,-0.1609,-0.1057,2.7606,1.3730,3.1065
2024-10-11T13:53:38.718Z,0.0294,-0.9989,0.0791,-0.1794,0.1977,1.1441,-0.0618,-0.1696,-0.1049,2.7774,1.3750,3.0850
2024-10-11T13:53:38.728Z,0.0338,-0.9954,0.0804,-0.1794,0.1977,1.1441,-0.0560,-0.1829,-0.1036,2.7774,1.3750,3.0850
2024-10-11T13:53:38.738Z,0.0263,-0.9892,0.0725,-0.1794,0.1977,1.1441,-0.0488,-0.1916,-0.1055,2.7774,1.3750,3.0850
2024-10-11T13:53:38.748Z,0.0165,-0.9851,0.0625,-0.0283,0.0462,1.2490,-0.0396,-0.2054,-0.1052,2.7942,1.3764,3.0630
2024-10-11T13:53:38.758Z,0.0139,-0.9848,0.0635,-0.0283,0.0462,1.2490,-0.0304,-0.2180,-0.1105,2.7942,1.3764,3.0630
2024-10-11T13:53:38.769Z,0.0027,-0.9788,0.0697,-0.0283,0.0462,1.2490,-0.0172,-0.2322,-0.1106,2.7942,1.3764,3.0630
2024-10-11T13:53:38.778Z,0.0086,-0.9804,0.0680,0.1441,-0.0204,1.1987,-0.0052,-0.2490,-0.1094,2.8112,1.3769,3.0394
2024-10-11T13:53:38.788Z,0.0158,-0.9762,0.0673,0.1441,-0.0204,1.1987,0.0039,-0.2560,-0.1126,2.8112,1.3769,3.0394
2024-10-11T13:53:38.798Z,0.0190,-0.9747,0.0761,0.1441,-0.0204,1.1987,0.0183,-0.2669,-0.1106,2.8112,1.3769,3.0394
2024-10-11T13:53:38.808Z,0.0209,-0.9518,0.0909,0.0556,-0.2068,1.0466,0.0281,-0.2699,-0.1089,2.8279,1.3763,3.0150
2024-10-11T13:53:38.818Z,0.0247,-0.9306,0.1045,0.0556,-0.2068,1.0466,0.0281,-0.2699,-0.1089,2.8279,1.3763,3.0150
2024-10-11T13:53:38.828Z,0.0214,-0.9170,0.1217,0.0556,-0.2068,1.0466,0.0478,-0.2706,-0.1072,2.8279,1.3763,3.0150
2024-10-11T13:53:38.838Z,0.0152,-0.9127,0.1473,0.1182,-0.6522,0.5422,0.0543,-0.2665,-0.1087,2.8435,1.3746,2.9913
2024-10-11T13:53:38.848Z,0.0133,-0.9080,0.1663,0.1182,-0.6522,0.5422,0.0609,-0.2669,-0.1105,2.8435,1.3746,2.9913
2024-10-11T13:53:38.858Z,0.0147,-0.9058,0.1783,0.1182,-0.6522,0.5422,0.0659,-0.2581,-0.1140,2.8435,1.3746,2.9913
2024-10-11T13:53:38.869Z,0.0045,-0.9060,0.2007,0.2356,-0.7390,0.0118,0.0735,-0.2546,-0.1189,2.8587,1.3723,2.9683
2024-10-11T13:53:38.878Z,-0.0040,-0.9071,0.2194,0.2356,-0.7390,0.0118,0.0728,-0.2439,-0.1205,2.8587,1.3723,2.9683
2024-10-11T13:53:38.888Z,-0.0048,-0.9074,0.2423,0.2356,-0.7390,0.0118,0.0719,-0.2293,-0.1249,2.8587,1.3723,2.9683
2024-10-11T13:53:38.898Z,0.0029,-0.9114,0.2539,0.3924,-0.6804,-0.5539,0.0735,-0.2171,-0.1257,2.8747,1.3695,2.9453
2024-10-11T13:53:38.908Z,0.0151,-0.9129,0.2639,0.3924,-0.6804,-0.5539,0.0675,-0.2013,-0.1233,2.8747,1.3695,2.9453
2024-10-11T13:53:38.918Z,0.0189,-0.9074,0.2688,0.3924,-0.6804,-0.5539,0.0618,-0.1829,-0.1224,2.8747,1.3695,2.9453
2024-10-11T13:53:38.928Z,0.0215,-0.8998,0.2822,0.2320,-0.7490,-0.7916,0.0554,-0.1723,-0.1186,2.8906,1.3669,2.9236
2024-10-11T13:53:38.938Z,0.0266,-0.8950,0.2894,0.2320,-0.7490,-0.7916,0.0467,-0.1571,-0.1109,2.8906,1.3669,2.9236
2024-10-11T13:53:38.948Z,0.0322,-0.9012,0.2869,0.2320,-0.7490,-0.7916,0.0401,-0.1381,-0.1031,2.8906,1.3669,2.9236
2024-10-11T13:53:38.958Z,0.0493,-0.9105,0.2789,0.0601,-0.6981,-0.8117,0.0324,-0.1248,-0.0941,2.9045,1.3649,2.9052
2024-10-11T13:53:38.969Z,0.0592,-0.9155,0.2709,0.0601,-0.6981,-0.8117,0.0262,-0.1095,-0.0845,2.9045,1.3649,2.9052
2024-10-11T13:53:38.978Z,0.0623,-0.9208,0.2565,0.0601,-0.6981,-0.8117,0.0211,-0.0954,-0.0770,2.9045,1.3649,2.9052
2024-10-11T13:53:38.988Z,0.0579,-0.9264,0.2563,-0.1092,-0.5357,-0.5444,0.0165,-0.0842,-0.0729,2.9153,1.3635,2.8911
2024-10-11T13:53:38.998Z,0.0435,-0.9316,0.2458,-0.1092,-0.5357,-0.5444,0.0095,-0.0753,-0.0656,2.9153,1.3635,2.8911
2024-10-11T13:53:39.008Z,0.0364,-0.9411,0.2326,-0.1092,-0.5357,-0.5444,0.0103,-0.0597,-0.0631,2.9153,1.3635,2.8911
2024-10-11T13:53:39.019Z,0.0325,-0.9518,0.2200,0.2062,-0.3172,-0.2585,0.0132,-0.0508,-0.0557,2.9237,1.3626,2.8806
2024-10-11T13:53:39.028Z,0.0327,-0.9669,0.1977,0.2062,-0.3172,-0.2585,0.0120,-0.0385,-0.0510,2.9237,1.3626,2.8806
2024-10-11T13:53:39.038Z,0.0281,-0.9728,0.1960,0.2062,-0.3172,-0.2585,0.0163,-0.0284,-0.0476,2.9237,1.3626,2.8806
2024-10-11T13:53:39.048Z,0.0202,-0.9740,0.1876,0.3127,-0.0338,0.1115,0.0180,-0.0124,-0.0454,2.9303,1.3619,2.8729
2024-10-11T13:53:39.059Z,0.0158,-0.9811,0.1889,0.3127,-0.0338,0.1115,0.0181,0.0003,-0.0436,2.9303,1.3619,2.8729
2024-10-11T13:53:39.069Z,0.0194,-0.9912,0.1774,0.3127,-0.0338,0.1115,0.0226,0.0146,-0.0439,2.9303,1.3619,2.8729
2024-10-11T13:53:39.079Z,0.0249,-1.0064,0.1673,0.3153,0.2166,0.2755,0.0285,0.0314,-0.0424,2.9354,1.3609,2.8678
2024-10-11T13:53:39.088Z,0.0174,-1.0164,0.1637,0.3153,0.2166,0.2755,0.0344,0.0400,-0.0416,2.9354,1.3609,2.8678
2024-10-11T13:53:39.098Z,0.0234,-1.0287,0.1610,0.3153,0.2166,0.2755,0.0384,0.0517,-0.0408,2.9354,1.3609,2.8678
2024-10-11T13:53:39.108Z,0.0229,-1.0402,0.1608,0.3431,0.5727,0.4194,0.0491,0.0626,-0.0398,2.9394,1.3595,2.8649
2024-10-11T13:53:39.119Z,0.0310,-1.0450,0.1652,0.3431,0.5727,0.4194,0.0525,0.0734,-0.0395,2.9394,1.3595,2.8649
2024-10-11T13:53:39.128Z,0.0453,-1.0458,0.1683,0.3431,0.5727,0.4194,0.0573,0.0802,-0.0362,2.9394,1.3595,2.8649
2024-10-11T13:53:39.138Z,0.0523,-1.0497,0.1737,0.0857,0.6954,0.3008,0.0575,0.0930,-0.0342,2.9423,1.3577,2.8641
2024-10-11T13:53:39.148Z,0.0553,-1.0557,0.1856,0.0857,0.6954,0.3008,0.0601,0.1002,-0.0294,2.9423,1.3577,2.8641
2024-10-11T13:53:39.157Z,0.0513,-1.0507,0.1870,0.0857,0.6954,0.3008,0.0578,0.1044,-0.0277,2.9423,1.3577,2.8641
2024-10-11T13:53:39.169Z,0.0464,-1.0411,0.2039,0.1070,0.6674,0.0466,0.0578,0.1088,-0.0262,2.9438,1.3558,2.8654
2024-10-11T13:53:39.178Z,0.0529,-1.0287,0.2101,0.1070,0.6674,0.0466,0.0529,0.1138,-0.0229,2.9438,1.3558,2.8654
2024-10-11T13:53:39.188Z,0.0579,-1.0248,0.2255,0.1070,0.6674,0.0466,0.0536,0.1179,-0.0204,2.9438,1.3558,2.8654
2024-10-11T13:53:39.198Z,0.0581,-1.0224,0.2289,0.0061,0.4566,-0.1992,0.0476,0.1233,-0.0216,2.9445,1.3540,2.8678
2024-10-11T13:53:39.208Z,0.0590,-1.0170,0.2329,0.0061,0.4566,-0.1992,0.0459,0.1300,-0.0180,2.9445,1.3540,2.8678
2024-10-11T13:53:39.218Z,0.0580,-1.0063,0.2397,0.0061,0.4566,-0.1992,0.0365,0.1377,-0.0191,2.9445,1.3540,2.8678
2024-10-11T13:53:39.228Z,0.0735,-0.9947,0.2461,-0.0916,0.2273,-0.3459,0.0311,0.1528,-0.0143,2.9449,1.3527,2.8714
2024-10-11T13:53:39.239Z,0.0733,-0.9762,0.2587,-0.0916,0.2273,-0.3459,0.0244,0.1613,-0.0154,2.9449,1.3527,2.8714
